key_resp.keys,instr_done_touch.x,instr_done_touch.y,instr_done_touch.leftButton,instr_done_touch.midButton,instr_done_touch.rightButton,instr_done_touch.clicked_name,instruction_pages.thisRepN,instruction_pages.thisTrialN,instruction_pages.thisN,instruction_pages.thisIndex,instruction_pages.ran,pageN,phase,instruct_text,has_image,instruct_image,participant,age,date,expName,psychopyVersion,OS,frameRate,response.keys,response.corr,response.rt,touch_resp.x,touch_resp.y,touch_resp.leftButton,touch_resp.midButton,touch_resp.rightButton,touch_resp.time,touch_resp.clicked_name,rt,corr,practrials.thisRepN,practrials.thisTrialN,practrials.thisN,practrials.thisIndex,practrials.ran,TrialID,Target,corrAns,end_of_practice_trials_pages.thisRepN,end_of_practice_trials_pages.thisTrialN,end_of_practice_trials_pages.thisN,end_of_practice_trials_pages.thisIndex,end_of_practice_trials_pages.ran,key_resp_2.keys,key_resp_2.corr,key_resp_2.rt,targ_click.x,targ_click.y,targ_click.leftButton,targ_click.midButton,targ_click.rightButton,targ_click.time,targ_click.clicked_name,break_done_touch.x,break_done_touch.y,break_done_touch.leftButton,break_done_touch.midButton,break_done_touch.rightButton,break_done_keyboard.keys,maintrials.thisRepN,maintrials.thisTrialN,maintrials.thisN,maintrials.thisIndex,maintrials.ran,string,blur,study,lex,stim_path,break_done_touch.clicked_name,mouse_2.x,mouse_2.y,mouse_2.leftButton,mouse_2.midButton,mouse_2.rightButton,mouse_2.clicked_name,slider.response,slider.rt,trials.thisRepN,trials.thisTrialN,trials.thisN,trials.thisIndex,trials.ran,test_instructions.thisRepN,test_instructions.thisTrialN,test_instructions.thisN,test_instructions.thisIndex,test_instructions.ran,key_resp.rt,key_resp_3.keys,key_resp_3.corr,key_resp_3.rt,test_click.x,test_click.y,test_click.leftButton,test_click.midButton,test_click.rightButton,test_click.time,test_click.clicked_name,test_phase.thisRepN,test_phase.thisTrialN,test_phase.thisN,test_phase.thisIndex,test_phase.ran
,0.039372965,-0.376465861,1,0,0,instr_done_button,0,0,0,0,1,1,instructions,"INSTRUCTIONS
At the start of each trial, look at the plus sign  (+) in the center of the screen.  This tells you that a trial is about to begin and where to look. Second, the plus sign will disappear and a string of letters will appear. Your task is to determine if the string of letters is a word or not. If the item is a word press the M key (on keyboard)  or touch the word button (phone/tablet).  If the item is not a word,  press the  Z key (on keyboard)  or touch the nonword button (on phone/tablet). 
Press the space bar or touch  continue.",0,,6117fb98735b8d5cc5e705a2,51,2022-02-12_11h35.39.562,lexical_decision_task_DD_L2,2021.2.3,MacIntel,60.0024001,,,,,,,,,,,,,,,,,,,,,,,,,,,,,,,,,,,,,,,,,,,,,,,,,,,,,,,,,,,,,,,,,,,,,,,,,,,,,,,,,,,,,,
,0.015488959,-0.402852648,1,0,0,instr_done_button,0,1,1,1,1,2,instructions,"If your device has a keyboard, press the 'Z' key for nonwords and the 'M' key for words.





Press the space bar or touch the button below to continue.",0,keyboard-example.gif,6117fb98735b8d5cc5e705a2,51,2022-02-12_11h35.39.562,lexical_decision_task_DD_L2,2021.2.3,MacIntel,60.0024001,,,,,,,,,,,,,,,,,,,,,,,,,,,,,,,,,,,,,,,,,,,,,,,,,,,,,,,,,,,,,,,,,,,,,,,,,,,,,,,,,,,,,,
,0.015488959,-0.402852648,1,0,0,instr_done_button,0,2,2,2,1,3,instructions,"If you are using a touchscreen only device, use the buttons on the screen. Do not use the mouse.





Press the space bar or touch the button below to continue.",0,touchscreen-example.gif,6117fb98735b8d5cc5e705a2,51,2022-02-12_11h35.39.562,lexical_decision_task_DD_L2,2021.2.3,MacIntel,60.0024001,,,,,,,,,,,,,,,,,,,,,,,,,,,,,,,,,,,,,,,,,,,,,,,,,,,,,,,,,,,,,,,,,,,,,,,,,,,,,,,,,,,,,,
,0.013641018,-0.403124254,1,0,0,instr_done_button,0,3,3,3,1,4,instructions,"It is very important that you respond as quickly and accurately as possible, as each letter string will only be on the screen for two seconds. If you do not respond within this time, the message 'Too slow!' will be displayed and the experiment will progress to the next letter string. The first 20 trials will be practice trials and you will receive feedback on your answers. 

Press the space bar or touch the button below to start the practice trials.",0,,6117fb98735b8d5cc5e705a2,51,2022-02-12_11h35.39.562,lexical_decision_task_DD_L2,2021.2.3,MacIntel,60.0024001,,,,,,,,,,,,,,,,,,,,,,,,,,,,,,,,,,,,,,,,,,,,,,,,,,,,,,,,,,,,,,,,,,,,,,,,,,,,,,,,,,,,,,
,,,,,,,,,,,,,,,,,6117fb98735b8d5cc5e705a2,51,2022-02-12_11h35.39.562,lexical_decision_task_DD_L2,2021.2.3,MacIntel,60.0024001,z,1,1.0977,,,,,,,,1.0977,1,0,0,0,9,1,1001,FARINY,z,,,,,,,,,,,,,,,,,,,,,,,,,,,,,,,,,,,,,,,,,,,,,,,,,,,,,,,,,,,,,,,,,,
,,,,,,,,,,,,,,,,,6117fb98735b8d5cc5e705a2,51,2022-02-12_11h35.39.562,lexical_decision_task_DD_L2,2021.2.3,MacIntel,60.0024001,z,1,0.8068,,,,,,,,0.8068,1,0,1,1,13,1,1001,ROUPET,z,,,,,,,,,,,,,,,,,,,,,,,,,,,,,,,,,,,,,,,,,,,,,,,,,,,,,,,,,,,,,,,,,,
,,,,,,,,,,,,,,,,,6117fb98735b8d5cc5e705a2,51,2022-02-12_11h35.39.562,lexical_decision_task_DD_L2,2021.2.3,MacIntel,60.0024001,z,1,0.929,,,,,,,,0.929,1,0,2,2,8,1,1001,ASLERT,z,,,,,,,,,,,,,,,,,,,,,,,,,,,,,,,,,,,,,,,,,,,,,,,,,,,,,,,,,,,,,,,,,,
,,,,,,,,,,,,,,,,,6117fb98735b8d5cc5e705a2,51,2022-02-12_11h35.39.562,lexical_decision_task_DD_L2,2021.2.3,MacIntel,60.0024001,m,1,0.6314,,,,,,,,0.6314,1,0,3,3,2,1,1001,ALMOND,m,,,,,,,,,,,,,,,,,,,,,,,,,,,,,,,,,,,,,,,,,,,,,,,,,,,,,,,,,,,,,,,,,,
,,,,,,,,,,,,,,,,,6117fb98735b8d5cc5e705a2,51,2022-02-12_11h35.39.562,lexical_decision_task_DD_L2,2021.2.3,MacIntel,60.0024001,m,1,0.6013,,,,,,,,0.6013,1,0,4,4,1,1,1001,ADJUST,m,,,,,,,,,,,,,,,,,,,,,,,,,,,,,,,,,,,,,,,,,,,,,,,,,,,,,,,,,,,,,,,,,,
,,,,,,,,,,,,,,,,,6117fb98735b8d5cc5e705a2,51,2022-02-12_11h35.39.562,lexical_decision_task_DD_L2,2021.2.3,MacIntel,60.0024001,z,1,0.9266,,,,,,,,0.9266,1,0,5,5,10,1,1001,INLADE,z,,,,,,,,,,,,,,,,,,,,,,,,,,,,,,,,,,,,,,,,,,,,,,,,,,,,,,,,,,,,,,,,,,
,,,,,,,,,,,,,,,,,6117fb98735b8d5cc5e705a2,51,2022-02-12_11h35.39.562,lexical_decision_task_DD_L2,2021.2.3,MacIntel,60.0024001,z,1,0.8274,,,,,,,,0.8274,1,0,6,6,12,1,1001,SPRINY,z,,,,,,,,,,,,,,,,,,,,,,,,,,,,,,,,,,,,,,,,,,,,,,,,,,,,,,,,,,,,,,,,,,
,,,,,,,,,,,,,,,,,6117fb98735b8d5cc5e705a2,51,2022-02-12_11h35.39.562,lexical_decision_task_DD_L2,2021.2.3,MacIntel,60.0024001,m,1,0.6779,,,,,,,,0.6779,1,0,7,7,3,1,1001,MATRIX,m,,,,,,,,,,,,,,,,,,,,,,,,,,,,,,,,,,,,,,,,,,,,,,,,,,,,,,,,,,,,,,,,,,
,,,,,,,,,,,,,,,,,6117fb98735b8d5cc5e705a2,51,2022-02-12_11h35.39.562,lexical_decision_task_DD_L2,2021.2.3,MacIntel,60.0024001,z,1,0.7452,,,,,,,,0.7452,1,0,8,8,15,1,1001,WHAISE,z,,,,,,,,,,,,,,,,,,,,,,,,,,,,,,,,,,,,,,,,,,,,,,,,,,,,,,,,,,,,,,,,,,
,,,,,,,,,,,,,,,,,6117fb98735b8d5cc5e705a2,51,2022-02-12_11h35.39.562,lexical_decision_task_DD_L2,2021.2.3,MacIntel,60.0024001,z,1,0.5934,,,,,,,,0.5934,1,0,9,9,14,1,1001,THRALE,z,,,,,,,,,,,,,,,,,,,,,,,,,,,,,,,,,,,,,,,,,,,,,,,,,,,,,,,,,,,,,,,,,,
,,,,,,,,,,,,,,,,,6117fb98735b8d5cc5e705a2,51,2022-02-12_11h35.39.562,lexical_decision_task_DD_L2,2021.2.3,MacIntel,60.0024001,m,1,0.7099,,,,,,,,0.7099,1,0,10,10,5,1,1001,OBTAIN,m,,,,,,,,,,,,,,,,,,,,,,,,,,,,,,,,,,,,,,,,,,,,,,,,,,,,,,,,,,,,,,,,,,
,,,,,,,,,,,,,,,,,6117fb98735b8d5cc5e705a2,51,2022-02-12_11h35.39.562,lexical_decision_task_DD_L2,2021.2.3,MacIntel,60.0024001,m,1,0.5666,,,,,,,,0.5666,1,0,11,11,4,1,1001,SQUEAK,m,,,,,,,,,,,,,,,,,,,,,,,,,,,,,,,,,,,,,,,,,,,,,,,,,,,,,,,,,,,,,,,,,,
,,,,,,,,,,,,,,,,,6117fb98735b8d5cc5e705a2,51,2022-02-12_11h35.39.562,lexical_decision_task_DD_L2,2021.2.3,MacIntel,60.0024001,z,1,0.6821,,,,,,,,0.6821,1,0,12,12,11,1,1001,RASHET,z,,,,,,,,,,,,,,,,,,,,,,,,,,,,,,,,,,,,,,,,,,,,,,,,,,,,,,,,,,,,,,,,,,
,,,,,,,,,,,,,,,,,6117fb98735b8d5cc5e705a2,51,2022-02-12_11h35.39.562,lexical_decision_task_DD_L2,2021.2.3,MacIntel,60.0024001,m,1,0.9004,,,,,,,,0.9004,1,0,13,13,0,1,1001,UTOPIA,m,,,,,,,,,,,,,,,,,,,,,,,,,,,,,,,,,,,,,,,,,,,,,,,,,,,,,,,,,,,,,,,,,,
,,,,,,,,,,,,,,,,,6117fb98735b8d5cc5e705a2,51,2022-02-12_11h35.39.562,lexical_decision_task_DD_L2,2021.2.3,MacIntel,60.0024001,m,1,0.6438,,,,,,,,0.6438,1,0,14,14,7,1,1001,VOLUME,m,,,,,,,,,,,,,,,,,,,,,,,,,,,,,,,,,,,,,,,,,,,,,,,,,,,,,,,,,,,,,,,,,,
,,,,,,,,,,,,,,,,,6117fb98735b8d5cc5e705a2,51,2022-02-12_11h35.39.562,lexical_decision_task_DD_L2,2021.2.3,MacIntel,60.0024001,m,1,0.6915,,,,,,,,0.6915,1,0,15,15,6,1,1001,ZOMBIE,m,,,,,,,,,,,,,,,,,,,,,,,,,,,,,,,,,,,,,,,,,,,,,,,,,,,,,,,,,,,,,,,,,,
,-0.010591159,-0.387364366,1,0,0,instr_done_button,,,,,,1,end_of_practice,"You have completed the practice trials. During the experimental trials, you will not receive feedback. 
Before you begin, please ensure that you are in a comfortable and quiet location and will not be disturbed for about 15 minutes, as we cannot use your data if you do not complete all the trials. 
 When you are ready to start the experimental trials, please press space or touch the button below.",,,6117fb98735b8d5cc5e705a2,51,2022-02-12_11h35.39.562,lexical_decision_task_DD_L2,2021.2.3,MacIntel,60.0024001,,,,,,,,,,,,,,,,,,,,,0,0,0,0,1,,,,,,,,,,,,,,,,,,,,,,,,,,,,,,,,,,,,,,,,,,,,,,,,,,,,,,,,,,,,,
,,,,,,,,,,,,,,,,,6117fb98735b8d5cc5e705a2,51,2022-02-12_11h35.39.562,lexical_decision_task_DD_L2,2021.2.3,MacIntel,60.0024001,,,,,,,,,,,6.4021,1,,,,,,,,,,,,,,z,1,6.4021,,,,,,,,-0.010591159,-0.387364366,0,0,0,,0,0,0,121,1,CEERS,HB,old,z,./images/CEERSHB.png,,,,,,,,,,,,,,,,,,,,,,,,,,,,,,,,,,,
,,,,,,,,,,,,,,,,,6117fb98735b8d5cc5e705a2,51,2022-02-12_11h35.39.562,lexical_decision_task_DD_L2,2021.2.3,MacIntel,60.0024001,,,,,,,,,,,1.3272,1,,,,,,,,,,,,,,m,1,1.3272,,,,,,,,-0.010591159,-0.387364366,0,0,0,,0,1,1,11,1,BONNET,C,old,m,./images/BONNET.png,,,,,,,,,,,,,,,,,,,,,,,,,,,,,,,,,,,
,,,,,,,,,,,,,,,,,6117fb98735b8d5cc5e705a2,51,2022-02-12_11h35.39.562,lexical_decision_task_DD_L2,2021.2.3,MacIntel,60.0024001,,,,,,,,,,,2.0955,1,,,,,,,,,,,,,,z,1,2.0955,,,,,,,,-0.010591159,-0.387364366,0,0,0,,0,2,2,136,1,WERVE,HB,old,z,./images/WERVEHB.png,,,,,,,,,,,,,,,,,,,,,,,,,,,,,,,,,,,
,,,,,,,,,,,,,,,,,6117fb98735b8d5cc5e705a2,51,2022-02-12_11h35.39.562,lexical_decision_task_DD_L2,2021.2.3,MacIntel,60.0024001,,,,,,,,,,,1.6435,1,,,,,,,,,,,,,,m,1,1.6435,,,,,,,,-0.010591159,-0.387364366,0,0,0,,0,3,3,16,1,PENCE,LB,old,m,./images/PENCELB.png,,,,,,,,,,,,,,,,,,,,,,,,,,,,,,,,,,,
,,,,,,,,,,,,,,,,,6117fb98735b8d5cc5e705a2,51,2022-02-12_11h35.39.562,lexical_decision_task_DD_L2,2021.2.3,MacIntel,60.0024001,,,,,,,,,,,0.9776,1,,,,,,,,,,,,,,m,1,0.9776,,,,,,,,-0.010591159,-0.387364366,0,0,0,,0,4,4,82,1,SUNSET,LB,old,m,./images/SUNSETLB.png,,,,,,,,,,,,,,,,,,,,,,,,,,,,,,,,,,,
,,,,,,,,,,,,,,,,,6117fb98735b8d5cc5e705a2,51,2022-02-12_11h35.39.562,lexical_decision_task_DD_L2,2021.2.3,MacIntel,60.0024001,,,,,,,,,,,0.9306,1,,,,,,,,,,,,,,m,1,0.9306,,,,,,,,-0.010591159,-0.387364366,0,0,0,,0,5,5,76,1,INFANT,LB,old,m,./images/INFANTLB.png,,,,,,,,,,,,,,,,,,,,,,,,,,,,,,,,,,,
,,,,,,,,,,,,,,,,,6117fb98735b8d5cc5e705a2,51,2022-02-12_11h35.39.562,lexical_decision_task_DD_L2,2021.2.3,MacIntel,60.0024001,,,,,,,,,,,0.9404,1,,,,,,,,,,,,,,m,1,0.9404,,,,,,,,-0.010591159,-0.387364366,0,0,0,,0,6,6,36,1,THROAT,HB,old,m,./images/THROATHB.png,,,,,,,,,,,,,,,,,,,,,,,,,,,,,,,,,,,
,,,,,,,,,,,,,,,,,6117fb98735b8d5cc5e705a2,51,2022-02-12_11h35.39.562,lexical_decision_task_DD_L2,2021.2.3,MacIntel,60.0024001,,,,,,,,,,,0.6145,1,,,,,,,,,,,,,,m,1,0.6145,,,,,,,,-0.010591159,-0.387364366,0,0,0,,0,7,7,60,1,TWINS,HB,old,m,./images/TWINSHB.png,,,,,,,,,,,,,,,,,,,,,,,,,,,,,,,,,,,
,,,,,,,,,,,,,,,,,6117fb98735b8d5cc5e705a2,51,2022-02-12_11h35.39.562,lexical_decision_task_DD_L2,2021.2.3,MacIntel,60.0024001,,,,,,,,,,,0.6801,1,,,,,,,,,,,,,,m,1,0.6801,,,,,,,,-0.010591159,-0.387364366,0,0,0,,0,8,8,9,1,RHINO,HB,old,m,./images/RHINOHB.png,,,,,,,,,,,,,,,,,,,,,,,,,,,,,,,,,,,
,,,,,,,,,,,,,,,,,6117fb98735b8d5cc5e705a2,51,2022-02-12_11h35.39.562,lexical_decision_task_DD_L2,2021.2.3,MacIntel,60.0024001,,,,,,,,,,,0.8791,1,,,,,,,,,,,,,,z,1,0.8791,,,,,,,,-0.010591159,-0.387364366,0,0,0,,0,9,9,133,1,POWDY,HB,old,z,./images/POWDYHB.png,,,,,,,,,,,,,,,,,,,,,,,,,,,,,,,,,,,
,,,,,,,,,,,,,,,,,6117fb98735b8d5cc5e705a2,51,2022-02-12_11h35.39.562,lexical_decision_task_DD_L2,2021.2.3,MacIntel,60.0024001,,,,,,,,,,,0.8646,1,,,,,,,,,,,,,,m,1,0.8646,,,,,,,,-0.010591159,-0.387364366,0,0,0,,0,10,10,79,1,CRUST,LB,old,m,./images/CRUSTLB.png,,,,,,,,,,,,,,,,,,,,,,,,,,,,,,,,,,,
,,,,,,,,,,,,,,,,,6117fb98735b8d5cc5e705a2,51,2022-02-12_11h35.39.562,lexical_decision_task_DD_L2,2021.2.3,MacIntel,60.0024001,,,,,,,,,,,0.9901,1,,,,,,,,,,,,,,z,1,0.9901,,,,,,,,-0.010591159,-0.387364366,0,0,0,,0,11,11,126,1,GUELS,C,old,z,./images/GUELS.png,,,,,,,,,,,,,,,,,,,,,,,,,,,,,,,,,,,
,,,,,,,,,,,,,,,,,6117fb98735b8d5cc5e705a2,51,2022-02-12_11h35.39.562,lexical_decision_task_DD_L2,2021.2.3,MacIntel,60.0024001,,,,,,,,,,,0.7397,1,,,,,,,,,,,,,,m,1,0.7397,,,,,,,,-0.010591159,-0.387364366,0,0,0,,0,12,12,47,1,BERRY,C,old,m,./images/BERRY.png,,,,,,,,,,,,,,,,,,,,,,,,,,,,,,,,,,,
,,,,,,,,,,,,,,,,,6117fb98735b8d5cc5e705a2,51,2022-02-12_11h35.39.562,lexical_decision_task_DD_L2,2021.2.3,MacIntel,60.0024001,,,,,,,,,,,0.9076,1,,,,,,,,,,,,,,z,1,0.9076,,,,,,,,-0.00865465,-0.387364366,0,0,0,,0,13,13,113,1,LINEW,LB,old,z,./images/LINEWLB.png,,,,,,,,,,,,,,,,,,,,,,,,,,,,,,,,,,,
,,,,,,,,,,,,,,,,,6117fb98735b8d5cc5e705a2,51,2022-02-12_11h35.39.562,lexical_decision_task_DD_L2,2021.2.3,MacIntel,60.0024001,,,,,,,,,,,0.7127,1,,,,,,,,,,,,,,m,1,0.7127,,,,,,,,-0.00865465,-0.387364366,0,0,0,,0,14,14,17,1,SKIING,C,old,m,./images/SKIING.png,,,,,,,,,,,,,,,,,,,,,,,,,,,,,,,,,,,
,,,,,,,,,,,,,,,,,6117fb98735b8d5cc5e705a2,51,2022-02-12_11h35.39.562,lexical_decision_task_DD_L2,2021.2.3,MacIntel,60.0024001,,,,,,,,,,,0.9787,1,,,,,,,,,,,,,,z,1,0.9787,,,,,,,,-0.00865465,-0.387364366,0,0,0,,0,15,15,98,1,BAMPS,LB,old,z,./images/BAMPSLB.png,,,,,,,,,,,,,,,,,,,,,,,,,,,,,,,,,,,
,,,,,,,,,,,,,,,,,6117fb98735b8d5cc5e705a2,51,2022-02-12_11h35.39.562,lexical_decision_task_DD_L2,2021.2.3,MacIntel,60.0024001,,,,,,,,,,,3.0597,1,,,,,,,,,,,,,,z,1,3.0597,,,,,,,,-0.00865465,-0.387364366,0,0,0,,0,16,16,142,1,PLASK,HB,old,z,./images/PLASKHB.png,,,,,,,,,,,,,,,,,,,,,,,,,,,,,,,,,,,
,,,,,,,,,,,,,,,,,6117fb98735b8d5cc5e705a2,51,2022-02-12_11h35.39.562,lexical_decision_task_DD_L2,2021.2.3,MacIntel,60.0024001,,,,,,,,,,,0.8578,1,,,,,,,,,,,,,,m,1,0.8578,,,,,,,,-0.00865465,-0.387364366,0,0,0,,0,17,17,30,1,STORM,HB,old,m,./images/STORMHB.png,,,,,,,,,,,,,,,,,,,,,,,,,,,,,,,,,,,
,,,,,,,,,,,,,,,,,6117fb98735b8d5cc5e705a2,51,2022-02-12_11h35.39.562,lexical_decision_task_DD_L2,2021.2.3,MacIntel,60.0024001,,,,,,,,,,,2.2024,1,,,,,,,,,,,,,,z,1,2.2024,,,,,,,,-0.00865465,-0.387364366,0,0,0,,0,18,18,151,1,TINKY,HB,old,z,./images/TINKYHB.png,,,,,,,,,,,,,,,,,,,,,,,,,,,,,,,,,,,
,,,,,,,,,,,,,,,,,6117fb98735b8d5cc5e705a2,51,2022-02-12_11h35.39.562,lexical_decision_task_DD_L2,2021.2.3,MacIntel,60.0024001,,,,,,,,,,,0.951,1,,,,,,,,,,,,,,z,1,0.951,,,,,,,,-0.00865465,-0.387364366,0,0,0,,0,19,19,132,1,SCIFF,C,old,z,./images/SCIFF.png,,,,,,,,,,,,,,,,,,,,,,,,,,,,,,,,,,,
,,,,,,,,,,,,,,,,,6117fb98735b8d5cc5e705a2,51,2022-02-12_11h35.39.562,lexical_decision_task_DD_L2,2021.2.3,MacIntel,60.0024001,,,,,,,,,,,1.0957,1,,,,,,,,,,,,,,z,1,1.0957,,,,,,,,-0.00865465,-0.387364366,0,0,0,,0,20,20,114,1,RIKES,C,old,z,./images/RIKES.png,,,,,,,,,,,,,,,,,,,,,,,,,,,,,,,,,,,
,,,,,,,,,,,,,,,,,6117fb98735b8d5cc5e705a2,51,2022-02-12_11h35.39.562,lexical_decision_task_DD_L2,2021.2.3,MacIntel,60.0024001,,,,,,,,,,,0.7256,1,,,,,,,,,,,,,,m,1,0.7256,,,,,,,,-0.00865465,-0.387364366,0,0,0,,0,21,21,83,1,JUNGLE,C,old,m,./images/JUNGLE.png,,,,,,,,,,,,,,,,,,,,,,,,,,,,,,,,,,,
,,,,,,,,,,,,,,,,,6117fb98735b8d5cc5e705a2,51,2022-02-12_11h35.39.562,lexical_decision_task_DD_L2,2021.2.3,MacIntel,60.0024001,,,,,,,,,,,0.8271,1,,,,,,,,,,,,,,z,1,0.8271,,,,,,,,-0.00865465,-0.387364366,0,0,0,,0,22,22,164,1,SGREW,LB,old,z,./images/SGREWLB.png,,,,,,,,,,,,,,,,,,,,,,,,,,,,,,,,,,,
,,,,,,,,,,,,,,,,,6117fb98735b8d5cc5e705a2,51,2022-02-12_11h35.39.562,lexical_decision_task_DD_L2,2021.2.3,MacIntel,60.0024001,,,,,,,,,,,0.862,1,,,,,,,,,,,,,,z,1,0.862,,,,,,,,-0.00865465,-0.387364366,0,0,0,,0,23,23,124,1,TUNCH,HB,old,z,./images/TUNCHHB.png,,,,,,,,,,,,,,,,,,,,,,,,,,,,,,,,,,,
,,,,,,,,,,,,,,,,,6117fb98735b8d5cc5e705a2,51,2022-02-12_11h35.39.562,lexical_decision_task_DD_L2,2021.2.3,MacIntel,60.0024001,,,,,,,,,,,0.7781,1,,,,,,,,,,,,,,z,1,0.7781,,,,,,,,-0.00865465,-0.387364366,0,0,0,,0,24,24,95,1,HANTY,LB,old,z,./images/HANTYLB.png,,,,,,,,,,,,,,,,,,,,,,,,,,,,,,,,,,,
,,,,,,,,,,,,,,,,,6117fb98735b8d5cc5e705a2,51,2022-02-12_11h35.39.562,lexical_decision_task_DD_L2,2021.2.3,MacIntel,60.0024001,,,,,,,,,,,0.6881,1,,,,,,,,,,,,,,m,1,0.6881,,,,,,,,-0.00865465,-0.387364366,0,0,0,,0,25,25,51,1,ONION,HB,old,m,./images/ONIONHB.png,,,,,,,,,,,,,,,,,,,,,,,,,,,,,,,,,,,
,,,,,,,,,,,,,,,,,6117fb98735b8d5cc5e705a2,51,2022-02-12_11h35.39.562,lexical_decision_task_DD_L2,2021.2.3,MacIntel,60.0024001,,,,,,,,,,,1.0284,1,,,,,,,,,,,,,,z,1,1.0284,,,,,,,,-0.00865465,-0.387364366,0,0,0,,0,26,26,97,1,CHIDS,HB,old,z,./images/CHIDSHB.png,,,,,,,,,,,,,,,,,,,,,,,,,,,,,,,,,,,
,,,,,,,,,,,,,,,,,6117fb98735b8d5cc5e705a2,51,2022-02-12_11h35.39.562,lexical_decision_task_DD_L2,2021.2.3,MacIntel,60.0024001,,,,,,,,,,,0.8398,1,,,,,,,,,,,,,,z,1,0.8398,,,,,,,,-0.00865465,-0.387364366,0,0,0,,0,27,27,131,1,NACES,LB,old,z,./images/NACESLB.png,,,,,,,,,,,,,,,,,,,,,,,,,,,,,,,,,,,
,,,,,,,,,,,,,,,,,6117fb98735b8d5cc5e705a2,51,2022-02-12_11h35.39.562,lexical_decision_task_DD_L2,2021.2.3,MacIntel,60.0024001,,,,,,,,,,,0.6777,1,,,,,,,,,,,,,,m,1,0.6777,,,,,,,,-0.00865465,-0.387364366,0,0,0,,0,28,28,12,1,SHORE,HB,old,m,./images/SHOREHB.png,,,,,,,,,,,,,,,,,,,,,,,,,,,,,,,,,,,
,,,,,,,,,,,,,,,,,6117fb98735b8d5cc5e705a2,51,2022-02-12_11h35.39.562,lexical_decision_task_DD_L2,2021.2.3,MacIntel,60.0024001,,,,,,,,,,,0.7802,1,,,,,,,,,,,,,,m,1,0.7802,,,,,,,,-0.00865465,-0.387364366,0,0,0,,0,29,29,20,1,CRADLE,C,old,m,./images/CRADLE.png,,,,,,,,,,,,,,,,,,,,,,,,,,,,,,,,,,,
,,,,,,,,,,,,,,,,,6117fb98735b8d5cc5e705a2,51,2022-02-12_11h35.39.562,lexical_decision_task_DD_L2,2021.2.3,MacIntel,60.0024001,,,,,,,,,,,1.0575,1,,,,,,,,,,,,,,z,1,1.0575,,,,,,,,-0.00865465,-0.387364366,0,0,0,,0,30,30,145,1,LAMEL,HB,old,z,./images/LAMELHB.png,,,,,,,,,,,,,,,,,,,,,,,,,,,,,,,,,,,
,,,,,,,,,,,,,,,,,6117fb98735b8d5cc5e705a2,51,2022-02-12_11h35.39.562,lexical_decision_task_DD_L2,2021.2.3,MacIntel,60.0024001,,,,,,,,,,,1.2308,1,,,,,,,,,,,,,,z,1,1.2308,,,,,,,,-0.00865465,-0.387364366,0,0,0,,0,31,31,109,1,BURGE,HB,old,z,./images/BURGEHB.png,,,,,,,,,,,,,,,,,,,,,,,,,,,,,,,,,,,
,,,,,,,,,,,,,,,,,6117fb98735b8d5cc5e705a2,51,2022-02-12_11h35.39.562,lexical_decision_task_DD_L2,2021.2.3,MacIntel,60.0024001,,,,,,,,,,,1.3764,1,,,,,,,,,,,,,,z,1,1.3764,,,,,,,,-0.00865465,-0.387364366,0,0,0,,0,32,32,91,1,SHENS,HB,old,z,./images/SHENSHB.png,,,,,,,,,,,,,,,,,,,,,,,,,,,,,,,,,,,
,,,,,,,,,,,,,,,,,6117fb98735b8d5cc5e705a2,51,2022-02-12_11h35.39.562,lexical_decision_task_DD_L2,2021.2.3,MacIntel,60.0024001,,,,,,,,,,,0.7784,1,,,,,,,,,,,,,,z,1,0.7784,,,,,,,,-0.00865465,-0.387364366,0,0,0,,0,33,33,117,1,STEEG,C,old,z,./images/STEEG.png,,,,,,,,,,,,,,,,,,,,,,,,,,,,,,,,,,,
,,,,,,,,,,,,,,,,,6117fb98735b8d5cc5e705a2,51,2022-02-12_11h35.39.562,lexical_decision_task_DD_L2,2021.2.3,MacIntel,60.0024001,,,,,,,,,,,1.0622,1,,,,,,,,,,,,,,z,1,1.0622,,,,,,,,-0.00865465,-0.387364366,0,0,0,,0,34,34,110,1,CRUNK,LB,old,z,./images/CRUNKLB.png,,,,,,,,,,,,,,,,,,,,,,,,,,,,,,,,,,,
,,,,,,,,,,,,,,,,,6117fb98735b8d5cc5e705a2,51,2022-02-12_11h35.39.562,lexical_decision_task_DD_L2,2021.2.3,MacIntel,60.0024001,,,,,,,,,,,0.9616,1,,,,,,,,,,,,,,z,1,0.9616,,,,,,,,-0.00865465,-0.387364366,0,0,0,,0,35,35,116,1,BALGY,LB,old,z,./images/BALGYLB.png,,,,,,,,,,,,,,,,,,,,,,,,,,,,,,,,,,,
,,,,,,,,,,,,,,,,,6117fb98735b8d5cc5e705a2,51,2022-02-12_11h35.39.562,lexical_decision_task_DD_L2,2021.2.3,MacIntel,60.0024001,,,,,,,,,,,0.7284,1,,,,,,,,,,,,,,z,1,0.7284,,,,,,,,-0.00865465,-0.387364366,0,0,0,,0,36,36,149,1,VEASE,LB,old,z,./images/VEASELB.png,,,,,,,,,,,,,,,,,,,,,,,,,,,,,,,,,,,
,,,,,,,,,,,,,,,,,6117fb98735b8d5cc5e705a2,51,2022-02-12_11h35.39.562,lexical_decision_task_DD_L2,2021.2.3,MacIntel,60.0024001,,,,,,,,,,,0.7078,1,,,,,,,,,,,,,,m,1,0.7078,,,,,,,,-0.00865465,-0.387364366,0,0,0,,0,37,37,63,1,MIRROR,HB,old,m,./images/MIRRORHB.png,,,,,,,,,,,,,,,,,,,,,,,,,,,,,,,,,,,
,,,,,,,,,,,,,,,,,6117fb98735b8d5cc5e705a2,51,2022-02-12_11h35.39.562,lexical_decision_task_DD_L2,2021.2.3,MacIntel,60.0024001,,,,,,,,,,,0.7448,1,,,,,,,,,,,,,,m,1,0.7448,,,,,,,,-0.00865465,-0.387364366,0,0,0,,0,38,38,37,1,BIRTH,LB,old,m,./images/BIRTHLB.png,,,,,,,,,,,,,,,,,,,,,,,,,,,,,,,,,,,
,,,,,,,,,,,,,,,,,6117fb98735b8d5cc5e705a2,51,2022-02-12_11h35.39.562,lexical_decision_task_DD_L2,2021.2.3,MacIntel,60.0024001,,,,,,,,,,,0.8613,1,,,,,,,,,,,,,,m,1,0.8613,,,,,,,,-0.00865465,-0.387364366,0,0,0,,0,39,39,8,1,TULIP,C,old,m,./images/TULIP.png,,,,,,,,,,,,,,,,,,,,,,,,,,,,,,,,,,,
,,,,,,,,,,,,,,,,,6117fb98735b8d5cc5e705a2,51,2022-02-12_11h35.39.562,lexical_decision_task_DD_L2,2021.2.3,MacIntel,60.0024001,,,,,,,,,,,0.6945,1,,,,,,,,,,,,,,z,1,0.6945,,,,,,,,-0.00865465,-0.387364366,0,0,0,,0,40,40,101,1,GLEET,LB,old,z,./images/GLEETLB.png,,,,,,,,,,,,,,,,,,,,,,,,,,,,,,,,,,,
,,,,,,,,,,,,,,,,,6117fb98735b8d5cc5e705a2,51,2022-02-12_11h35.39.562,lexical_decision_task_DD_L2,2021.2.3,MacIntel,60.0024001,,,,,,,,,,,0.8486,1,,,,,,,,,,,,,,m,1,0.8486,,,,,,,,-0.009120551,-0.390278252,1,0,0,,0,41,41,45,1,KITTEN,HB,old,m,./images/KITTENHB.png,break_done_button,,,,,,,,,,,,,,,,,,,,,,,,,,,,,,,,,,
,,,,,,,,,,,,,,,,,6117fb98735b8d5cc5e705a2,51,2022-02-12_11h35.39.562,lexical_decision_task_DD_L2,2021.2.3,MacIntel,60.0024001,,,,,,,,,,,0.7225,1,,,,,,,,,,,,,,m,1,0.7225,,,,,,,,-0.008564996,-0.389722697,0,0,0,,0,42,42,74,1,CEMENT,C,old,m,./images/CEMENT.png,,,,,,,,,,,,,,,,,,,,,,,,,,,,,,,,,,,
,,,,,,,,,,,,,,,,,6117fb98735b8d5cc5e705a2,51,2022-02-12_11h35.39.562,lexical_decision_task_DD_L2,2021.2.3,MacIntel,60.0024001,,,,,,,,,,,1.5369,1,,,,,,,,,,,,,,z,1,1.5369,,,,,,,,-0.008564996,-0.389722697,0,0,0,,0,43,43,166,1,SHORY,HB,old,z,./images/SHORYHB.png,,,,,,,,,,,,,,,,,,,,,,,,,,,,,,,,,,,
,,,,,,,,,,,,,,,,,6117fb98735b8d5cc5e705a2,51,2022-02-12_11h35.39.562,lexical_decision_task_DD_L2,2021.2.3,MacIntel,60.0024001,,,,,,,,,,,1.2373,1,,,,,,,,,,,,,,z,1,1.2373,,,,,,,,-0.008564996,-0.389722697,0,0,0,,0,44,44,112,1,MYING,HB,old,z,./images/MYINGHB.png,,,,,,,,,,,,,,,,,,,,,,,,,,,,,,,,,,,
,,,,,,,,,,,,,,,,,6117fb98735b8d5cc5e705a2,51,2022-02-12_11h35.39.562,lexical_decision_task_DD_L2,2021.2.3,MacIntel,60.0024001,,,,,,,,,,,1.0225,1,,,,,,,,,,,,,,z,1,1.0225,,,,,,,,-0.008564996,-0.389722697,0,0,0,,0,45,45,129,1,PRANS,C,old,z,./images/PRANS.png,,,,,,,,,,,,,,,,,,,,,,,,,,,,,,,,,,,
,,,,,,,,,,,,,,,,,6117fb98735b8d5cc5e705a2,51,2022-02-12_11h35.39.562,lexical_decision_task_DD_L2,2021.2.3,MacIntel,60.0024001,,,,,,,,,,,0.7372,1,,,,,,,,,,,,,,m,1,0.7372,,,,,,,,-0.008564996,-0.389722697,0,0,0,,0,46,46,25,1,WRIST,LB,old,m,./images/WRISTLB.png,,,,,,,,,,,,,,,,,,,,,,,,,,,,,,,,,,,
,,,,,,,,,,,,,,,,,6117fb98735b8d5cc5e705a2,51,2022-02-12_11h35.39.562,lexical_decision_task_DD_L2,2021.2.3,MacIntel,60.0024001,,,,,,,,,,,1.1774,1,,,,,,,,,,,,,,z,1,1.1774,,,,,,,,-0.008564996,-0.389722697,0,0,0,,0,47,47,86,1,AIFED,LB,old,z,./images/AIFEDLB.png,,,,,,,,,,,,,,,,,,,,,,,,,,,,,,,,,,,
,,,,,,,,,,,,,,,,,6117fb98735b8d5cc5e705a2,51,2022-02-12_11h35.39.562,lexical_decision_task_DD_L2,2021.2.3,MacIntel,60.0024001,,,,,,,,,,,0.8243,1,,,,,,,,,,,,,,m,1,0.8243,,,,,,,,-0.008564996,-0.389722697,0,0,0,,0,48,48,23,1,WALRUS,C,old,m,./images/WALRUS.png,,,,,,,,,,,,,,,,,,,,,,,,,,,,,,,,,,,
,,,,,,,,,,,,,,,,,6117fb98735b8d5cc5e705a2,51,2022-02-12_11h35.39.562,lexical_decision_task_DD_L2,2021.2.3,MacIntel,60.0024001,,,,,,,,,,,0.6291,1,,,,,,,,,,,,,,m,1,0.6291,,,,,,,,-0.008564996,-0.389722697,0,0,0,,0,49,49,18,1,JAGUAR,HB,old,m,./images/JAGUARHB.png,,,,,,,,,,,,,,,,,,,,,,,,,,,,,,,,,,,
,,,,,,,,,,,,,,,,,6117fb98735b8d5cc5e705a2,51,2022-02-12_11h35.39.562,lexical_decision_task_DD_L2,2021.2.3,MacIntel,60.0024001,,,,,,,,,,,1,1,,,,,,,,,,,,,,z,1,1,,,,,,,,-0.008564996,-0.389722697,0,0,0,,0,50,50,160,1,VEETS,HB,old,z,./images/VEETSHB.png,,,,,,,,,,,,,,,,,,,,,,,,,,,,,,,,,,,
,,,,,,,,,,,,,,,,,6117fb98735b8d5cc5e705a2,51,2022-02-12_11h35.39.562,lexical_decision_task_DD_L2,2021.2.3,MacIntel,60.0024001,,,,,,,,,,,0.7803,1,,,,,,,,,,,,,,m,1,0.7803,,,,,,,,-0.008564996,-0.389722697,0,0,0,,0,51,51,50,1,MALLET,C,old,m,./images/MALLET.png,,,,,,,,,,,,,,,,,,,,,,,,,,,,,,,,,,,
,,,,,,,,,,,,,,,,,6117fb98735b8d5cc5e705a2,51,2022-02-12_11h35.39.562,lexical_decision_task_DD_L2,2021.2.3,MacIntel,60.0024001,,,,,,,,,,,1.0909,1,,,,,,,,,,,,,,z,1,1.0909,,,,,,,,-0.008564996,-0.389722697,0,0,0,,0,52,52,148,1,JOMS,HB,old,z,./images/JOMSHB.png,,,,,,,,,,,,,,,,,,,,,,,,,,,,,,,,,,,
,,,,,,,,,,,,,,,,,6117fb98735b8d5cc5e705a2,51,2022-02-12_11h35.39.562,lexical_decision_task_DD_L2,2021.2.3,MacIntel,60.0024001,,,,,,,,,,,1.1478,0,,,,,,,,,,,,,,m,0,1.1478,,,,,,,,-0.008564996,-0.389722697,0,0,0,,0,53,53,128,1,GRIFT,LB,old,z,./images/GRIFTLB.png,,,,,,,,,,,,,,,,,,,,,,,,,,,,,,,,,,,
,,,,,,,,,,,,,,,,,6117fb98735b8d5cc5e705a2,51,2022-02-12_11h35.39.562,lexical_decision_task_DD_L2,2021.2.3,MacIntel,60.0024001,,,,,,,,,,,0.6943,1,,,,,,,,,,,,,,m,1,0.6943,,,,,,,,-0.008564996,-0.389722697,0,0,0,,0,54,54,77,1,COUCH,C,old,m,./images/COUCH.png,,,,,,,,,,,,,,,,,,,,,,,,,,,,,,,,,,,
,,,,,,,,,,,,,,,,,6117fb98735b8d5cc5e705a2,51,2022-02-12_11h35.39.562,lexical_decision_task_DD_L2,2021.2.3,MacIntel,60.0024001,,,,,,,,,,,1.0486,1,,,,,,,,,,,,,,z,1,1.0486,,,,,,,,-0.008564996,-0.389722697,0,0,0,,0,55,55,104,1,GITTY,LB,old,z,./images/GITTYLB.png,,,,,,,,,,,,,,,,,,,,,,,,,,,,,,,,,,,
,,,,,,,,,,,,,,,,,6117fb98735b8d5cc5e705a2,51,2022-02-12_11h35.39.562,lexical_decision_task_DD_L2,2021.2.3,MacIntel,60.0024001,,,,,,,,,,,0.6804,1,,,,,,,,,,,,,,m,1,0.6804,,,,,,,,-0.008564996,-0.389722697,0,0,0,,0,56,56,71,1,PIMPLE,C,old,m,./images/PIMPLE.png,,,,,,,,,,,,,,,,,,,,,,,,,,,,,,,,,,,
,,,,,,,,,,,,,,,,,6117fb98735b8d5cc5e705a2,51,2022-02-12_11h35.39.562,lexical_decision_task_DD_L2,2021.2.3,MacIntel,60.0024001,,,,,,,,,,,0.7653,1,,,,,,,,,,,,,,z,1,0.7653,,,,,,,,-0.008564996,-0.389722697,0,0,0,,0,57,57,107,1,FASKS,LB,old,z,./images/FASKSLB.png,,,,,,,,,,,,,,,,,,,,,,,,,,,,,,,,,,,
,,,,,,,,,,,,,,,,,6117fb98735b8d5cc5e705a2,51,2022-02-12_11h35.39.562,lexical_decision_task_DD_L2,2021.2.3,MacIntel,60.0024001,,,,,,,,,,,0.9795,1,,,,,,,,,,,,,,m,1,0.9795,,,,,,,,-0.008564996,-0.389722697,0,0,0,,0,58,58,70,1,URINE,LB,old,m,./images/URINELB.png,,,,,,,,,,,,,,,,,,,,,,,,,,,,,,,,,,,
,,,,,,,,,,,,,,,,,6117fb98735b8d5cc5e705a2,51,2022-02-12_11h35.39.562,lexical_decision_task_DD_L2,2021.2.3,MacIntel,60.0024001,,,,,,,,,,,1.2493,1,,,,,,,,,,,,,,m,1,1.2493,,,,,,,,-0.008564996,-0.389722697,0,0,0,,0,59,59,69,1,COOKER,HB,old,m,./images/COOKERHB.png,,,,,,,,,,,,,,,,,,,,,,,,,,,,,,,,,,,
,,,,,,,,,,,,,,,,,6117fb98735b8d5cc5e705a2,51,2022-02-12_11h35.39.562,lexical_decision_task_DD_L2,2021.2.3,MacIntel,60.0024001,,,,,,,,,,,0.853,1,,,,,,,,,,,,,,m,1,0.853,,,,,,,,-0.008564996,-0.389722697,0,0,0,,0,60,60,35,1,PEACH,C,old,m,./images/PEACH.png,,,,,,,,,,,,,,,,,,,,,,,,,,,,,,,,,,,
,,,,,,,,,,,,,,,,,6117fb98735b8d5cc5e705a2,51,2022-02-12_11h35.39.562,lexical_decision_task_DD_L2,2021.2.3,MacIntel,60.0024001,,,,,,,,,,,1.1639,1,,,,,,,,,,,,,,m,1,1.1639,,,,,,,,-0.008564996,-0.389722697,0,0,0,,0,61,61,34,1,CANYON,LB,old,m,./images/CANYONLB.png,,,,,,,,,,,,,,,,,,,,,,,,,,,,,,,,,,,
,,,,,,,,,,,,,,,,,6117fb98735b8d5cc5e705a2,51,2022-02-12_11h35.39.562,lexical_decision_task_DD_L2,2021.2.3,MacIntel,60.0024001,,,,,,,,,,,0.8299,1,,,,,,,,,,,,,,z,1,0.8299,,,,,,,,-0.008564996,-0.389722697,0,0,0,,0,62,62,125,1,MOOKY,LB,old,z,./images/MOOKYLB.png,,,,,,,,,,,,,,,,,,,,,,,,,,,,,,,,,,,
,,,,,,,,,,,,,,,,,6117fb98735b8d5cc5e705a2,51,2022-02-12_11h35.39.562,lexical_decision_task_DD_L2,2021.2.3,MacIntel,60.0024001,,,,,,,,,,,2.6778,1,,,,,,,,,,,,,,m,1,2.6778,,,,,,,,-0.008564996,-0.389722697,0,0,0,,0,63,63,33,1,MAGGOT,HB,old,m,./images/MAGGOTHB.png,,,,,,,,,,,,,,,,,,,,,,,,,,,,,,,,,,,
,,,,,,,,,,,,,,,,,6117fb98735b8d5cc5e705a2,51,2022-02-12_11h35.39.562,lexical_decision_task_DD_L2,2021.2.3,MacIntel,60.0024001,,,,,,,,,,,1.4884,1,,,,,,,,,,,,,,z,1,1.4884,,,,,,,,-0.008564996,-0.389722697,0,0,0,,0,64,64,150,1,NOOLS,C,old,z,./images/NOOLS.png,,,,,,,,,,,,,,,,,,,,,,,,,,,,,,,,,,,
,,,,,,,,,,,,,,,,,6117fb98735b8d5cc5e705a2,51,2022-02-12_11h35.39.562,lexical_decision_task_DD_L2,2021.2.3,MacIntel,60.0024001,,,,,,,,,,,1.154,1,,,,,,,,,,,,,,m,1,1.154,,,,,,,,-0.008564996,-0.389722697,0,0,0,,0,65,65,32,1,BARREL,C,old,m,./images/BARREL.png,,,,,,,,,,,,,,,,,,,,,,,,,,,,,,,,,,,
,,,,,,,,,,,,,,,,,6117fb98735b8d5cc5e705a2,51,2022-02-12_11h35.39.562,lexical_decision_task_DD_L2,2021.2.3,MacIntel,60.0024001,,,,,,,,,,,0.8939,1,,,,,,,,,,,,,,m,1,0.8939,,,,,,,,-0.008564996,-0.389722697,0,0,0,,0,66,66,15,1,GREASE,HB,old,m,./images/GREASEHB.png,,,,,,,,,,,,,,,,,,,,,,,,,,,,,,,,,,,
,,,,,,,,,,,,,,,,,6117fb98735b8d5cc5e705a2,51,2022-02-12_11h35.39.562,lexical_decision_task_DD_L2,2021.2.3,MacIntel,60.0024001,,,,,,,,,,,1.5946,1,,,,,,,,,,,,,,z,1,1.5946,,,,,,,,-0.008564996,-0.389722697,0,0,0,,0,67,67,163,1,GAMBA,HB,old,z,./images/GAMBAHB.png,,,,,,,,,,,,,,,,,,,,,,,,,,,,,,,,,,,
,,,,,,,,,,,,,,,,,6117fb98735b8d5cc5e705a2,51,2022-02-12_11h35.39.562,lexical_decision_task_DD_L2,2021.2.3,MacIntel,60.0024001,,,,,,,,,,,1.2609,1,,,,,,,,,,,,,,z,1,1.2609,,,,,,,,-0.008564996,-0.389722697,0,0,0,,0,68,68,88,1,GLUSH,HB,old,z,./images/GLUSHHB.png,,,,,,,,,,,,,,,,,,,,,,,,,,,,,,,,,,,
,,,,,,,,,,,,,,,,,6117fb98735b8d5cc5e705a2,51,2022-02-12_11h35.39.562,lexical_decision_task_DD_L2,2021.2.3,MacIntel,60.0024001,,,,,,,,,,,1.2344,1,,,,,,,,,,,,,,z,1,1.2344,,,,,,,,-0.008564996,-0.389722697,0,0,0,,0,69,69,87,1,TRING,C,old,z,./images/TRING.png,,,,,,,,,,,,,,,,,,,,,,,,,,,,,,,,,,,
,,,,,,,,,,,,,,,,,6117fb98735b8d5cc5e705a2,51,2022-02-12_11h35.39.562,lexical_decision_task_DD_L2,2021.2.3,MacIntel,60.0024001,,,,,,,,,,,0.8527,1,,,,,,,,,,,,,,z,1,0.8527,,,,,,,,-0.008564996,-0.389722697,0,0,0,,0,70,70,92,1,PAIMS,LB,old,z,./images/PAIMSLB.png,,,,,,,,,,,,,,,,,,,,,,,,,,,,,,,,,,,
,,,,,,,,,,,,,,,,,6117fb98735b8d5cc5e705a2,51,2022-02-12_11h35.39.562,lexical_decision_task_DD_L2,2021.2.3,MacIntel,60.0024001,,,,,,,,,,,0.6119,1,,,,,,,,,,,,,,z,1,0.6119,,,,,,,,-0.008564996,-0.389722697,0,0,0,,0,71,71,153,1,CLUPS,C,old,z,./images/CLUPS.png,,,,,,,,,,,,,,,,,,,,,,,,,,,,,,,,,,,
,,,,,,,,,,,,,,,,,6117fb98735b8d5cc5e705a2,51,2022-02-12_11h35.39.562,lexical_decision_task_DD_L2,2021.2.3,MacIntel,60.0024001,,,,,,,,,,,0.7959,1,,,,,,,,,,,,,,z,1,0.7959,,,,,,,,-0.008564996,-0.389722697,0,0,0,,0,72,72,158,1,EGECT,LB,old,z,./images/EGECTLB.png,,,,,,,,,,,,,,,,,,,,,,,,,,,,,,,,,,,
,,,,,,,,,,,,,,,,,6117fb98735b8d5cc5e705a2,51,2022-02-12_11h35.39.562,lexical_decision_task_DD_L2,2021.2.3,MacIntel,60.0024001,,,,,,,,,,,0.6769,1,,,,,,,,,,,,,,m,1,0.6769,,,,,,,,-0.008564996,-0.389722697,0,0,0,,0,73,73,58,1,BABOON,LB,old,m,./images/BABOONLB.png,,,,,,,,,,,,,,,,,,,,,,,,,,,,,,,,,,,
,,,,,,,,,,,,,,,,,6117fb98735b8d5cc5e705a2,51,2022-02-12_11h35.39.562,lexical_decision_task_DD_L2,2021.2.3,MacIntel,60.0024001,,,,,,,,,,,0.841,1,,,,,,,,,,,,,,m,1,0.841,,,,,,,,-0.008564996,-0.389722697,0,0,0,,0,74,74,29,1,CRUMB,C,old,m,./images/CRUMB.png,,,,,,,,,,,,,,,,,,,,,,,,,,,,,,,,,,,
,,,,,,,,,,,,,,,,,6117fb98735b8d5cc5e705a2,51,2022-02-12_11h35.39.562,lexical_decision_task_DD_L2,2021.2.3,MacIntel,60.0024001,,,,,,,,,,,1.0771,1,,,,,,,,,,,,,,z,1,1.0771,,,,,,,,-0.008564996,-0.389722697,0,0,0,,0,75,75,89,1,DRIEK,LB,old,z,./images/DRIEKLB.png,,,,,,,,,,,,,,,,,,,,,,,,,,,,,,,,,,,
,,,,,,,,,,,,,,,,,6117fb98735b8d5cc5e705a2,51,2022-02-12_11h35.39.562,lexical_decision_task_DD_L2,2021.2.3,MacIntel,60.0024001,,,,,,,,,,,1.2583,1,,,,,,,,,,,,,,m,1,1.2583,,,,,,,,-0.008564996,-0.389722697,0,0,0,,0,76,76,5,1,PASTA,C,old,m,./images/PASTA.png,,,,,,,,,,,,,,,,,,,,,,,,,,,,,,,,,,,
,,,,,,,,,,,,,,,,,6117fb98735b8d5cc5e705a2,51,2022-02-12_11h35.39.562,lexical_decision_task_DD_L2,2021.2.3,MacIntel,60.0024001,,,,,,,,,,,0.6422,1,,,,,,,,,,,,,,m,1,0.6422,,,,,,,,-0.008564996,-0.389722697,0,0,0,,0,77,77,13,1,MOTOR,LB,old,m,./images/MOTORLB.png,,,,,,,,,,,,,,,,,,,,,,,,,,,,,,,,,,,
,,,,,,,,,,,,,,,,,6117fb98735b8d5cc5e705a2,51,2022-02-12_11h35.39.562,lexical_decision_task_DD_L2,2021.2.3,MacIntel,60.0024001,,,,,,,,,,,1.9443,1,,,,,,,,,,,,,,z,1,1.9443,,,,,,,,-0.008564996,-0.389722697,0,0,0,,0,78,78,96,1,KEAMS,C,old,z,./images/KEAMS.png,,,,,,,,,,,,,,,,,,,,,,,,,,,,,,,,,,,
,,,,,,,,,,,,,,,,,6117fb98735b8d5cc5e705a2,51,2022-02-12_11h35.39.562,lexical_decision_task_DD_L2,2021.2.3,MacIntel,60.0024001,,,,,,,,,,,0.6665,1,,,,,,,,,,,,,,m,1,0.6665,,,,,,,,-0.008564996,-0.389722697,0,0,0,,0,79,79,14,1,PICKLE,C,old,m,./images/PICKLE.png,,,,,,,,,,,,,,,,,,,,,,,,,,,,,,,,,,,
,,,,,,,,,,,,,,,,,6117fb98735b8d5cc5e705a2,51,2022-02-12_11h35.39.562,lexical_decision_task_DD_L2,2021.2.3,MacIntel,60.0024001,,,,,,,,,,,0.7949,1,,,,,,,,,,,,,,m,1,0.7949,,,,,,,,-0.008564996,-0.389722697,0,0,0,,0,80,80,10,1,BELLY,LB,old,m,./images/BELLYLB.png,,,,,,,,,,,,,,,,,,,,,,,,,,,,,,,,,,,
,,,,,,,,,,,,,,,,,6117fb98735b8d5cc5e705a2,51,2022-02-12_11h35.39.562,lexical_decision_task_DD_L2,2021.2.3,MacIntel,60.0024001,,,,,,,,,,,0.7469,1,,,,,,,,,,,,,,m,1,0.7469,,,,,,,,-0.008564996,-0.389722697,0,0,0,,0,81,81,46,1,PEARL,LB,old,m,./images/PEARLLB.png,,,,,,,,,,,,,,,,,,,,,,,,,,,,,,,,,,,
,,,,,,,,,,,,,,,,,6117fb98735b8d5cc5e705a2,51,2022-02-12_11h35.39.562,lexical_decision_task_DD_L2,2021.2.3,MacIntel,60.0024001,,,,,,,,,,,0.9651,1,,,,,,,,,,,,,,m,1,0.9651,,,,,,,,-0.008564996,-0.389722697,0,0,0,,0,82,82,59,1,BURIAL,C,old,m,./images/BURIAL.png,,,,,,,,,,,,,,,,,,,,,,,,,,,,,,,,,,,
,,,,,,,,,,,,,,,,,6117fb98735b8d5cc5e705a2,51,2022-02-12_11h35.39.562,lexical_decision_task_DD_L2,2021.2.3,MacIntel,60.0024001,,,,,,,,,,,1.1705,1,,,,,,,,,,,,,,m,1,1.1705,,,,,,,,-0.008564996,-0.389722697,1,0,0,,0,83,83,42,1,FOLDER,HB,old,m,./images/FOLDERHB.png,break_done_button,,,,,,,,,,,,,,,,,,,,,,,,,,,,,,,,,,
,,,,,,,,,,,,,,,,,6117fb98735b8d5cc5e705a2,51,2022-02-12_11h35.39.562,lexical_decision_task_DD_L2,2021.2.3,MacIntel,60.0024001,,,,,,,,,,,1.1837,1,,,,,,,,,,,,,,z,1,1.1837,,,,,,,,-0.008564996,-0.389722697,0,0,0,,0,84,84,94,1,BLANS,HB,old,z,./images/BLANSHB.png,,,,,,,,,,,,,,,,,,,,,,,,,,,,,,,,,,,
,,,,,,,,,,,,,,,,,6117fb98735b8d5cc5e705a2,51,2022-02-12_11h35.39.562,lexical_decision_task_DD_L2,2021.2.3,MacIntel,60.0024001,,,,,,,,,,,0.6682,1,,,,,,,,,,,,,,z,1,0.6682,,,,,,,,-0.008564996,-0.389722697,0,0,0,,0,85,85,156,1,HIXES,C,old,z,./images/HIXES.png,,,,,,,,,,,,,,,,,,,,,,,,,,,,,,,,,,,
,,,,,,,,,,,,,,,,,6117fb98735b8d5cc5e705a2,51,2022-02-12_11h35.39.562,lexical_decision_task_DD_L2,2021.2.3,MacIntel,60.0024001,,,,,,,,,,,0.5543,1,,,,,,,,,,,,,,m,1,0.5543,,,,,,,,-0.008564996,-0.389722697,0,0,0,,0,86,86,67,1,SAILOR,LB,old,m,./images/SAILORLB.png,,,,,,,,,,,,,,,,,,,,,,,,,,,,,,,,,,,
,,,,,,,,,,,,,,,,,6117fb98735b8d5cc5e705a2,51,2022-02-12_11h35.39.562,lexical_decision_task_DD_L2,2021.2.3,MacIntel,60.0024001,,,,,,,,,,,0.7616,1,,,,,,,,,,,,,,z,1,0.7616,,,,,,,,-0.008564996,-0.389722697,0,0,0,,0,87,87,143,1,MONGS,LB,old,z,./images/MONGSLB.png,,,,,,,,,,,,,,,,,,,,,,,,,,,,,,,,,,,
,,,,,,,,,,,,,,,,,6117fb98735b8d5cc5e705a2,51,2022-02-12_11h35.39.562,lexical_decision_task_DD_L2,2021.2.3,MacIntel,60.0024001,,,,,,,,,,,1.0613,1,,,,,,,,,,,,,,z,1,1.0613,,,,,,,,-0.008564996,-0.389722697,0,0,0,,0,88,88,115,1,MAWNS,HB,old,z,./images/MAWNSHB.png,,,,,,,,,,,,,,,,,,,,,,,,,,,,,,,,,,,
,,,,,,,,,,,,,,,,,6117fb98735b8d5cc5e705a2,51,2022-02-12_11h35.39.562,lexical_decision_task_DD_L2,2021.2.3,MacIntel,60.0024001,,,,,,,,,,,1.3781,1,,,,,,,,,,,,,,z,1,1.3781,,,,,,,,-0.008564996,-0.389722697,0,0,0,,0,89,89,118,1,BAVEL,HB,old,z,./images/BAVELHB.png,,,,,,,,,,,,,,,,,,,,,,,,,,,,,,,,,,,
,,,,,,,,,,,,,,,,,6117fb98735b8d5cc5e705a2,51,2022-02-12_11h35.39.562,lexical_decision_task_DD_L2,2021.2.3,MacIntel,60.0024001,,,,,,,,,,,0.7734,1,,,,,,,,,,,,,,m,1,0.7734,,,,,,,,-0.008564996,-0.389722697,0,0,0,,0,90,90,65,1,FARMER,C,old,m,./images/FARMER.png,,,,,,,,,,,,,,,,,,,,,,,,,,,,,,,,,,,
,,,,,,,,,,,,,,,,,6117fb98735b8d5cc5e705a2,51,2022-02-12_11h35.39.562,lexical_decision_task_DD_L2,2021.2.3,MacIntel,60.0024001,,,,,,,,,,,0.7288,1,,,,,,,,,,,,,,m,1,0.7288,,,,,,,,-0.008564996,-0.389722697,0,0,0,,0,91,91,72,1,NOOSE,HB,old,m,./images/NOOSEHB.png,,,,,,,,,,,,,,,,,,,,,,,,,,,,,,,,,,,
,,,,,,,,,,,,,,,,,6117fb98735b8d5cc5e705a2,51,2022-02-12_11h35.39.562,lexical_decision_task_DD_L2,2021.2.3,MacIntel,60.0024001,,,,,,,,,,,1.2625,1,,,,,,,,,,,,,,m,1,1.2625,,,,,,,,-0.008564996,-0.389722697,0,0,0,,0,92,92,78,1,LITTER,HB,old,m,./images/LITTERHB.png,,,,,,,,,,,,,,,,,,,,,,,,,,,,,,,,,,,
,,,,,,,,,,,,,,,,,6117fb98735b8d5cc5e705a2,51,2022-02-12_11h35.39.562,lexical_decision_task_DD_L2,2021.2.3,MacIntel,60.0024001,,,,,,,,,,,0.6561,1,,,,,,,,,,,,,,m,1,0.6561,,,,,,,,-0.008564996,-0.389722697,0,0,0,,0,93,93,21,1,KIDNEY,HB,old,m,./images/KIDNEYHB.png,,,,,,,,,,,,,,,,,,,,,,,,,,,,,,,,,,,
,,,,,,,,,,,,,,,,,6117fb98735b8d5cc5e705a2,51,2022-02-12_11h35.39.562,lexical_decision_task_DD_L2,2021.2.3,MacIntel,60.0024001,,,,,,,,,,,0.5775,1,,,,,,,,,,,,,,m,1,0.5775,,,,,,,,-0.008564996,-0.389722697,0,0,0,,0,94,94,53,1,CARPET,C,old,m,./images/CARPET.png,,,,,,,,,,,,,,,,,,,,,,,,,,,,,,,,,,,
,,,,,,,,,,,,,,,,,6117fb98735b8d5cc5e705a2,51,2022-02-12_11h35.39.562,lexical_decision_task_DD_L2,2021.2.3,MacIntel,60.0024001,,,,,,,,,,,0.963,1,,,,,,,,,,,,,,z,1,0.963,,,,,,,,-0.008564996,-0.389722697,0,0,0,,0,95,95,130,1,CRILL,HB,old,z,./images/CRILLHB.png,,,,,,,,,,,,,,,,,,,,,,,,,,,,,,,,,,,
,,,,,,,,,,,,,,,,,6117fb98735b8d5cc5e705a2,51,2022-02-12_11h35.39.562,lexical_decision_task_DD_L2,2021.2.3,MacIntel,60.0024001,,,,,,,,,,,0.7108,1,,,,,,,,,,,,,,m,1,0.7108,,,,,,,,-0.008564996,-0.389722697,0,0,0,,0,96,96,0,1,TOMATO,HB,old,m,./images/TOMATOHB.png,,,,,,,,,,,,,,,,,,,,,,,,,,,,,,,,,,,
,,,,,,,,,,,,,,,,,6117fb98735b8d5cc5e705a2,51,2022-02-12_11h35.39.562,lexical_decision_task_DD_L2,2021.2.3,MacIntel,60.0024001,,,,,,,,,,,0.7181,1,,,,,,,,,,,,,,z,1,0.7181,,,,,,,,-0.008564996,-0.389722697,0,0,0,,0,97,97,122,1,BLOOT,LB,old,z,./images/BLOOTLB.png,,,,,,,,,,,,,,,,,,,,,,,,,,,,,,,,,,,
,,,,,,,,,,,,,,,,,6117fb98735b8d5cc5e705a2,51,2022-02-12_11h35.39.562,lexical_decision_task_DD_L2,2021.2.3,MacIntel,60.0024001,,,,,,,,,,,0.8653,1,,,,,,,,,,,,,,m,1,0.8653,,,,,,,,-0.008564996,-0.389722697,0,0,0,,0,98,98,54,1,TRIPOD,HB,old,m,./images/TRIPODHB.png,,,,,,,,,,,,,,,,,,,,,,,,,,,,,,,,,,,
,,,,,,,,,,,,,,,,,6117fb98735b8d5cc5e705a2,51,2022-02-12_11h35.39.562,lexical_decision_task_DD_L2,2021.2.3,MacIntel,60.0024001,,,,,,,,,,,0.5405,1,,,,,,,,,,,,,,m,1,0.5405,,,,,,,,-0.008564996,-0.389722697,0,0,0,,0,99,99,68,1,TORCH,C,old,m,./images/TORCH.png,,,,,,,,,,,,,,,,,,,,,,,,,,,,,,,,,,,
,,,,,,,,,,,,,,,,,6117fb98735b8d5cc5e705a2,51,2022-02-12_11h35.39.562,lexical_decision_task_DD_L2,2021.2.3,MacIntel,60.0024001,,,,,,,,,,,0.7118,1,,,,,,,,,,,,,,z,1,0.7118,,,,,,,,-0.008831584,-0.388064304,0,0,0,,0,100,100,84,1,HAXES,C,old,z,./images/HAXES.png,,,,,,,,,,,,,,,,,,,,,,,,,,,,,,,,,,,
,,,,,,,,,,,,,,,,,6117fb98735b8d5cc5e705a2,51,2022-02-12_11h35.39.562,lexical_decision_task_DD_L2,2021.2.3,MacIntel,60.0024001,,,,,,,,,,,0.8106,1,,,,,,,,,,,,,,z,1,0.8106,,,,,,,,-0.007749227,-0.388064304,0,0,0,,0,101,101,90,1,NEAST,C,old,z,./images/NEAST.png,,,,,,,,,,,,,,,,,,,,,,,,,,,,,,,,,,,
,,,,,,,,,,,,,,,,,6117fb98735b8d5cc5e705a2,51,2022-02-12_11h35.39.562,lexical_decision_task_DD_L2,2021.2.3,MacIntel,60.0024001,,,,,,,,,,,0.6368,1,,,,,,,,,,,,,,m,1,0.6368,,,,,,,,-0.005871175,-0.388064304,0,0,0,,0,102,102,55,1,MUFFIN,LB,old,m,./images/MUFFINLB.png,,,,,,,,,,,,,,,,,,,,,,,,,,,,,,,,,,,
,,,,,,,,,,,,,,,,,6117fb98735b8d5cc5e705a2,51,2022-02-12_11h35.39.562,lexical_decision_task_DD_L2,2021.2.3,MacIntel,60.0024001,,,,,,,,,,,0.759,1,,,,,,,,,,,,,,z,1,0.759,,,,,,,,-0.005871175,-0.388064304,0,0,0,,0,103,103,93,1,SMONE,C,old,z,./images/SMONE.png,,,,,,,,,,,,,,,,,,,,,,,,,,,,,,,,,,,
,,,,,,,,,,,,,,,,,6117fb98735b8d5cc5e705a2,51,2022-02-12_11h35.39.562,lexical_decision_task_DD_L2,2021.2.3,MacIntel,60.0024001,,,,,,,,,,,1.1459,1,,,,,,,,,,,,,,m,1,1.1459,,,,,,,,-0.005871175,-0.388064304,0,0,0,,0,104,104,24,1,SCREW,HB,old,m,./images/SCREWHB.png,,,,,,,,,,,,,,,,,,,,,,,,,,,,,,,,,,,
,,,,,,,,,,,,,,,,,6117fb98735b8d5cc5e705a2,51,2022-02-12_11h35.39.562,lexical_decision_task_DD_L2,2021.2.3,MacIntel,60.0024001,,,,,,,,,,,0.9105,1,,,,,,,,,,,,,,z,1,0.9105,,,,,,,,-0.005871175,-0.388064304,0,0,0,,0,105,105,140,1,DOVET,LB,old,z,./images/DOVETLB.png,,,,,,,,,,,,,,,,,,,,,,,,,,,,,,,,,,,
,,,,,,,,,,,,,,,,,6117fb98735b8d5cc5e705a2,51,2022-02-12_11h35.39.562,lexical_decision_task_DD_L2,2021.2.3,MacIntel,60.0024001,,,,,,,,,,,1.8819,1,,,,,,,,,,,,,,z,1,1.8819,,,,,,,,-0.005871175,-0.388064304,0,0,0,,0,106,106,157,1,INLER,HB,old,z,./images/INLERHB.png,,,,,,,,,,,,,,,,,,,,,,,,,,,,,,,,,,,
,,,,,,,,,,,,,,,,,6117fb98735b8d5cc5e705a2,51,2022-02-12_11h35.39.562,lexical_decision_task_DD_L2,2021.2.3,MacIntel,60.0024001,,,,,,,,,,,0.6353,1,,,,,,,,,,,,,,m,1,0.6353,,,,,,,,-0.005871175,-0.388064304,0,0,0,,0,107,107,26,1,SMOKER,C,old,m,./images/SMOKER.png,,,,,,,,,,,,,,,,,,,,,,,,,,,,,,,,,,,
,,,,,,,,,,,,,,,,,6117fb98735b8d5cc5e705a2,51,2022-02-12_11h35.39.562,lexical_decision_task_DD_L2,2021.2.3,MacIntel,60.0024001,,,,,,,,,,,1.0449,1,,,,,,,,,,,,,,z,1,1.0449,,,,,,,,-0.005871175,-0.388064304,0,0,0,,0,108,108,159,1,CUDDY,C,old,z,./images/CUDDY.png,,,,,,,,,,,,,,,,,,,,,,,,,,,,,,,,,,,
,,,,,,,,,,,,,,,,,6117fb98735b8d5cc5e705a2,51,2022-02-12_11h35.39.562,lexical_decision_task_DD_L2,2021.2.3,MacIntel,60.0024001,,,,,,,,,,,0.6936,1,,,,,,,,,,,,,,z,1,0.6936,,,,,,,,-0.005871175,-0.388064304,0,0,0,,0,109,109,120,1,RINED,C,old,z,./images/RINED.png,,,,,,,,,,,,,,,,,,,,,,,,,,,,,,,,,,,
,,,,,,,,,,,,,,,,,6117fb98735b8d5cc5e705a2,51,2022-02-12_11h35.39.562,lexical_decision_task_DD_L2,2021.2.3,MacIntel,60.0024001,,,,,,,,,,,0.7273,1,,,,,,,,,,,,,,m,1,0.7273,,,,,,,,-0.005871175,-0.388064304,0,0,0,,0,110,110,28,1,FALCON,LB,old,m,./images/FALCONLB.png,,,,,,,,,,,,,,,,,,,,,,,,,,,,,,,,,,,
,,,,,,,,,,,,,,,,,6117fb98735b8d5cc5e705a2,51,2022-02-12_11h35.39.562,lexical_decision_task_DD_L2,2021.2.3,MacIntel,60.0024001,,,,,,,,,,,1.1316,1,,,,,,,,,,,,,,z,1,1.1316,,,,,,,,-0.005871175,-0.388064304,0,0,0,,0,111,111,144,1,NAIRY,C,old,z,./images/NAIRY.png,,,,,,,,,,,,,,,,,,,,,,,,,,,,,,,,,,,
,,,,,,,,,,,,,,,,,6117fb98735b8d5cc5e705a2,51,2022-02-12_11h35.39.562,lexical_decision_task_DD_L2,2021.2.3,MacIntel,60.0024001,,,,,,,,,,,1.8459,1,,,,,,,,,,,,,,z,1,1.8459,,,,,,,,-0.005871175,-0.388064304,0,0,0,,0,112,112,134,1,TROSS,LB,old,z,./images/TROSSLB.png,,,,,,,,,,,,,,,,,,,,,,,,,,,,,,,,,,,
,,,,,,,,,,,,,,,,,6117fb98735b8d5cc5e705a2,51,2022-02-12_11h35.39.562,lexical_decision_task_DD_L2,2021.2.3,MacIntel,60.0024001,,,,,,,,,,,1.2957,1,,,,,,,,,,,,,,z,1,1.2957,,,,,,,,-0.005871175,-0.388064304,0,0,0,,0,113,113,155,1,CANGY,LB,old,z,./images/CANGYLB.png,,,,,,,,,,,,,,,,,,,,,,,,,,,,,,,,,,,
,,,,,,,,,,,,,,,,,6117fb98735b8d5cc5e705a2,51,2022-02-12_11h35.39.562,lexical_decision_task_DD_L2,2021.2.3,MacIntel,60.0024001,,,,,,,,,,,0.9409,1,,,,,,,,,,,,,,m,1,0.9409,,,,,,,,-0.005871175,-0.388064304,0,0,0,,0,114,114,41,1,STRING,C,old,m,./images/STRING.png,,,,,,,,,,,,,,,,,,,,,,,,,,,,,,,,,,,
,,,,,,,,,,,,,,,,,6117fb98735b8d5cc5e705a2,51,2022-02-12_11h35.39.562,lexical_decision_task_DD_L2,2021.2.3,MacIntel,60.0024001,,,,,,,,,,,0.6599,1,,,,,,,,,,,,,,m,1,0.6599,,,,,,,,-0.005871175,-0.388064304,0,0,0,,0,115,115,62,1,PURSE,C,old,m,./images/PURSE.png,,,,,,,,,,,,,,,,,,,,,,,,,,,,,,,,,,,
,,,,,,,,,,,,,,,,,6117fb98735b8d5cc5e705a2,51,2022-02-12_11h35.39.562,lexical_decision_task_DD_L2,2021.2.3,MacIntel,60.0024001,,,,,,,,,,,0.8127,1,,,,,,,,,,,,,,m,1,0.8127,,,,,,,,-0.005871175,-0.388064304,0,0,0,,0,116,116,22,1,MELON,LB,old,m,./images/MELONLB.png,,,,,,,,,,,,,,,,,,,,,,,,,,,,,,,,,,,
,,,,,,,,,,,,,,,,,6117fb98735b8d5cc5e705a2,51,2022-02-12_11h35.39.562,lexical_decision_task_DD_L2,2021.2.3,MacIntel,60.0024001,,,,,,,,,,,1.894,1,,,,,,,,,,,,,,z,1,1.894,,,,,,,,-0.005615099,-0.388064304,0,0,0,,0,117,117,103,1,FLORT,HB,old,z,./images/FLORTHB.png,,,,,,,,,,,,,,,,,,,,,,,,,,,,,,,,,,,
,,,,,,,,,,,,,,,,,6117fb98735b8d5cc5e705a2,51,2022-02-12_11h35.39.562,lexical_decision_task_DD_L2,2021.2.3,MacIntel,60.0024001,,,,,,,,,,,1.9757,1,,,,,,,,,,,,,,m,1,1.9757,,,,,,,,-0.006384345,-0.388064304,0,0,0,,0,118,118,73,1,SNACK,LB,old,m,./images/SNACKLB.png,,,,,,,,,,,,,,,,,,,,,,,,,,,,,,,,,,,
,,,,,,,,,,,,,,,,,6117fb98735b8d5cc5e705a2,51,2022-02-12_11h35.39.562,lexical_decision_task_DD_L2,2021.2.3,MacIntel,60.0024001,,,,,,,,,,,0.795,1,,,,,,,,,,,,,,z,1,0.795,,,,,,,,-0.006578301,-0.388064304,0,0,0,,0,119,119,161,1,BLAPS,LB,old,z,./images/BLAPSLB.png,,,,,,,,,,,,,,,,,,,,,,,,,,,,,,,,,,,
,,,,,,,,,,,,,,,,,6117fb98735b8d5cc5e705a2,51,2022-02-12_11h35.39.562,lexical_decision_task_DD_L2,2021.2.3,MacIntel,60.0024001,,,,,,,,,,,0.965,1,,,,,,,,,,,,,,m,1,0.965,,,,,,,,-0.006834446,-0.388064304,0,0,0,,0,120,120,75,1,GRAIN,HB,old,m,./images/GRAINHB.png,,,,,,,,,,,,,,,,,,,,,,,,,,,,,,,,,,,
,,,,,,,,,,,,,,,,,6117fb98735b8d5cc5e705a2,51,2022-02-12_11h35.39.562,lexical_decision_task_DD_L2,2021.2.3,MacIntel,60.0024001,,,,,,,,,,,0.9311,1,,,,,,,,,,,,,,m,1,0.9311,,,,,,,,-0.007340359,-0.386485731,0,0,0,,0,121,121,27,1,ATTIC,HB,old,m,./images/ATTICHB.png,,,,,,,,,,,,,,,,,,,,,,,,,,,,,,,,,,,
,,,,,,,,,,,,,,,,,6117fb98735b8d5cc5e705a2,51,2022-02-12_11h35.39.562,lexical_decision_task_DD_L2,2021.2.3,MacIntel,60.0024001,,,,,,,,,,,0.8833,1,,,,,,,,,,,,,,m,1,0.8833,,,,,,,,-0.007053562,-0.388118761,0,0,0,,0,122,122,3,1,FINGER,HB,old,m,./images/FINGERHB.png,,,,,,,,,,,,,,,,,,,,,,,,,,,,,,,,,,,
,,,,,,,,,,,,,,,,,6117fb98735b8d5cc5e705a2,51,2022-02-12_11h35.39.562,lexical_decision_task_DD_L2,2021.2.3,MacIntel,60.0024001,,,,,,,,,,,0.8743,1,,,,,,,,,,,,,,z,1,0.8743,,,,,,,,-0.008170302,-0.388118761,0,0,0,,0,123,123,138,1,PLICE,C,old,z,./images/PLICE.png,,,,,,,,,,,,,,,,,,,,,,,,,,,,,,,,,,,
,,,,,,,,,,,,,,,,,6117fb98735b8d5cc5e705a2,51,2022-02-12_11h35.39.562,lexical_decision_task_DD_L2,2021.2.3,MacIntel,60.0024001,,,,,,,,,,,0.9945,1,,,,,,,,,,,,,,z,1,0.9945,,,,,,,,-0.008426446,-0.387862684,0,0,0,,0,124,124,141,1,PLEET,C,old,z,./images/PLEET.png,,,,,,,,,,,,,,,,,,,,,,,,,,,,,,,,,,,
,,,,,,,,,,,,,,,,,6117fb98735b8d5cc5e705a2,51,2022-02-12_11h35.39.562,lexical_decision_task_DD_L2,2021.2.3,MacIntel,60.0024001,,,,,,,,,,,0.7082,1,,,,,,,,,,,,,,m,1,0.7082,,,,,,,,-0.008170437,-0.387077976,1,0,0,,0,125,125,61,1,CANDLE,LB,old,m,./images/CANDLELB.png,break_done_button,,,,,,,,,,,,,,,,,,,,,,,,,,,,,,,,,,
,,,,,,,,,,,,,,,,,6117fb98735b8d5cc5e705a2,51,2022-02-12_11h35.39.562,lexical_decision_task_DD_L2,2021.2.3,MacIntel,60.0024001,,,,,,,,,,,1.4752,1,,,,,,,,,,,,,,z,1,1.4752,,,,,,,,-0.008170437,-0.387077976,0,0,0,,0,126,126,102,1,DULLE,C,old,z,./images/DULLE.png,,,,,,,,,,,,,,,,,,,,,,,,,,,,,,,,,,,
,,,,,,,,,,,,,,,,,6117fb98735b8d5cc5e705a2,51,2022-02-12_11h35.39.562,lexical_decision_task_DD_L2,2021.2.3,MacIntel,60.0024001,,,,,,,,,,,0.7327,1,,,,,,,,,,,,,,z,1,0.7327,,,,,,,,-0.008170437,-0.387077976,0,0,0,,0,127,127,106,1,CLUMS,HB,old,z,./images/CLUMSHB.png,,,,,,,,,,,,,,,,,,,,,,,,,,,,,,,,,,,
,,,,,,,,,,,,,,,,,6117fb98735b8d5cc5e705a2,51,2022-02-12_11h35.39.562,lexical_decision_task_DD_L2,2021.2.3,MacIntel,60.0024001,,,,,,,,,,,0.5933,1,,,,,,,,,,,,,,z,1,0.5933,,,,,,,,-0.008170437,-0.387077976,0,0,0,,0,128,128,111,1,HOSSE,C,old,z,./images/HOSSE.png,,,,,,,,,,,,,,,,,,,,,,,,,,,,,,,,,,,
,,,,,,,,,,,,,,,,,6117fb98735b8d5cc5e705a2,51,2022-02-12_11h35.39.562,lexical_decision_task_DD_L2,2021.2.3,MacIntel,60.0024001,,,,,,,,,,,0.761,1,,,,,,,,,,,,,,z,1,0.761,,,,,,,,-0.008170437,-0.387077976,0,0,0,,0,129,129,135,1,JOODY,C,old,z,./images/JOODY.png,,,,,,,,,,,,,,,,,,,,,,,,,,,,,,,,,,,
,,,,,,,,,,,,,,,,,6117fb98735b8d5cc5e705a2,51,2022-02-12_11h35.39.562,lexical_decision_task_DD_L2,2021.2.3,MacIntel,60.0024001,,,,,,,,,,,0.7809,1,,,,,,,,,,,,,,m,1,0.7809,,,,,,,,-0.008170437,-0.387077976,0,0,0,,0,130,130,31,1,QUILL,LB,old,m,./images/QUILLLB.png,,,,,,,,,,,,,,,,,,,,,,,,,,,,,,,,,,,
,,,,,,,,,,,,,,,,,6117fb98735b8d5cc5e705a2,51,2022-02-12_11h35.39.562,lexical_decision_task_DD_L2,2021.2.3,MacIntel,60.0024001,,,,,,,,,,,1.2805,1,,,,,,,,,,,,,,z,1,1.2805,,,,,,,,-0.008170437,-0.387077976,0,0,0,,0,131,131,127,1,NINDY,HB,old,z,./images/NINDYHB.png,,,,,,,,,,,,,,,,,,,,,,,,,,,,,,,,,,,
,,,,,,,,,,,,,,,,,6117fb98735b8d5cc5e705a2,51,2022-02-12_11h35.39.562,lexical_decision_task_DD_L2,2021.2.3,MacIntel,60.0024001,,,,,,,,,,,1.4781,1,,,,,,,,,,,,,,z,1,1.4781,,,,,,,,-0.008170437,-0.387077976,0,0,0,,0,132,132,137,1,JOOST,LB,old,z,./images/JOOSTLB.png,,,,,,,,,,,,,,,,,,,,,,,,,,,,,,,,,,,
,,,,,,,,,,,,,,,,,6117fb98735b8d5cc5e705a2,51,2022-02-12_11h35.39.562,lexical_decision_task_DD_L2,2021.2.3,MacIntel,60.0024001,,,,,,,,,,,0.799,1,,,,,,,,,,,,,,z,1,0.799,,,,,,,,-0.008170437,-0.387077976,0,0,0,,0,133,133,119,1,PAFER,LB,old,z,./images/PAFERLB.png,,,,,,,,,,,,,,,,,,,,,,,,,,,,,,,,,,,
,,,,,,,,,,,,,,,,,6117fb98735b8d5cc5e705a2,51,2022-02-12_11h35.39.562,lexical_decision_task_DD_L2,2021.2.3,MacIntel,60.0024001,,,,,,,,,,,0.7299,1,,,,,,,,,,,,,,z,1,0.7299,,,,,,,,-0.008170437,-0.387077976,0,0,0,,0,134,134,147,1,ZOLES,C,old,z,./images/ZOLES.png,,,,,,,,,,,,,,,,,,,,,,,,,,,,,,,,,,,
,,,,,,,,,,,,,,,,,6117fb98735b8d5cc5e705a2,51,2022-02-12_11h35.39.562,lexical_decision_task_DD_L2,2021.2.3,MacIntel,60.0024001,,,,,,,,,,,0.6583,1,,,,,,,,,,,,,,z,1,0.6583,,,,,,,,-0.008170437,-0.387077976,0,0,0,,0,135,135,162,1,LEICH,C,old,z,./images/LEICH.png,,,,,,,,,,,,,,,,,,,,,,,,,,,,,,,,,,,
,,,,,,,,,,,,,,,,,6117fb98735b8d5cc5e705a2,51,2022-02-12_11h35.39.562,lexical_decision_task_DD_L2,2021.2.3,MacIntel,60.0024001,,,,,,,,,,,0.7163,1,,,,,,,,,,,,,,m,1,0.7163,,,,,,,,-0.008170437,-0.387077976,0,0,0,,0,136,136,64,1,JELLY,LB,old,m,./images/JELLYLB.png,,,,,,,,,,,,,,,,,,,,,,,,,,,,,,,,,,,
,,,,,,,,,,,,,,,,,6117fb98735b8d5cc5e705a2,51,2022-02-12_11h35.39.562,lexical_decision_task_DD_L2,2021.2.3,MacIntel,60.0024001,,,,,,,,,,,0.6253,1,,,,,,,,,,,,,,m,1,0.6253,,,,,,,,-0.008170437,-0.387077976,0,0,0,,0,137,137,44,1,LIZARD,C,old,m,./images/LIZARD.png,,,,,,,,,,,,,,,,,,,,,,,,,,,,,,,,,,,
,,,,,,,,,,,,,,,,,6117fb98735b8d5cc5e705a2,51,2022-02-12_11h35.39.562,lexical_decision_task_DD_L2,2021.2.3,MacIntel,60.0024001,,,,,,,,,,,0.7461,1,,,,,,,,,,,,,,m,1,0.7461,,,,,,,,-0.008170437,-0.387077976,0,0,0,,0,138,138,43,1,MOSQUE,LB,old,m,./images/MOSQUELB.png,,,,,,,,,,,,,,,,,,,,,,,,,,,,,,,,,,,
,,,,,,,,,,,,,,,,,6117fb98735b8d5cc5e705a2,51,2022-02-12_11h35.39.562,lexical_decision_task_DD_L2,2021.2.3,MacIntel,60.0024001,,,,,,,,,,,1.4121,1,,,,,,,,,,,,,,z,1,1.4121,,,,,,,,-0.008170437,-0.387077976,0,0,0,,0,139,139,100,1,DRIBS,HB,old,z,./images/DRIBSHB.png,,,,,,,,,,,,,,,,,,,,,,,,,,,,,,,,,,,
,,,,,,,,,,,,,,,,,6117fb98735b8d5cc5e705a2,51,2022-02-12_11h35.39.562,lexical_decision_task_DD_L2,2021.2.3,MacIntel,60.0024001,,,,,,,,,,,0.8509,1,,,,,,,,,,,,,,m,1,0.8509,,,,,,,,-0.008170437,-0.387077976,0,0,0,,0,140,140,7,1,PAINT,LB,old,m,./images/PAINTLB.png,,,,,,,,,,,,,,,,,,,,,,,,,,,,,,,,,,,
,,,,,,,,,,,,,,,,,6117fb98735b8d5cc5e705a2,51,2022-02-12_11h35.39.562,lexical_decision_task_DD_L2,2021.2.3,MacIntel,60.0024001,,,,,,,,,,,0.6162,1,,,,,,,,,,,,,,m,1,0.6162,,,,,,,,-0.008170437,-0.387077976,0,0,0,,0,141,141,4,1,MUSCLE,LB,old,m,./images/MUSCLELB.png,,,,,,,,,,,,,,,,,,,,,,,,,,,,,,,,,,,
,,,,,,,,,,,,,,,,,6117fb98735b8d5cc5e705a2,51,2022-02-12_11h35.39.562,lexical_decision_task_DD_L2,2021.2.3,MacIntel,60.0024001,,,,,,,,,,,0.7159,1,,,,,,,,,,,,,,m,1,0.7159,,,,,,,,-0.008170437,-0.387077976,0,0,0,,0,142,142,48,1,SPORT,HB,old,m,./images/SPORTHB.png,,,,,,,,,,,,,,,,,,,,,,,,,,,,,,,,,,,
,,,,,,,,,,,,,,,,,6117fb98735b8d5cc5e705a2,51,2022-02-12_11h35.39.562,lexical_decision_task_DD_L2,2021.2.3,MacIntel,60.0024001,,,,,,,,,,,1.2182,1,,,,,,,,,,,,,,m,1,1.2182,,,,,,,,-0.008170437,-0.387077976,0,0,0,,0,143,143,40,1,SWING,LB,old,m,./images/SWINGLB.png,,,,,,,,,,,,,,,,,,,,,,,,,,,,,,,,,,,
,,,,,,,,,,,,,,,,,6117fb98735b8d5cc5e705a2,51,2022-02-12_11h35.39.562,lexical_decision_task_DD_L2,2021.2.3,MacIntel,60.0024001,,,,,,,,,,,1.0243,1,,,,,,,,,,,,,,m,1,1.0243,,,,,,,,-0.008170437,-0.387077976,0,0,0,,0,144,144,80,1,WEASEL,C,old,m,./images/WEASEL.png,,,,,,,,,,,,,,,,,,,,,,,,,,,,,,,,,,,
,,,,,,,,,,,,,,,,,6117fb98735b8d5cc5e705a2,51,2022-02-12_11h35.39.562,lexical_decision_task_DD_L2,2021.2.3,MacIntel,60.0024001,,,,,,,,,,,0.7438,1,,,,,,,,,,,,,,m,1,0.7438,,,,,,,,-0.008170437,-0.387077976,0,0,0,,0,145,145,2,1,BEARD,C,old,m,./images/BEARD.png,,,,,,,,,,,,,,,,,,,,,,,,,,,,,,,,,,,
,,,,,,,,,,,,,,,,,6117fb98735b8d5cc5e705a2,51,2022-02-12_11h35.39.562,lexical_decision_task_DD_L2,2021.2.3,MacIntel,60.0024001,,,,,,,,,,,0.8116,1,,,,,,,,,,,,,,z,1,0.8116,,,,,,,,-0.008170437,-0.387077976,0,0,0,,0,146,146,105,1,MOKER,C,old,z,./images/MOKER.png,,,,,,,,,,,,,,,,,,,,,,,,,,,,,,,,,,,
,,,,,,,,,,,,,,,,,6117fb98735b8d5cc5e705a2,51,2022-02-12_11h35.39.562,lexical_decision_task_DD_L2,2021.2.3,MacIntel,60.0024001,,,,,,,,,,,0.7992,1,,,,,,,,,,,,,,m,1,0.7992,,,,,,,,-0.008170437,-0.387077976,0,0,0,,0,147,147,81,1,POODLE,HB,old,m,./images/POODLEHB.png,,,,,,,,,,,,,,,,,,,,,,,,,,,,,,,,,,,
,,,,,,,,,,,,,,,,,6117fb98735b8d5cc5e705a2,51,2022-02-12_11h35.39.562,lexical_decision_task_DD_L2,2021.2.3,MacIntel,60.0024001,,,,,,,,,,,0.7838,1,,,,,,,,,,,,,,m,1,0.7838,,,,,,,,-0.008170437,-0.387077976,0,0,0,,0,148,148,56,1,PACKET,C,old,m,./images/PACKET.png,,,,,,,,,,,,,,,,,,,,,,,,,,,,,,,,,,,
,,,,,,,,,,,,,,,,,6117fb98735b8d5cc5e705a2,51,2022-02-12_11h35.39.562,lexical_decision_task_DD_L2,2021.2.3,MacIntel,60.0024001,,,,,,,,,,,0.696,1,,,,,,,,,,,,,,m,1,0.696,,,,,,,,-0.008170437,-0.387077976,0,0,0,,0,149,149,19,1,DOUGH,LB,old,m,./images/DOUGHLB.png,,,,,,,,,,,,,,,,,,,,,,,,,,,,,,,,,,,
,,,,,,,,,,,,,,,,,6117fb98735b8d5cc5e705a2,51,2022-02-12_11h35.39.562,lexical_decision_task_DD_L2,2021.2.3,MacIntel,60.0024001,,,,,,,,,,,1.7982,1,,,,,,,,,,,,,,z,1,1.7982,,,,,,,,-0.008170437,-0.387077976,0,0,0,,0,150,150,154,1,THINT,HB,old,z,./images/THINTHB.png,,,,,,,,,,,,,,,,,,,,,,,,,,,,,,,,,,,
,,,,,,,,,,,,,,,,,6117fb98735b8d5cc5e705a2,51,2022-02-12_11h35.39.562,lexical_decision_task_DD_L2,2021.2.3,MacIntel,60.0024001,,,,,,,,,,,0.9486,1,,,,,,,,,,,,,,z,1,0.9486,,,,,,,,-0.008170437,-0.387077976,0,0,0,,0,151,151,139,1,BLEAR,HB,old,z,./images/BLEARHB.png,,,,,,,,,,,,,,,,,,,,,,,,,,,,,,,,,,,
,,,,,,,,,,,,,,,,,6117fb98735b8d5cc5e705a2,51,2022-02-12_11h35.39.562,lexical_decision_task_DD_L2,2021.2.3,MacIntel,60.0024001,,,,,,,,,,,0.9508,1,,,,,,,,,,,,,,m,1,0.9508,,,,,,,,-0.008170437,-0.387077976,0,0,0,,0,152,152,66,1,SWEAT,HB,old,m,./images/SWEATHB.png,,,,,,,,,,,,,,,,,,,,,,,,,,,,,,,,,,,
,,,,,,,,,,,,,,,,,6117fb98735b8d5cc5e705a2,51,2022-02-12_11h35.39.562,lexical_decision_task_DD_L2,2021.2.3,MacIntel,60.0024001,,,,,,,,,,,0.7297,1,,,,,,,,,,,,,,m,1,0.7297,,,,,,,,-0.008170437,-0.387077976,0,0,0,,0,153,153,39,1,SHELF,HB,old,m,./images/SHELFHB.png,,,,,,,,,,,,,,,,,,,,,,,,,,,,,,,,,,,
,,,,,,,,,,,,,,,,,6117fb98735b8d5cc5e705a2,51,2022-02-12_11h35.39.562,lexical_decision_task_DD_L2,2021.2.3,MacIntel,60.0024001,,,,,,,,,,,1.0213,1,,,,,,,,,,,,,,z,1,1.0213,,,,,,,,-0.008170437,-0.387077976,0,0,0,,0,154,154,167,1,ZONET,LB,old,z,./images/ZONETLB.png,,,,,,,,,,,,,,,,,,,,,,,,,,,,,,,,,,,
,,,,,,,,,,,,,,,,,6117fb98735b8d5cc5e705a2,51,2022-02-12_11h35.39.562,lexical_decision_task_DD_L2,2021.2.3,MacIntel,60.0024001,,,,,,,,,,,1.9165,1,,,,,,,,,,,,,,m,1,1.9165,,,,,,,,-0.008170437,-0.387077976,0,0,0,,0,155,155,52,1,BANNER,LB,old,m,./images/BANNERLB.png,,,,,,,,,,,,,,,,,,,,,,,,,,,,,,,,,,,
,,,,,,,,,,,,,,,,,6117fb98735b8d5cc5e705a2,51,2022-02-12_11h35.39.562,lexical_decision_task_DD_L2,2021.2.3,MacIntel,60.0024001,,,,,,,,,,,0.6148,1,,,,,,,,,,,,,,m,1,0.6148,,,,,,,,-0.008170437,-0.387077976,0,0,0,,0,156,156,6,1,SQUARE,HB,old,m,./images/SQUAREHB.png,,,,,,,,,,,,,,,,,,,,,,,,,,,,,,,,,,,
,,,,,,,,,,,,,,,,,6117fb98735b8d5cc5e705a2,51,2022-02-12_11h35.39.562,lexical_decision_task_DD_L2,2021.2.3,MacIntel,60.0024001,,,,,,,,,,,1.0128,1,,,,,,,,,,,,,,z,1,1.0128,,,,,,,,-0.008170437,-0.387077976,0,0,0,,0,157,157,99,1,BACKY,C,old,z,./images/BACKY.png,,,,,,,,,,,,,,,,,,,,,,,,,,,,,,,,,,,
,,,,,,,,,,,,,,,,,6117fb98735b8d5cc5e705a2,51,2022-02-12_11h35.39.562,lexical_decision_task_DD_L2,2021.2.3,MacIntel,60.0024001,,,,,,,,,,,0.8798,1,,,,,,,,,,,,,,z,1,0.8798,,,,,,,,-0.008170437,-0.387077976,0,0,0,,0,158,158,146,1,MOOST,LB,old,z,./images/MOOSTLB.png,,,,,,,,,,,,,,,,,,,,,,,,,,,,,,,,,,,
,,,,,,,,,,,,,,,,,6117fb98735b8d5cc5e705a2,51,2022-02-12_11h35.39.562,lexical_decision_task_DD_L2,2021.2.3,MacIntel,60.0024001,,,,,,,,,,,1.147,0,,,,,,,,,,,,,,m,0,1.147,,,,,,,,-0.008682454,-0.387077976,0,0,0,,0,159,159,123,1,SEDGE,C,old,z,./images/SEDGE.png,,,,,,,,,,,,,,,,,,,,,,,,,,,,,,,,,,,
,,,,,,,,,,,,,,,,,6117fb98735b8d5cc5e705a2,51,2022-02-12_11h35.39.562,lexical_decision_task_DD_L2,2021.2.3,MacIntel,60.0024001,,,,,,,,,,,0.8106,1,,,,,,,,,,,,,,z,1,0.8106,,,,,,,,-0.007476942,-0.386268717,0,0,0,,0,160,160,108,1,GRUET,C,old,z,./images/GRUET.png,,,,,,,,,,,,,,,,,,,,,,,,,,,,,,,,,,,
,,,,,,,,,,,,,,,,,6117fb98735b8d5cc5e705a2,51,2022-02-12_11h35.39.562,lexical_decision_task_DD_L2,2021.2.3,MacIntel,60.0024001,,,,,,,,,,,0.8635,1,,,,,,,,,,,,,,m,1,0.8635,,,,,,,,-0.008245917,-0.386268717,0,0,0,,0,161,161,38,1,LADDER,C,old,m,./images/LADDER.png,,,,,,,,,,,,,,,,,,,,,,,,,,,,,,,,,,,
,,,,,,,,,,,,,,,,,6117fb98735b8d5cc5e705a2,51,2022-02-12_11h35.39.562,lexical_decision_task_DD_L2,2021.2.3,MacIntel,60.0024001,,,,,,,,,,,1.2323,1,,,,,,,,,,,,,,z,1,1.2323,,,,,,,,-0.009350043,-0.385709839,0,0,0,,0,162,162,85,1,CHULK,HB,old,z,./images/CHULKHB.png,,,,,,,,,,,,,,,,,,,,,,,,,,,,,,,,,,,
,,,,,,,,,,,,,,,,,6117fb98735b8d5cc5e705a2,51,2022-02-12_11h35.39.562,lexical_decision_task_DD_L2,2021.2.3,MacIntel,60.0024001,,,,,,,,,,,1.2344,1,,,,,,,,,,,,,,z,1,1.2344,,,,,,,,-0.010118679,-0.385709839,0,0,0,,0,163,163,152,1,FRAIN,LB,old,z,./images/FRAINLB.png,,,,,,,,,,,,,,,,,,,,,,,,,,,,,,,,,,,
,,,,,,,,,,,,,,,,,6117fb98735b8d5cc5e705a2,51,2022-02-12_11h35.39.562,lexical_decision_task_DD_L2,2021.2.3,MacIntel,60.0024001,,,,,,,,,,,1.7489,1,,,,,,,,,,,,,,m,1,1.7489,,,,,,,,-0.010889214,-0.385709839,0,0,0,,0,164,164,49,1,DRUMS,LB,old,m,./images/DRUMSLB.png,,,,,,,,,,,,,,,,,,,,,,,,,,,,,,,,,,,
,,,,,,,,,,,,,,,,,6117fb98735b8d5cc5e705a2,51,2022-02-12_11h35.39.562,lexical_decision_task_DD_L2,2021.2.3,MacIntel,60.0024001,,,,,,,,,,,0.6625,1,,,,,,,,,,,,,,m,1,0.6625,,,,,,,,-0.010054253,-0.382462701,0,0,0,,0,165,165,57,1,MOOSE,HB,old,m,./images/MOOSEHB.png,,,,,,,,,,,,,,,,,,,,,,,,,,,,,,,,,,,
,,,,,,,,,,,,,,,,,6117fb98735b8d5cc5e705a2,51,2022-02-12_11h35.39.562,lexical_decision_task_DD_L2,2021.2.3,MacIntel,60.0024001,,,,,,,,,,,1.2757,1,,,,,,,,,,,,,,z,1,1.2757,,,,,,,,-0.00922465,-0.382462701,0,0,0,,0,166,166,165,1,TROWN,C,old,z,./images/TROWN.png,,,,,,,,,,,,,,,,,,,,,,,,,,,,,,,,,,,
,,,,,,,,,,,,,,,,,6117fb98735b8d5cc5e705a2,51,2022-02-12_11h35.39.562,lexical_decision_task_DD_L2,2021.2.3,MacIntel,60.0024001,,,,,,,,,,,1.23,1,,,,,,,,,,,,,,m,1,1.23,,,,,,,,-0.009737278,-0.382462701,0,0,0,,0,167,167,1,1,PLANK,LB,old,m,./images/PLANKLB.png,,,,,,,,,,,,,,,,,,,,,,,,,,,,,,,,,,,
,,,,,,,,,,,,,,,,,6117fb98735b8d5cc5e705a2,51,2022-02-12_11h35.39.562,lexical_decision_task_DD_L2,2021.2.3,MacIntel,60.0024001,,,,,,,,,,,,,,,,,,,,,,,,,,,,,,,,,,,,,,,,,,,,,,,,How likely will it be that you will recognize the words presented very blurred on a scale of 0 (not likely) to 100 (most likely)?,,,,,-0.005398356,-0.43566413,1,0,0,jol_adv,5,9.4015,0,0,0,2,1,,,,,,,,,,,,,,,,,,,,,
,,,,,,,,,,,,,,,,,6117fb98735b8d5cc5e705a2,51,2022-02-12_11h35.39.562,lexical_decision_task_DD_L2,2021.2.3,MacIntel,60.0024001,,,,,,,,,,,,,,,,,,,,,,,,,,,,,,,,,,,,,,,,,,,,,,,,How likely will it be that you will recognize the words presented clearly on a scale of 0 (not likely) to 100 (most likely)?,,,,,,,,,,,6,6.8126,0,1,1,0,1,,,,,,,,,,,,,,,,,,,,,
,,,,,,,,,,,,,,,,,6117fb98735b8d5cc5e705a2,51,2022-02-12_11h35.39.562,lexical_decision_task_DD_L2,2021.2.3,MacIntel,60.0024001,,,,,,,,,,,,,,,,,,,,,,,,,,,,,,,,,,,,,,,,,,,,,,,,How likely will it be that you will recognize the words presented slighly blurred on a scale of 0 (not likely) to 100 (most likely)?,,,,,,,,,,,6,5.3466,0,2,2,1,1,,,,,,,,,,,,,,,,,,,,,
,-0.012607625,-0.410668606,1,0,0,instr_done_button,,,,,,1,test,"In the next phase you will be presented with the words from the the first phase. Your job is to decide whether you remember seeing the word or not. If you remember seeing the word press ""old"" or type ""m"". If you do not remember seeing the word press ""new"" or type ""z"". Please press the space bar or click on continue to begin. ",,,6117fb98735b8d5cc5e705a2,51,2022-02-12_11h35.39.562,lexical_decision_task_DD_L2,2021.2.3,MacIntel,60.0024001,,,,,,,,,,,,,,,,,,,,,,,,,,,,,,,,,,,,,,,,,,,,,,,,,,,,,,,,,,,,,,,,,,0,0,0,0,1,,,,,,,,,,,,,,,,
,0.000717163,-0.382154744,1,0,0,instr_done_button,,,,,,1,test,"In the next phase you will be presented with the words from the the first phase. Your job is to decide whether you remember seeing the word or not. If you remember seeing the word press ""old"" or type ""m"". If you do not remember seeing the word press ""new"" or type ""z"". Please press the space bar or click on continue to begin. ",,,6117fb98735b8d5cc5e705a2,51,2022-02-12_11h35.39.562,lexical_decision_task_DD_L2,2021.2.3,MacIntel,60.0024001,,,,,,,,,,,,,,,,,,,,,,,,,,,,,,,,,,,,,,,,,,,,,,,,,,,,,,,,,,,,,,,,,,1,0,1,0,1,,,,,,,,,,,,,,,,
,-0.00323744,-0.392670424,1,0,0,instr_done_button,,,,,,1,test,"In the next phase you will be presented with the words from the the first phase. Your job is to decide whether you remember seeing the word or not. If you remember seeing the word press ""old"" or type ""m"". If you do not remember seeing the word press ""new"" or type ""z"". Please press the space bar or click on continue to begin. ",,,6117fb98735b8d5cc5e705a2,51,2022-02-12_11h35.39.562,lexical_decision_task_DD_L2,2021.2.3,MacIntel,60.0024001,,,,,,,,,,,,,,,,,,,,,,,,,,,,,,,,,,,,,,,,,,,,,,,,,,,,,,,,,,,,,,,,,,2,0,2,0,1,,,,,,,,,,,,,,,,
space,-0.002681885,-0.392670424,0,0,0,,,,,,,1,test,"In the next phase you will be presented with the words from the the first phase. Your job is to decide whether you remember seeing the word or not. If you remember seeing the word press ""old"" or type ""m"". If you do not remember seeing the word press ""new"" or type ""z"". Please press the space bar or click on continue to begin. ",,,6117fb98735b8d5cc5e705a2,51,2022-02-12_11h35.39.562,lexical_decision_task_DD_L2,2021.2.3,MacIntel,60.0024001,,,,,,,,,,,,,,,,,,,,,,,,,,,,,,,,,,,,,,,,,,,,,,,,,,,,,,,,,,,,,,,,,,3,0,3,0,1,0.8365,,,,,,,,,,,,,,,
,-0.017854275,-0.36746148,1,0,0,instr_done_button,,,,,,1,test,"In the next phase you will be presented with the words from the the first phase. Your job is to decide whether you remember seeing the word or not. If you remember seeing the word press ""old"" or type ""m"". If you do not remember seeing the word press ""new"" or type ""z"". Please press the space bar or click on continue to begin. ",,,6117fb98735b8d5cc5e705a2,51,2022-02-12_11h35.39.562,lexical_decision_task_DD_L2,2021.2.3,MacIntel,60.0024001,,,,,,,,,,,,,,,,,,,,,,,,,,,,,,,,,,,,,,,,,,,,,,,,,,,,,,,,,,,,,,,,,,4,0,4,0,1,,,,,,,,,,,,,,,,
,,,,,,,,,,,,,,,,,6117fb98735b8d5cc5e705a2,51,2022-02-12_11h35.39.562,lexical_decision_task_DD_L2,2021.2.3,MacIntel,60.0024001,,,,,,,,,,,3.2121,1,,,,,,,,,,,,,,,,,,,,,,,,-0.018369276,-0.366932644,0,0,0,,,,,,,DONKEY,LB,z,y,./images/DONKEYLB.png,,,,,,,,,,,,,,,,,,,,,z,1,3.2121,,,,,,,,0,0,0,103,1
,,,,,,,,,,,,,,,,,6117fb98735b8d5cc5e705a2,51,2022-02-12_11h35.39.562,lexical_decision_task_DD_L2,2021.2.3,MacIntel,60.0024001,,,,,,,,,,,1.029,1,,,,,,,,,,,,,,,,,,,,,,,,-0.018369276,-0.366932644,0,0,0,,,,,,,CLOTH,C,z,y,./images/CLOTH.png,,,,,,,,,,,,,,,,,,,,,z,1,1.029,,,,,,,,0,1,1,107,1
,,,,,,,,,,,,,,,,,6117fb98735b8d5cc5e705a2,51,2022-02-12_11h35.39.562,lexical_decision_task_DD_L2,2021.2.3,MacIntel,60.0024001,,,,,,,,,,,1.295,1,,,,,,,,,,,,,,,,,,,,,,,,-0.018369276,-0.366932644,0,0,0,,,,,,,ARTIST,LB,z,y,./images/ARTISTLB.png,,,,,,,,,,,,,,,,,,,,,z,1,1.295,,,,,,,,0,2,2,145,1
,,,,,,,,,,,,,,,,,6117fb98735b8d5cc5e705a2,51,2022-02-12_11h35.39.562,lexical_decision_task_DD_L2,2021.2.3,MacIntel,60.0024001,,,,,,,,,,,1.3622,1,,,,,,,,,,,,,,,,,,,,,,,,-0.018369276,-0.366932644,0,0,0,,,,,,,BUTTER,HB,z,y,./images/BUTTERHB.png,,,,,,,,,,,,,,,,,,,,,z,1,1.3622,,,,,,,,0,3,3,111,1
,,,,,,,,,,,,,,,,,6117fb98735b8d5cc5e705a2,51,2022-02-12_11h35.39.562,lexical_decision_task_DD_L2,2021.2.3,MacIntel,60.0024001,,,,,,,,,,,0.7959,1,,,,,,,,,,,,,,,,,,,,,,,,-0.018369276,-0.366932644,0,0,0,,,,,,,FLESH,HB,z,y,./images/FLESHHB.png,,,,,,,,,,,,,,,,,,,,,z,1,0.7959,,,,,,,,0,4,4,108,1
,,,,,,,,,,,,,,,,,6117fb98735b8d5cc5e705a2,51,2022-02-12_11h35.39.562,lexical_decision_task_DD_L2,2021.2.3,MacIntel,60.0024001,,,,,,,,,,,1.4829,1,,,,,,,,,,,,,,,,,,,,,,,,-0.018369276,-0.366932644,0,0,0,,,,,,,DRILL,HB,z,y,./images/DRILLHB.png,,,,,,,,,,,,,,,,,,,,,z,1,1.4829,,,,,,,,0,5,5,165,1
,,,,,,,,,,,,,,,,,6117fb98735b8d5cc5e705a2,51,2022-02-12_11h35.39.562,lexical_decision_task_DD_L2,2021.2.3,MacIntel,60.0024001,,,,,,,,,,,0.8674,1,,,,,,,,,,,,,,,,,,,,,,,,-0.018369276,-0.366932644,0,0,0,,,,,,,CANDLE,LB,m,y,./images/CANDLELB.png,,,,,,,,,,,,,,,,,,,,,m,1,0.8674,,,,,,,,0,6,6,61,1
,,,,,,,,,,,,,,,,,6117fb98735b8d5cc5e705a2,51,2022-02-12_11h35.39.562,lexical_decision_task_DD_L2,2021.2.3,MacIntel,60.0024001,,,,,,,,,,,0.8101,1,,,,,,,,,,,,,,,,,,,,,,,,-0.018369276,-0.366932644,0,0,0,,,,,,,DOUGH,LB,m,y,./images/DOUGHLB.png,,,,,,,,,,,,,,,,,,,,,m,1,0.8101,,,,,,,,0,7,7,19,1
,,,,,,,,,,,,,,,,,6117fb98735b8d5cc5e705a2,51,2022-02-12_11h35.39.562,lexical_decision_task_DD_L2,2021.2.3,MacIntel,60.0024001,,,,,,,,,,,0.7004,1,,,,,,,,,,,,,,,,,,,,,,,,-0.018369276,-0.366932644,0,0,0,,,,,,,MALLET,C,m,y,./images/MALLET.png,,,,,,,,,,,,,,,,,,,,,m,1,0.7004,,,,,,,,0,8,8,50,1
,,,,,,,,,,,,,,,,,6117fb98735b8d5cc5e705a2,51,2022-02-12_11h35.39.562,lexical_decision_task_DD_L2,2021.2.3,MacIntel,60.0024001,,,,,,,,,,,1.1058,1,,,,,,,,,,,,,,,,,,,,,,,,-0.018369276,-0.366932644,0,0,0,,,,,,,PEACH,C,m,y,./images/PEACH.png,,,,,,,,,,,,,,,,,,,,,m,1,1.1058,,,,,,,,0,9,9,35,1
,,,,,,,,,,,,,,,,,6117fb98735b8d5cc5e705a2,51,2022-02-12_11h35.39.562,lexical_decision_task_DD_L2,2021.2.3,MacIntel,60.0024001,,,,,,,,,,,0.9459,1,,,,,,,,,,,,,,,,,,,,,,,,-0.018369276,-0.366932644,0,0,0,,,,,,,BRIDE,LB,z,y,./images/BRIDELB.png,,,,,,,,,,,,,,,,,,,,,z,1,0.9459,,,,,,,,0,10,10,148,1
,,,,,,,,,,,,,,,,,6117fb98735b8d5cc5e705a2,51,2022-02-12_11h35.39.562,lexical_decision_task_DD_L2,2021.2.3,MacIntel,60.0024001,,,,,,,,,,,0.797,1,,,,,,,,,,,,,,,,,,,,,,,,-0.018369276,-0.366932644,0,0,0,,,,,,,BONNET,C,m,y,./images/BONNET.png,,,,,,,,,,,,,,,,,,,,,m,1,0.797,,,,,,,,0,11,11,11,1
,,,,,,,,,,,,,,,,,6117fb98735b8d5cc5e705a2,51,2022-02-12_11h35.39.562,lexical_decision_task_DD_L2,2021.2.3,MacIntel,60.0024001,,,,,,,,,,,1.316,1,,,,,,,,,,,,,,,,,,,,,,,,-0.018369276,-0.366932644,0,0,0,,,,,,,ONION,HB,m,y,./images/ONIONHB.png,,,,,,,,,,,,,,,,,,,,,m,1,1.316,,,,,,,,0,12,12,51,1
,,,,,,,,,,,,,,,,,6117fb98735b8d5cc5e705a2,51,2022-02-12_11h35.39.562,lexical_decision_task_DD_L2,2021.2.3,MacIntel,60.0024001,,,,,,,,,,,1.3501,1,,,,,,,,,,,,,,,,,,,,,,,,-0.018369276,-0.366932644,0,0,0,,,,,,,MUMMY,LB,z,y,./images/MUMMYLB.png,,,,,,,,,,,,,,,,,,,,,z,1,1.3501,,,,,,,,0,13,13,130,1
,,,,,,,,,,,,,,,,,6117fb98735b8d5cc5e705a2,51,2022-02-12_11h35.39.562,lexical_decision_task_DD_L2,2021.2.3,MacIntel,60.0024001,,,,,,,,,,,0.9619,0,,,,,,,,,,,,,,,,,,,,,,,,-0.018369276,-0.366932644,0,0,0,,,,,,,BASKET,C,z,y,./images/BASKET.png,,,,,,,,,,,,,,,,,,,,,m,0,0.9619,,,,,,,,0,14,14,128,1
,,,,,,,,,,,,,,,,,6117fb98735b8d5cc5e705a2,51,2022-02-12_11h35.39.562,lexical_decision_task_DD_L2,2021.2.3,MacIntel,60.0024001,,,,,,,,,,,1.0135,1,,,,,,,,,,,,,,,,,,,,,,,,-0.018369276,-0.366932644,0,0,0,,,,,,,HEATER,C,z,y,./images/HEATER.png,,,,,,,,,,,,,,,,,,,,,z,1,1.0135,,,,,,,,0,15,15,140,1
,,,,,,,,,,,,,,,,,6117fb98735b8d5cc5e705a2,51,2022-02-12_11h35.39.562,lexical_decision_task_DD_L2,2021.2.3,MacIntel,60.0024001,,,,,,,,,,,1.2356,1,,,,,,,,,,,,,,,,,,,,,,,,-0.018369276,-0.366932644,0,0,0,,,,,,,BOXER,LB,z,y,./images/BOXERLB.png,,,,,,,,,,,,,,,,,,,,,z,1,1.2356,,,,,,,,0,16,16,88,1
,,,,,,,,,,,,,,,,,6117fb98735b8d5cc5e705a2,51,2022-02-12_11h35.39.562,lexical_decision_task_DD_L2,2021.2.3,MacIntel,60.0024001,,,,,,,,,,,1.5501,1,,,,,,,,,,,,,,,,,,,,,,,,-0.018369276,-0.366932644,0,0,0,,,,,,,PISTOL,C,z,y,./images/PISTOL.png,,,,,,,,,,,,,,,,,,,,,z,1,1.5501,,,,,,,,0,17,17,113,1
,,,,,,,,,,,,,,,,,6117fb98735b8d5cc5e705a2,51,2022-02-12_11h35.39.562,lexical_decision_task_DD_L2,2021.2.3,MacIntel,60.0024001,,,,,,,,,,,0.8158,0,,,,,,,,,,,,,,,,,,,,,,,,-0.018369276,-0.366932644,0,0,0,,,,,,,BUBBLE,C,z,y,./images/BUBBLE.png,,,,,,,,,,,,,,,,,,,,,m,0,0.8158,,,,,,,,0,18,18,155,1
,,,,,,,,,,,,,,,,,6117fb98735b8d5cc5e705a2,51,2022-02-12_11h35.39.562,lexical_decision_task_DD_L2,2021.2.3,MacIntel,60.0024001,,,,,,,,,,,0.844,1,,,,,,,,,,,,,,,,,,,,,,,,-0.018369276,-0.366932644,0,0,0,,,,,,,FALCON,LB,m,y,./images/FALCONLB.png,,,,,,,,,,,,,,,,,,,,,m,1,0.844,,,,,,,,0,19,19,28,1
,,,,,,,,,,,,,,,,,6117fb98735b8d5cc5e705a2,51,2022-02-12_11h35.39.562,lexical_decision_task_DD_L2,2021.2.3,MacIntel,60.0024001,,,,,,,,,,,1.1772,1,,,,,,,,,,,,,,,,,,,,,,,,-0.018369276,-0.366932644,0,0,0,,,,,,,BROOM,HB,z,y,./images/BROOMHB.png,,,,,,,,,,,,,,,,,,,,,z,1,1.1772,,,,,,,,0,20,20,162,1
,,,,,,,,,,,,,,,,,6117fb98735b8d5cc5e705a2,51,2022-02-12_11h35.39.562,lexical_decision_task_DD_L2,2021.2.3,MacIntel,60.0024001,,,,,,,,,,,1.7615,1,,,,,,,,,,,,,,,,,,,,,,,,-0.018369276,-0.366932644,0,0,0,,,,,,,FLASK,HB,z,y,./images/FLASKHB.png,,,,,,,,,,,,,,,,,,,,,z,1,1.7615,,,,,,,,0,21,21,156,1
,,,,,,,,,,,,,,,,,6117fb98735b8d5cc5e705a2,51,2022-02-12_11h35.39.562,lexical_decision_task_DD_L2,2021.2.3,MacIntel,60.0024001,,,,,,,,,,,1.5125,1,,,,,,,,,,,,,,,,,,,,,,,,-0.018369276,-0.366932644,0,0,0,,,,,,,STOOL,LB,z,y,./images/STOOLLB.png,,,,,,,,,,,,,,,,,,,,,z,1,1.5125,,,,,,,,0,22,22,127,1
,,,,,,,,,,,,,,,,,6117fb98735b8d5cc5e705a2,51,2022-02-12_11h35.39.562,lexical_decision_task_DD_L2,2021.2.3,MacIntel,60.0024001,,,,,,,,,,,0.7122,1,,,,,,,,,,,,,,,,,,,,,,,,-0.018369276,-0.366932644,0,0,0,,,,,,,MOOSE,HB,m,y,./images/MOOSEHB.png,,,,,,,,,,,,,,,,,,,,,m,1,0.7122,,,,,,,,0,23,23,57,1
,,,,,,,,,,,,,,,,,6117fb98735b8d5cc5e705a2,51,2022-02-12_11h35.39.562,lexical_decision_task_DD_L2,2021.2.3,MacIntel,60.0024001,,,,,,,,,,,0.7317,0,,,,,,,,,,,,,,,,,,,,,,,,-0.018369276,-0.366932644,0,0,0,,,,,,,BAKER,HB,z,y,./images/BAKERHB.png,,,,,,,,,,,,,,,,,,,,,m,0,0.7317,,,,,,,,0,24,24,147,1
,,,,,,,,,,,,,,,,,6117fb98735b8d5cc5e705a2,51,2022-02-12_11h35.39.562,lexical_decision_task_DD_L2,2021.2.3,MacIntel,60.0024001,,,,,,,,,,,1.5484,1,,,,,,,,,,,,,,,,,,,,,,,,-0.018369276,-0.366932644,0,0,0,,,,,,,SKIING,C,m,y,./images/SKIING.png,,,,,,,,,,,,,,,,,,,,,m,1,1.5484,,,,,,,,0,25,25,17,1
,,,,,,,,,,,,,,,,,6117fb98735b8d5cc5e705a2,51,2022-02-12_11h35.39.562,lexical_decision_task_DD_L2,2021.2.3,MacIntel,60.0024001,,,,,,,,,,,6.0281,0,,,,,,,,,,,,,,,,,,,,,,,,-0.018369276,-0.366932644,0,0,0,,,,,,,BEARD,C,m,y,./images/BEARD.png,,,,,,,,,,,,,,,,,,,,,z,0,6.0281,,,,,,,,0,26,26,2,1
,,,,,,,,,,,,,,,,,6117fb98735b8d5cc5e705a2,51,2022-02-12_11h35.39.562,lexical_decision_task_DD_L2,2021.2.3,MacIntel,60.0024001,,,,,,,,,,,0.9953,1,,,,,,,,,,,,,,,,,,,,,,,,-0.018369276,-0.366932644,0,0,0,,,,,,,MAMMAL,C,z,y,./images/MAMMAL.png,,,,,,,,,,,,,,,,,,,,,z,1,0.9953,,,,,,,,0,27,27,146,1
,,,,,,,,,,,,,,,,,6117fb98735b8d5cc5e705a2,51,2022-02-12_11h35.39.562,lexical_decision_task_DD_L2,2021.2.3,MacIntel,60.0024001,,,,,,,,,,,0.9286,1,,,,,,,,,,,,,,,,,,,,,,,,-0.018369276,-0.366932644,0,0,0,,,,,,,WALRUS,C,m,y,./images/WALRUS.png,,,,,,,,,,,,,,,,,,,,,m,1,0.9286,,,,,,,,0,28,28,23,1
,,,,,,,,,,,,,,,,,6117fb98735b8d5cc5e705a2,51,2022-02-12_11h35.39.562,lexical_decision_task_DD_L2,2021.2.3,MacIntel,60.0024001,,,,,,,,,,,0.9286,1,,,,,,,,,,,,,,,,,,,,,,,,-0.018369276,-0.366932644,0,0,0,,,,,,,ENGINE,C,z,y,./images/ENGINE.png,,,,,,,,,,,,,,,,,,,,,z,1,0.9286,,,,,,,,0,29,29,122,1
,,,,,,,,,,,,,,,,,6117fb98735b8d5cc5e705a2,51,2022-02-12_11h35.39.562,lexical_decision_task_DD_L2,2021.2.3,MacIntel,60.0024001,,,,,,,,,,,1.0131,1,,,,,,,,,,,,,,,,,,,,,,,,-0.018369276,-0.366932644,0,0,0,,,,,,,BANNER,LB,m,y,./images/BANNERLB.png,,,,,,,,,,,,,,,,,,,,,m,1,1.0131,,,,,,,,0,30,30,52,1
,,,,,,,,,,,,,,,,,6117fb98735b8d5cc5e705a2,51,2022-02-12_11h35.39.562,lexical_decision_task_DD_L2,2021.2.3,MacIntel,60.0024001,,,,,,,,,,,3.213,1,,,,,,,,,,,,,,,,,,,,,,,,-0.018369276,-0.366932644,0,0,0,,,,,,,PILOT,C,z,y,./images/PILOT.png,,,,,,,,,,,,,,,,,,,,,z,1,3.213,,,,,,,,0,31,31,134,1
,,,,,,,,,,,,,,,,,6117fb98735b8d5cc5e705a2,51,2022-02-12_11h35.39.562,lexical_decision_task_DD_L2,2021.2.3,MacIntel,60.0024001,,,,,,,,,,,3.3367,0,,,,,,,,,,,,,,,,,,,,,,,,-0.018369276,-0.366932644,0,0,0,,,,,,,SWEAT,HB,m,y,./images/SWEATHB.png,,,,,,,,,,,,,,,,,,,,,z,0,3.3367,,,,,,,,0,32,32,66,1
,,,,,,,,,,,,,,,,,6117fb98735b8d5cc5e705a2,51,2022-02-12_11h35.39.562,lexical_decision_task_DD_L2,2021.2.3,MacIntel,60.0024001,,,,,,,,,,,0.851,1,,,,,,,,,,,,,,,,,,,,,,,,-0.018369276,-0.366932644,0,0,0,,,,,,,JUNGLE,C,m,y,./images/JUNGLE.png,,,,,,,,,,,,,,,,,,,,,m,1,0.851,,,,,,,,0,33,33,83,1
,,,,,,,,,,,,,,,,,6117fb98735b8d5cc5e705a2,51,2022-02-12_11h35.39.562,lexical_decision_task_DD_L2,2021.2.3,MacIntel,60.0024001,,,,,,,,,,,0.8505,1,,,,,,,,,,,,,,,,,,,,,,,,-0.018369276,-0.366932644,0,0,0,,,,,,,PLANK,LB,m,y,./images/PLANKLB.png,,,,,,,,,,,,,,,,,,,,,m,1,0.8505,,,,,,,,0,34,34,1,1
,,,,,,,,,,,,,,,,,6117fb98735b8d5cc5e705a2,51,2022-02-12_11h35.39.562,lexical_decision_task_DD_L2,2021.2.3,MacIntel,60.0024001,,,,,,,,,,,1.1005,0,,,,,,,,,,,,,,,,,,,,,,,,-0.018369276,-0.366932644,0,0,0,,,,,,,PARCEL,HB,z,y,./images/PARCELHB.png,,,,,,,,,,,,,,,,,,,,,m,0,1.1005,,,,,,,,0,35,35,102,1
,,,,,,,,,,,,,,,,,6117fb98735b8d5cc5e705a2,51,2022-02-12_11h35.39.562,lexical_decision_task_DD_L2,2021.2.3,MacIntel,60.0024001,,,,,,,,,,,1.2622,1,,,,,,,,,,,,,,,,,,,,,,,,-0.018369276,-0.366932644,0,0,0,,,,,,,TIGER,LB,z,y,./images/TIGERLB.png,,,,,,,,,,,,,,,,,,,,,z,1,1.2622,,,,,,,,0,36,36,121,1
,,,,,,,,,,,,,,,,,6117fb98735b8d5cc5e705a2,51,2022-02-12_11h35.39.562,lexical_decision_task_DD_L2,2021.2.3,MacIntel,60.0024001,,,,,,,,,,,1.2094,0,,,,,,,,,,,,,,,,,,,,,,,,-0.018369276,-0.366932644,0,0,0,,,,,,,MOTOR,LB,m,y,./images/MOTORLB.png,,,,,,,,,,,,,,,,,,,,,z,0,1.2094,,,,,,,,0,37,37,13,1
,,,,,,,,,,,,,,,,,6117fb98735b8d5cc5e705a2,51,2022-02-12_11h35.39.562,lexical_decision_task_DD_L2,2021.2.3,MacIntel,60.0024001,,,,,,,,,,,0.7957,1,,,,,,,,,,,,,,,,,,,,,,,,-0.018369276,-0.366932644,0,0,0,,,,,,,BERRY,C,m,y,./images/BERRY.png,,,,,,,,,,,,,,,,,,,,,m,1,0.7957,,,,,,,,0,38,38,47,1
,,,,,,,,,,,,,,,,,6117fb98735b8d5cc5e705a2,51,2022-02-12_11h35.39.562,lexical_decision_task_DD_L2,2021.2.3,MacIntel,60.0024001,,,,,,,,,,,1.296,0,,,,,,,,,,,,,,,,,,,,,,,,-0.018369276,-0.366932644,0,0,0,,,,,,,CRUST,LB,m,y,./images/CRUSTLB.png,,,,,,,,,,,,,,,,,,,,,z,0,1.296,,,,,,,,0,39,39,79,1
,,,,,,,,,,,,,,,,,6117fb98735b8d5cc5e705a2,51,2022-02-12_11h35.39.562,lexical_decision_task_DD_L2,2021.2.3,MacIntel,60.0024001,,,,,,,,,,,0.9485,0,,,,,,,,,,,,,,,,,,,,,,,,-0.018369276,-0.366932644,0,0,0,,,,,,,SNACK,LB,m,y,./images/SNACKLB.png,,,,,,,,,,,,,,,,,,,,,z,0,0.9485,,,,,,,,0,40,40,73,1
,,,,,,,,,,,,,,,,,6117fb98735b8d5cc5e705a2,51,2022-02-12_11h35.39.562,lexical_decision_task_DD_L2,2021.2.3,MacIntel,60.0024001,,,,,,,,,,,2.2049,0,,,,,,,,,,,,,,,,,,,,,,,,0.003548584,-0.396678331,1,0,0,,,,,,,MOSQUE,LB,m,y,./images/MOSQUELB.png,break_done_button,,,,,,,,,,,,,,,,,,,,z,0,2.2049,,,,,,,,0,41,41,43,1
,,,,,,,,,,,,,,,,,6117fb98735b8d5cc5e705a2,51,2022-02-12_11h35.39.562,lexical_decision_task_DD_L2,2021.2.3,MacIntel,60.0024001,,,,,,,,,,,1.5073,1,,,,,,,,,,,,,,,,,,,,,,,,0.003548584,-0.396678331,0,0,0,,,,,,,MELON,LB,m,y,./images/MELONLB.png,,,,,,,,,,,,,,,,,,,,,m,1,1.5073,,,,,,,,0,42,42,22,1
,,,,,,,,,,,,,,,,,6117fb98735b8d5cc5e705a2,51,2022-02-12_11h35.39.562,lexical_decision_task_DD_L2,2021.2.3,MacIntel,60.0024001,,,,,,,,,,,1.0889,1,,,,,,,,,,,,,,,,,,,,,,,,0.003548584,-0.396678331,0,0,0,,,,,,,STREAM,C,z,y,./images/STREAM.png,,,,,,,,,,,,,,,,,,,,,z,1,1.0889,,,,,,,,0,43,43,125,1
,,,,,,,,,,,,,,,,,6117fb98735b8d5cc5e705a2,51,2022-02-12_11h35.39.562,lexical_decision_task_DD_L2,2021.2.3,MacIntel,60.0024001,,,,,,,,,,,1.4048,0,,,,,,,,,,,,,,,,,,,,,,,,0.003548584,-0.396678331,0,0,0,,,,,,,FENCE,C,z,y,./images/FENCE.png,,,,,,,,,,,,,,,,,,,,,m,0,1.4048,,,,,,,,0,44,44,98,1
,,,,,,,,,,,,,,,,,6117fb98735b8d5cc5e705a2,51,2022-02-12_11h35.39.562,lexical_decision_task_DD_L2,2021.2.3,MacIntel,60.0024001,,,,,,,,,,,1.9963,1,,,,,,,,,,,,,,,,,,,,,,,,-0.025694105,-0.408858439,0,0,0,,,,,,,CARPET,C,m,y,./images/CARPET.png,,,,,,,,,,,,,,,,,,,,,m,1,1.9963,,,,,,,,0,45,45,53,1
,,,,,,,,,,,,,,,,,6117fb98735b8d5cc5e705a2,51,2022-02-12_11h35.39.562,lexical_decision_task_DD_L2,2021.2.3,MacIntel,60.0024001,,,,,,,,,,,0.8346,1,,,,,,,,,,,,,,,,,,,,,,,,-0.025694105,-0.408858439,0,0,0,,,,,,,SAILOR,LB,m,y,./images/SAILORLB.png,,,,,,,,,,,,,,,,,,,,,m,1,0.8346,,,,,,,,0,46,46,67,1
,,,,,,,,,,,,,,,,,6117fb98735b8d5cc5e705a2,51,2022-02-12_11h35.39.562,lexical_decision_task_DD_L2,2021.2.3,MacIntel,60.0024001,,,,,,,,,,,1.0622,1,,,,,,,,,,,,,,,,,,,,,,,,-0.025694105,-0.408858439,0,0,0,,,,,,,TULIP,C,m,y,./images/TULIP.png,,,,,,,,,,,,,,,,,,,,,m,1,1.0622,,,,,,,,0,47,47,8,1
,,,,,,,,,,,,,,,,,6117fb98735b8d5cc5e705a2,51,2022-02-12_11h35.39.562,lexical_decision_task_DD_L2,2021.2.3,MacIntel,60.0024001,,,,,,,,,,,0.77,1,,,,,,,,,,,,,,,,,,,,,,,,-0.025694105,-0.408858439,0,0,0,,,,,,,CLOUD,C,z,y,./images/CLOUD.png,,,,,,,,,,,,,,,,,,,,,z,1,0.77,,,,,,,,0,48,48,110,1
,,,,,,,,,,,,,,,,,6117fb98735b8d5cc5e705a2,51,2022-02-12_11h35.39.562,lexical_decision_task_DD_L2,2021.2.3,MacIntel,60.0024001,,,,,,,,,,,0.7715,1,,,,,,,,,,,,,,,,,,,,,,,,-0.027358534,-0.406965535,0,0,0,,,,,,,LITTER,HB,m,y,./images/LITTERHB.png,,,,,,,,,,,,,,,,,,,,,m,1,0.7715,,,,,,,,0,49,49,78,1
,,,,,,,,,,,,,,,,,6117fb98735b8d5cc5e705a2,51,2022-02-12_11h35.39.562,lexical_decision_task_DD_L2,2021.2.3,MacIntel,60.0024001,,,,,,,,,,,0.7535,1,,,,,,,,,,,,,,,,,,,,,,,,-0.025502726,-0.412622816,0,0,0,,,,,,,PAINT,LB,m,y,./images/PAINTLB.png,,,,,,,,,,,,,,,,,,,,,m,1,0.7535,,,,,,,,0,50,50,7,1
,,,,,,,,,,,,,,,,,6117fb98735b8d5cc5e705a2,51,2022-02-12_11h35.39.562,lexical_decision_task_DD_L2,2021.2.3,MacIntel,60.0024001,,,,,,,,,,,0.757,0,,,,,,,,,,,,,,,,,,,,,,,,-0.020556369,-0.410108846,0,0,0,,,,,,,BURIAL,C,m,y,./images/BURIAL.png,,,,,,,,,,,,,,,,,,,,,z,0,0.757,,,,,,,,0,51,51,59,1
,,,,,,,,,,,,,,,,,6117fb98735b8d5cc5e705a2,51,2022-02-12_11h35.39.562,lexical_decision_task_DD_L2,2021.2.3,MacIntel,60.0024001,,,,,,,,,,,0.813,1,,,,,,,,,,,,,,,,,,,,,,,,-0.021068793,-0.410108846,0,0,0,,,,,,,PACKET,C,m,y,./images/PACKET.png,,,,,,,,,,,,,,,,,,,,,m,1,0.813,,,,,,,,0,52,52,56,1
,,,,,,,,,,,,,,,,,6117fb98735b8d5cc5e705a2,51,2022-02-12_11h35.39.562,lexical_decision_task_DD_L2,2021.2.3,MacIntel,60.0024001,,,,,,,,,,,1.1872,1,,,,,,,,,,,,,,,,,,,,,,,,-0.021068793,-0.409588894,0,0,0,,,,,,,CANOE,LB,z,y,./images/CANOELB.png,,,,,,,,,,,,,,,,,,,,,z,1,1.1872,,,,,,,,0,53,53,142,1
,,,,,,,,,,,,,,,,,6117fb98735b8d5cc5e705a2,51,2022-02-12_11h35.39.562,lexical_decision_task_DD_L2,2021.2.3,MacIntel,60.0024001,,,,,,,,,,,1.3549,0,,,,,,,,,,,,,,,,,,,,,,,,-0.021068793,-0.409588894,0,0,0,,,,,,,STORM,HB,m,y,./images/STORMHB.png,,,,,,,,,,,,,,,,,,,,,z,0,1.3549,,,,,,,,0,54,54,30,1
,,,,,,,,,,,,,,,,,6117fb98735b8d5cc5e705a2,51,2022-02-12_11h35.39.562,lexical_decision_task_DD_L2,2021.2.3,MacIntel,60.0024001,,,,,,,,,,,0.9044,1,,,,,,,,,,,,,,,,,,,,,,,,-0.021068793,-0.409588894,0,0,0,,,,,,,TORCH,C,m,y,./images/TORCH.png,,,,,,,,,,,,,,,,,,,,,m,1,0.9044,,,,,,,,0,55,55,68,1
,,,,,,,,,,,,,,,,,6117fb98735b8d5cc5e705a2,51,2022-02-12_11h35.39.562,lexical_decision_task_DD_L2,2021.2.3,MacIntel,60.0024001,,,,,,,,,,,0.8963,1,,,,,,,,,,,,,,,,,,,,,,,,-0.021068793,-0.408815443,0,0,0,,,,,,,RHINO,HB,m,y,./images/RHINOHB.png,,,,,,,,,,,,,,,,,,,,,m,1,0.8963,,,,,,,,0,56,56,9,1
,,,,,,,,,,,,,,,,,6117fb98735b8d5cc5e705a2,51,2022-02-12_11h35.39.562,lexical_decision_task_DD_L2,2021.2.3,MacIntel,60.0024001,,,,,,,,,,,1.4114,0,,,,,,,,,,,,,,,,,,,,,,,,-0.021068793,-0.406320326,0,0,0,,,,,,,GLOVE,LB,z,y,./images/GLOVELB.png,,,,,,,,,,,,,,,,,,,,,m,0,1.4114,,,,,,,,0,57,57,157,1
,,,,,,,,,,,,,,,,,6117fb98735b8d5cc5e705a2,51,2022-02-12_11h35.39.562,lexical_decision_task_DD_L2,2021.2.3,MacIntel,60.0024001,,,,,,,,,,,0.8118,1,,,,,,,,,,,,,,,,,,,,,,,,-0.021068793,-0.406064182,0,0,0,,,,,,,MIDGET,LB,z,y,./images/MIDGETLB.png,,,,,,,,,,,,,,,,,,,,,z,1,0.8118,,,,,,,,0,58,58,160,1
,,,,,,,,,,,,,,,,,6117fb98735b8d5cc5e705a2,51,2022-02-12_11h35.39.562,lexical_decision_task_DD_L2,2021.2.3,MacIntel,60.0024001,,,,,,,,,,,0.9133,0,,,,,,,,,,,,,,,,,,,,,,,,-0.021068793,-0.406064182,0,0,0,,,,,,,POSTER,C,z,y,./images/POSTER.png,,,,,,,,,,,,,,,,,,,,,m,0,0.9133,,,,,,,,0,59,59,137,1
,,,,,,,,,,,,,,,,,6117fb98735b8d5cc5e705a2,51,2022-02-12_11h35.39.562,lexical_decision_task_DD_L2,2021.2.3,MacIntel,60.0024001,,,,,,,,,,,0.8669,0,,,,,,,,,,,,,,,,,,,,,,,,-0.021581014,-0.405777452,0,0,0,,,,,,,THROAT,HB,m,y,./images/THROATHB.png,,,,,,,,,,,,,,,,,,,,,z,0,0.8669,,,,,,,,0,60,60,36,1
,,,,,,,,,,,,,,,,,6117fb98735b8d5cc5e705a2,51,2022-02-12_11h35.39.562,lexical_decision_task_DD_L2,2021.2.3,MacIntel,60.0024001,,,,,,,,,,,0.6788,1,,,,,,,,,,,,,,,,,,,,,,,,-0.021581014,-0.405777452,0,0,0,,,,,,,NOOSE,HB,m,y,./images/NOOSEHB.png,,,,,,,,,,,,,,,,,,,,,m,1,0.6788,,,,,,,,0,61,61,72,1
,,,,,,,,,,,,,,,,,6117fb98735b8d5cc5e705a2,51,2022-02-12_11h35.39.562,lexical_decision_task_DD_L2,2021.2.3,MacIntel,60.0024001,,,,,,,,,,,0.7683,1,,,,,,,,,,,,,,,,,,,,,,,,-0.021581014,-0.405777452,0,0,0,,,,,,,LADDER,C,m,y,./images/LADDER.png,,,,,,,,,,,,,,,,,,,,,m,1,0.7683,,,,,,,,0,62,62,38,1
,,,,,,,,,,,,,,,,,6117fb98735b8d5cc5e705a2,51,2022-02-12_11h35.39.562,lexical_decision_task_DD_L2,2021.2.3,MacIntel,60.0024001,,,,,,,,,,,0.7852,1,,,,,,,,,,,,,,,,,,,,,,,,-0.021581014,-0.405265232,0,0,0,,,,,,,PURSE,C,m,y,./images/PURSE.png,,,,,,,,,,,,,,,,,,,,,m,1,0.7852,,,,,,,,0,63,63,62,1
,,,,,,,,,,,,,,,,,6117fb98735b8d5cc5e705a2,51,2022-02-12_11h35.39.562,lexical_decision_task_DD_L2,2021.2.3,MacIntel,60.0024001,,,,,,,,,,,1.2128,1,,,,,,,,,,,,,,,,,,,,,,,,-0.021581014,-0.405009155,0,0,0,,,,,,,TWINS,HB,m,y,./images/TWINSHB.png,,,,,,,,,,,,,,,,,,,,,m,1,1.2128,,,,,,,,0,64,64,60,1
,,,,,,,,,,,,,,,,,6117fb98735b8d5cc5e705a2,51,2022-02-12_11h35.39.562,lexical_decision_task_DD_L2,2021.2.3,MacIntel,60.0024001,,,,,,,,,,,0.7943,1,,,,,,,,,,,,,,,,,,,,,,,,-0.021581014,-0.405009155,0,0,0,,,,,,,SCREW,HB,m,y,./images/SCREWHB.png,,,,,,,,,,,,,,,,,,,,,m,1,0.7943,,,,,,,,0,65,65,24,1
,,,,,,,,,,,,,,,,,6117fb98735b8d5cc5e705a2,51,2022-02-12_11h35.39.562,lexical_decision_task_DD_L2,2021.2.3,MacIntel,60.0024001,,,,,,,,,,,1.3205,0,,,,,,,,,,,,,,,,,,,,,,,,-0.021581014,-0.404496935,0,0,0,,,,,,,WALNUT,HB,z,y,./images/WALNUTHB.png,,,,,,,,,,,,,,,,,,,,,m,0,1.3205,,,,,,,,0,66,66,84,1
,,,,,,,,,,,,,,,,,6117fb98735b8d5cc5e705a2,51,2022-02-12_11h35.39.562,lexical_decision_task_DD_L2,2021.2.3,MacIntel,60.0024001,,,,,,,,,,,0.8206,1,,,,,,,,,,,,,,,,,,,,,,,,-0.021581014,-0.404496935,0,0,0,,,,,,,FOLDER,HB,m,y,./images/FOLDERHB.png,,,,,,,,,,,,,,,,,,,,,m,1,0.8206,,,,,,,,0,67,67,42,1
,,,,,,,,,,,,,,,,,6117fb98735b8d5cc5e705a2,51,2022-02-12_11h35.39.562,lexical_decision_task_DD_L2,2021.2.3,MacIntel,60.0024001,,,,,,,,,,,1.2481,0,,,,,,,,,,,,,,,,,,,,,,,,-0.021581014,-0.403984714,0,0,0,,,,,,,COOKER,HB,m,y,./images/COOKERHB.png,,,,,,,,,,,,,,,,,,,,,z,0,1.2481,,,,,,,,0,68,68,69,1
,,,,,,,,,,,,,,,,,6117fb98735b8d5cc5e705a2,51,2022-02-12_11h35.39.562,lexical_decision_task_DD_L2,2021.2.3,MacIntel,60.0024001,,,,,,,,,,,0.7975,1,,,,,,,,,,,,,,,,,,,,,,,,-0.02183709,-0.403984714,0,0,0,,,,,,,BRUSH,C,z,y,./images/BRUSH.png,,,,,,,,,,,,,,,,,,,,,z,1,0.7975,,,,,,,,0,69,69,143,1
,,,,,,,,,,,,,,,,,6117fb98735b8d5cc5e705a2,51,2022-02-12_11h35.39.562,lexical_decision_task_DD_L2,2021.2.3,MacIntel,60.0024001,,,,,,,,,,,1.2369,1,,,,,,,,,,,,,,,,,,,,,,,,-0.02183709,-0.403984714,0,0,0,,,,,,,STEAK,LB,z,y,./images/STEAKLB.png,,,,,,,,,,,,,,,,,,,,,z,1,1.2369,,,,,,,,0,70,70,115,1
,,,,,,,,,,,,,,,,,6117fb98735b8d5cc5e705a2,51,2022-02-12_11h35.39.562,lexical_decision_task_DD_L2,2021.2.3,MacIntel,60.0024001,,,,,,,,,,,1.1317,1,,,,,,,,,,,,,,,,,,,,,,,,-0.02183709,-0.403984714,0,0,0,,,,,,,SNAKE,LB,z,y,./images/SNAKELB.png,,,,,,,,,,,,,,,,,,,,,z,1,1.1317,,,,,,,,0,71,71,124,1
,,,,,,,,,,,,,,,,,6117fb98735b8d5cc5e705a2,51,2022-02-12_11h35.39.562,lexical_decision_task_DD_L2,2021.2.3,MacIntel,60.0024001,,,,,,,,,,,1.4122,0,,,,,,,,,,,,,,,,,,,,,,,,-0.02183709,-0.403984714,0,0,0,,,,,,,CHALK,LB,z,y,./images/CHALKLB.png,,,,,,,,,,,,,,,,,,,,,m,0,1.4122,,,,,,,,0,72,72,109,1
,,,,,,,,,,,,,,,,,6117fb98735b8d5cc5e705a2,51,2022-02-12_11h35.39.562,lexical_decision_task_DD_L2,2021.2.3,MacIntel,60.0024001,,,,,,,,,,,1.1303,0,,,,,,,,,,,,,,,,,,,,,,,,-0.022103814,-0.402917887,0,0,0,,,,,,,HAMMER,HB,z,y,./images/HAMMERHB.png,,,,,,,,,,,,,,,,,,,,,m,0,1.1303,,,,,,,,0,73,73,159,1
,,,,,,,,,,,,,,,,,6117fb98735b8d5cc5e705a2,51,2022-02-12_11h35.39.562,lexical_decision_task_DD_L2,2021.2.3,MacIntel,60.0024001,,,,,,,,,,,1.2125,1,,,,,,,,,,,,,,,,,,,,,,,,-0.022103814,-0.402917887,0,0,0,,,,,,,KIDNEY,HB,m,y,./images/KIDNEYHB.png,,,,,,,,,,,,,,,,,,,,,m,1,1.2125,,,,,,,,0,74,74,21,1
,,,,,,,,,,,,,,,,,6117fb98735b8d5cc5e705a2,51,2022-02-12_11h35.39.562,lexical_decision_task_DD_L2,2021.2.3,MacIntel,60.0024001,,,,,,,,,,,0.9003,0,,,,,,,,,,,,,,,,,,,,,,,,-0.021847805,-0.402917887,0,0,0,,,,,,,INFANT,LB,m,y,./images/INFANTLB.png,,,,,,,,,,,,,,,,,,,,,z,0,0.9003,,,,,,,,0,75,75,76,1
,,,,,,,,,,,,,,,,,6117fb98735b8d5cc5e705a2,51,2022-02-12_11h35.39.562,lexical_decision_task_DD_L2,2021.2.3,MacIntel,60.0024001,,,,,,,,,,,0.6498,1,,,,,,,,,,,,,,,,,,,,,,,,-0.021847805,-0.402917887,0,0,0,,,,,,,BLOKE,HB,z,y,./images/BLOKEHB.png,,,,,,,,,,,,,,,,,,,,,z,1,0.6498,,,,,,,,0,76,76,96,1
,,,,,,,,,,,,,,,,,6117fb98735b8d5cc5e705a2,51,2022-02-12_11h35.39.562,lexical_decision_task_DD_L2,2021.2.3,MacIntel,60.0024001,,,,,,,,,,,2.1571,0,,,,,,,,,,,,,,,,,,,,,,,,-0.021847805,-0.402917887,0,0,0,,,,,,,BIRTH,LB,m,y,./images/BIRTHLB.png,,,,,,,,,,,,,,,,,,,,,z,0,2.1571,,,,,,,,0,77,77,37,1
,,,,,,,,,,,,,,,,,6117fb98735b8d5cc5e705a2,51,2022-02-12_11h35.39.562,lexical_decision_task_DD_L2,2021.2.3,MacIntel,60.0024001,,,,,,,,,,,1.1369,1,,,,,,,,,,,,,,,,,,,,,,,,-0.021847805,-0.402917887,0,0,0,,,,,,,BARREL,C,m,y,./images/BARREL.png,,,,,,,,,,,,,,,,,,,,,m,1,1.1369,,,,,,,,0,78,78,32,1
,,,,,,,,,,,,,,,,,6117fb98735b8d5cc5e705a2,51,2022-02-12_11h35.39.562,lexical_decision_task_DD_L2,2021.2.3,MacIntel,60.0024001,,,,,,,,,,,0.9802,0,,,,,,,,,,,,,,,,,,,,,,,,-0.021847805,-0.402917887,0,0,0,,,,,,,LAGOON,C,z,y,./images/LAGOON.png,,,,,,,,,,,,,,,,,,,,,m,0,0.9802,,,,,,,,0,79,79,131,1
,,,,,,,,,,,,,,,,,6117fb98735b8d5cc5e705a2,51,2022-02-12_11h35.39.562,lexical_decision_task_DD_L2,2021.2.3,MacIntel,60.0024001,,,,,,,,,,,1.3561,1,,,,,,,,,,,,,,,,,,,,,,,,-0.021847805,-0.402917887,0,0,0,,,,,,,MONKEY,HB,z,y,./images/MONKEYHB.png,,,,,,,,,,,,,,,,,,,,,z,1,1.3561,,,,,,,,0,80,80,129,1
,,,,,,,,,,,,,,,,,6117fb98735b8d5cc5e705a2,51,2022-02-12_11h35.39.562,lexical_decision_task_DD_L2,2021.2.3,MacIntel,60.0024001,,,,,,,,,,,0.805,1,,,,,,,,,,,,,,,,,,,,,,,,-0.021847805,-0.402917887,0,0,0,,,,,,,CLOWN,LB,z,y,./images/CLOWNLB.png,,,,,,,,,,,,,,,,,,,,,z,1,0.805,,,,,,,,0,81,81,106,1
,,,,,,,,,,,,,,,,,6117fb98735b8d5cc5e705a2,51,2022-02-12_11h35.39.562,lexical_decision_task_DD_L2,2021.2.3,MacIntel,60.0024001,,,,,,,,,,,0.8388,1,,,,,,,,,,,,,,,,,,,,,,,,-0.021847805,-0.402917887,0,0,0,,,,,,,SAUNA,HB,z,y,./images/SAUNAHB.png,,,,,,,,,,,,,,,,,,,,,z,1,0.8388,,,,,,,,0,82,82,117,1
,,,,,,,,,,,,,,,,,6117fb98735b8d5cc5e705a2,51,2022-02-12_11h35.39.562,lexical_decision_task_DD_L2,2021.2.3,MacIntel,60.0024001,,,,,,,,,,,0.7632,1,,,,,,,,,,,,,,,,,,,,,,,,-0.023691271,-0.402917887,1,0,0,,,,,,,TOWEL,LB,z,y,./images/TOWELLB.png,break_done_button,,,,,,,,,,,,,,,,,,,,z,1,0.7632,,,,,,,,0,83,83,85,1
,,,,,,,,,,,,,,,,,6117fb98735b8d5cc5e705a2,51,2022-02-12_11h35.39.562,lexical_decision_task_DD_L2,2021.2.3,MacIntel,60.0024001,,,,,,,,,,,1.1464,0,,,,,,,,,,,,,,,,,,,,,,,,-0.026701931,-0.402057563,0,0,0,,,,,,,FERRY,HB,z,y,./images/FERRYHB.png,,,,,,,,,,,,,,,,,,,,,m,0,1.1464,,,,,,,,0,84,84,141,1
,,,,,,,,,,,,,,,,,6117fb98735b8d5cc5e705a2,51,2022-02-12_11h35.39.562,lexical_decision_task_DD_L2,2021.2.3,MacIntel,60.0024001,,,,,,,,,,,1.7316,1,,,,,,,,,,,,,,,,,,,,,,,,-0.026445855,-0.402057563,0,0,0,,,,,,,DIVER,HB,z,y,./images/DIVERHB.png,,,,,,,,,,,,,,,,,,,,,z,1,1.7316,,,,,,,,0,85,85,93,1
,,,,,,,,,,,,,,,,,6117fb98735b8d5cc5e705a2,51,2022-02-12_11h35.39.562,lexical_decision_task_DD_L2,2021.2.3,MacIntel,60.0024001,,,,,,,,,,,1.1626,1,,,,,,,,,,,,,,,,,,,,,,,,-0.026445855,-0.402057563,0,0,0,,,,,,,SWING,LB,m,y,./images/SWINGLB.png,,,,,,,,,,,,,,,,,,,,,m,1,1.1626,,,,,,,,0,86,86,40,1
,,,,,,,,,,,,,,,,,6117fb98735b8d5cc5e705a2,51,2022-02-12_11h35.39.562,lexical_decision_task_DD_L2,2021.2.3,MacIntel,60.0024001,,,,,,,,,,,0.7554,1,,,,,,,,,,,,,,,,,,,,,,,,-0.026445855,-0.402057563,0,0,0,,,,,,,TRIPOD,HB,m,y,./images/TRIPODHB.png,,,,,,,,,,,,,,,,,,,,,m,1,0.7554,,,,,,,,0,87,87,54,1
,,,,,,,,,,,,,,,,,6117fb98735b8d5cc5e705a2,51,2022-02-12_11h35.39.562,lexical_decision_task_DD_L2,2021.2.3,MacIntel,60.0024001,,,,,,,,,,,1.1993,0,,,,,,,,,,,,,,,,,,,,,,,,-0.026445855,-0.402057563,0,0,0,,,,,,,SQUARE,HB,m,y,./images/SQUAREHB.png,,,,,,,,,,,,,,,,,,,,,z,0,1.1993,,,,,,,,0,88,88,6,1
,,,,,,,,,,,,,,,,,6117fb98735b8d5cc5e705a2,51,2022-02-12_11h35.39.562,lexical_decision_task_DD_L2,2021.2.3,MacIntel,60.0024001,,,,,,,,,,,0.8338,1,,,,,,,,,,,,,,,,,,,,,,,,-0.026445855,-0.402057563,0,0,0,,,,,,,CHAIN,HB,z,y,./images/CHAINHB.png,,,,,,,,,,,,,,,,,,,,,z,1,0.8338,,,,,,,,0,89,89,126,1
,,,,,,,,,,,,,,,,,6117fb98735b8d5cc5e705a2,51,2022-02-12_11h35.39.562,lexical_decision_task_DD_L2,2021.2.3,MacIntel,60.0024001,,,,,,,,,,,1.0976,0,,,,,,,,,,,,,,,,,,,,,,,,-0.026445855,-0.402057563,0,0,0,,,,,,,MAGGOT,HB,m,y,./images/MAGGOTHB.png,,,,,,,,,,,,,,,,,,,,,z,0,1.0976,,,,,,,,0,90,90,33,1
,,,,,,,,,,,,,,,,,6117fb98735b8d5cc5e705a2,51,2022-02-12_11h35.39.562,lexical_decision_task_DD_L2,2021.2.3,MacIntel,60.0024001,,,,,,,,,,,0.946,1,,,,,,,,,,,,,,,,,,,,,,,,-0.026445855,-0.402057563,0,0,0,,,,,,,HOCKEY,C,z,y,./images/HOCKEY.png,,,,,,,,,,,,,,,,,,,,,z,1,0.946,,,,,,,,0,91,91,116,1
,,,,,,,,,,,,,,,,,6117fb98735b8d5cc5e705a2,51,2022-02-12_11h35.39.562,lexical_decision_task_DD_L2,2021.2.3,MacIntel,60.0024001,,,,,,,,,,,1.3512,0,,,,,,,,,,,,,,,,,,,,,,,,-0.026445855,-0.402057563,0,0,0,,,,,,,SHORE,HB,m,y,./images/SHOREHB.png,,,,,,,,,,,,,,,,,,,,,z,0,1.3512,,,,,,,,0,92,92,12,1
,,,,,,,,,,,,,,,,,6117fb98735b8d5cc5e705a2,51,2022-02-12_11h35.39.562,lexical_decision_task_DD_L2,2021.2.3,MacIntel,60.0024001,,,,,,,,,,,1.7057,0,,,,,,,,,,,,,,,,,,,,,,,,-0.026445855,-0.402057563,0,0,0,,,,,,,SUNSET,LB,m,y,./images/SUNSETLB.png,,,,,,,,,,,,,,,,,,,,,z,0,1.7057,,,,,,,,0,93,93,82,1
,,,,,,,,,,,,,,,,,6117fb98735b8d5cc5e705a2,51,2022-02-12_11h35.39.562,lexical_decision_task_DD_L2,2021.2.3,MacIntel,60.0024001,,,,,,,,,,,1.0405,1,,,,,,,,,,,,,,,,,,,,,,,,-0.026445855,-0.402057563,0,0,0,,,,,,,BABOON,LB,m,y,./images/BABOONLB.png,,,,,,,,,,,,,,,,,,,,,m,1,1.0405,,,,,,,,0,94,94,58,1
,,,,,,,,,,,,,,,,,6117fb98735b8d5cc5e705a2,51,2022-02-12_11h35.39.562,lexical_decision_task_DD_L2,2021.2.3,MacIntel,60.0024001,,,,,,,,,,,1.3817,0,,,,,,,,,,,,,,,,,,,,,,,,-0.026445855,-0.402057563,0,0,0,,,,,,,BOILER,HB,z,y,./images/BOILERHB.png,,,,,,,,,,,,,,,,,,,,,m,0,1.3817,,,,,,,,0,95,95,120,1
,,,,,,,,,,,,,,,,,6117fb98735b8d5cc5e705a2,51,2022-02-12_11h35.39.562,lexical_decision_task_DD_L2,2021.2.3,MacIntel,60.0024001,,,,,,,,,,,0.7262,1,,,,,,,,,,,,,,,,,,,,,,,,-0.026445855,-0.402057563,0,0,0,,,,,,,STAIN,HB,z,y,./images/STAINHB.png,,,,,,,,,,,,,,,,,,,,,z,1,0.7262,,,,,,,,0,96,96,90,1
,,,,,,,,,,,,,,,,,6117fb98735b8d5cc5e705a2,51,2022-02-12_11h35.39.562,lexical_decision_task_DD_L2,2021.2.3,MacIntel,60.0024001,,,,,,,,,,,1.0384,1,,,,,,,,,,,,,,,,,,,,,,,,-0.026445855,-0.402057563,0,0,0,,,,,,,LIZARD,C,m,y,./images/LIZARD.png,,,,,,,,,,,,,,,,,,,,,m,1,1.0384,,,,,,,,0,97,97,44,1
,,,,,,,,,,,,,,,,,6117fb98735b8d5cc5e705a2,51,2022-02-12_11h35.39.562,lexical_decision_task_DD_L2,2021.2.3,MacIntel,60.0024001,,,,,,,,,,,0.7397,1,,,,,,,,,,,,,,,,,,,,,,,,-0.026445855,-0.402057563,0,0,0,,,,,,,ARROW,HB,z,y,./images/ARROWHB.png,,,,,,,,,,,,,,,,,,,,,z,1,0.7397,,,,,,,,0,98,98,153,1
,,,,,,,,,,,,,,,,,6117fb98735b8d5cc5e705a2,51,2022-02-12_11h35.39.562,lexical_decision_task_DD_L2,2021.2.3,MacIntel,60.0024001,,,,,,,,,,,0.8128,1,,,,,,,,,,,,,,,,,,,,,,,,-0.026445855,-0.402057563,0,0,0,,,,,,,GARDEN,LB,z,y,./images/GARDENLB.png,,,,,,,,,,,,,,,,,,,,,z,1,0.8128,,,,,,,,0,99,99,94,1
,,,,,,,,,,,,,,,,,6117fb98735b8d5cc5e705a2,51,2022-02-12_11h35.39.562,lexical_decision_task_DD_L2,2021.2.3,MacIntel,60.0024001,,,,,,,,,,,0.7323,1,,,,,,,,,,,,,,,,,,,,,,,,-0.026445855,-0.402057563,0,0,0,,,,,,,WHISKY,C,z,y,./images/WHISKY.png,,,,,,,,,,,,,,,,,,,,,z,1,0.7323,,,,,,,,0,100,100,167,1
,,,,,,,,,,,,,,,,,6117fb98735b8d5cc5e705a2,51,2022-02-12_11h35.39.562,lexical_decision_task_DD_L2,2021.2.3,MacIntel,60.0024001,,,,,,,,,,,0.7807,1,,,,,,,,,,,,,,,,,,,,,,,,-0.026445855,-0.402057563,0,0,0,,,,,,,CLIFF,C,z,y,./images/CLIFF.png,,,,,,,,,,,,,,,,,,,,,z,1,0.7807,,,,,,,,0,101,101,92,1
,,,,,,,,,,,,,,,,,6117fb98735b8d5cc5e705a2,51,2022-02-12_11h35.39.562,lexical_decision_task_DD_L2,2021.2.3,MacIntel,60.0024001,,,,,,,,,,,0.7884,0,,,,,,,,,,,,,,,,,,,,,,,,-0.026445855,-0.402057563,0,0,0,,,,,,,PASTA,C,m,y,./images/PASTA.png,,,,,,,,,,,,,,,,,,,,,z,0,0.7884,,,,,,,,0,102,102,5,1
,,,,,,,,,,,,,,,,,6117fb98735b8d5cc5e705a2,51,2022-02-12_11h35.39.562,lexical_decision_task_DD_L2,2021.2.3,MacIntel,60.0024001,,,,,,,,,,,1.0065,1,,,,,,,,,,,,,,,,,,,,,,,,-0.026445855,-0.402057563,0,0,0,,,,,,,LLAMA,C,z,y,./images/LLAMA.png,,,,,,,,,,,,,,,,,,,,,z,1,1.0065,,,,,,,,0,103,103,119,1
,,,,,,,,,,,,,,,,,6117fb98735b8d5cc5e705a2,51,2022-02-12_11h35.39.562,lexical_decision_task_DD_L2,2021.2.3,MacIntel,60.0024001,,,,,,,,,,,0.7216,0,,,,,,,,,,,,,,,,,,,,,,,,-0.026445855,-0.402057563,0,0,0,,,,,,,FARMER,C,m,y,./images/FARMER.png,,,,,,,,,,,,,,,,,,,,,z,0,0.7216,,,,,,,,0,104,104,65,1
,,,,,,,,,,,,,,,,,6117fb98735b8d5cc5e705a2,51,2022-02-12_11h35.39.562,lexical_decision_task_DD_L2,2021.2.3,MacIntel,60.0024001,,,,,,,,,,,0.798,1,,,,,,,,,,,,,,,,,,,,,,,,-0.026445855,-0.402057563,0,0,0,,,,,,,SLOPE,HB,z,y,./images/SLOPEHB.png,,,,,,,,,,,,,,,,,,,,,z,1,0.798,,,,,,,,0,105,105,114,1
,,,,,,,,,,,,,,,,,6117fb98735b8d5cc5e705a2,51,2022-02-12_11h35.39.562,lexical_decision_task_DD_L2,2021.2.3,MacIntel,60.0024001,,,,,,,,,,,0.9681,0,,,,,,,,,,,,,,,,,,,,,,,,-0.026445855,-0.402057563,0,0,0,,,,,,,URINE,LB,m,y,./images/URINELB.png,,,,,,,,,,,,,,,,,,,,,z,0,0.9681,,,,,,,,0,106,106,70,1
,,,,,,,,,,,,,,,,,6117fb98735b8d5cc5e705a2,51,2022-02-12_11h35.39.562,lexical_decision_task_DD_L2,2021.2.3,MacIntel,60.0024001,,,,,,,,,,,1.1906,1,,,,,,,,,,,,,,,,,,,,,,,,-0.026445855,-0.402057563,0,0,0,,,,,,,RAZOR,LB,z,y,./images/RAZORLB.png,,,,,,,,,,,,,,,,,,,,,z,1,1.1906,,,,,,,,0,107,107,118,1
,,,,,,,,,,,,,,,,,6117fb98735b8d5cc5e705a2,51,2022-02-12_11h35.39.562,lexical_decision_task_DD_L2,2021.2.3,MacIntel,60.0024001,,,,,,,,,,,1.0845,0,,,,,,,,,,,,,,,,,,,,,,,,-0.026445855,-0.402057563,0,0,0,,,,,,,CASINO,LB,z,y,./images/CASINOLB.png,,,,,,,,,,,,,,,,,,,,,m,0,1.0845,,,,,,,,0,108,108,112,1
,,,,,,,,,,,,,,,,,6117fb98735b8d5cc5e705a2,51,2022-02-12_11h35.39.562,lexical_decision_task_DD_L2,2021.2.3,MacIntel,60.0024001,,,,,,,,,,,1.3403,1,,,,,,,,,,,,,,,,,,,,,,,,-0.026445855,-0.402057563,0,0,0,,,,,,,SPORT,HB,m,y,./images/SPORTHB.png,,,,,,,,,,,,,,,,,,,,,m,1,1.3403,,,,,,,,0,109,109,48,1
,,,,,,,,,,,,,,,,,6117fb98735b8d5cc5e705a2,51,2022-02-12_11h35.39.562,lexical_decision_task_DD_L2,2021.2.3,MacIntel,60.0024001,,,,,,,,,,,0.6988,0,,,,,,,,,,,,,,,,,,,,,,,,-0.026445855,-0.402057563,0,0,0,,,,,,,PIMPLE,C,m,y,./images/PIMPLE.png,,,,,,,,,,,,,,,,,,,,,z,0,0.6988,,,,,,,,0,110,110,71,1
,,,,,,,,,,,,,,,,,6117fb98735b8d5cc5e705a2,51,2022-02-12_11h35.39.562,lexical_decision_task_DD_L2,2021.2.3,MacIntel,60.0024001,,,,,,,,,,,0.8806,1,,,,,,,,,,,,,,,,,,,,,,,,-0.026445855,-0.402057563,0,0,0,,,,,,,STOVE,C,z,y,./images/STOVE.png,,,,,,,,,,,,,,,,,,,,,z,1,0.8806,,,,,,,,0,111,111,86,1
,,,,,,,,,,,,,,,,,6117fb98735b8d5cc5e705a2,51,2022-02-12_11h35.39.562,lexical_decision_task_DD_L2,2021.2.3,MacIntel,60.0024001,,,,,,,,,,,0.9225,0,,,,,,,,,,,,,,,,,,,,,,,,-0.026445855,-0.402057563,0,0,0,,,,,,,BAMBOO,C,z,y,./images/BAMBOO.png,,,,,,,,,,,,,,,,,,,,,m,0,0.9225,,,,,,,,0,112,112,89,1
,,,,,,,,,,,,,,,,,6117fb98735b8d5cc5e705a2,51,2022-02-12_11h35.39.562,lexical_decision_task_DD_L2,2021.2.3,MacIntel,60.0024001,,,,,,,,,,,0.8577,1,,,,,,,,,,,,,,,,,,,,,,,,-0.026445855,-0.402057563,0,0,0,,,,,,,WHEEL,C,z,y,./images/WHEEL.png,,,,,,,,,,,,,,,,,,,,,z,1,0.8577,,,,,,,,0,113,113,161,1
,,,,,,,,,,,,,,,,,6117fb98735b8d5cc5e705a2,51,2022-02-12_11h35.39.562,lexical_decision_task_DD_L2,2021.2.3,MacIntel,60.0024001,,,,,,,,,,,1.3145,0,,,,,,,,,,,,,,,,,,,,,,,,-0.026445855,-0.402057563,0,0,0,,,,,,,PICKLE,C,m,y,./images/PICKLE.png,,,,,,,,,,,,,,,,,,,,,z,0,1.3145,,,,,,,,0,114,114,14,1
,,,,,,,,,,,,,,,,,6117fb98735b8d5cc5e705a2,51,2022-02-12_11h35.39.562,lexical_decision_task_DD_L2,2021.2.3,MacIntel,60.0024001,,,,,,,,,,,1.5147,0,,,,,,,,,,,,,,,,,,,,,,,,-0.026445855,-0.402057563,0,0,0,,,,,,,BISHOP,LB,z,y,./images/BISHOPLB.png,,,,,,,,,,,,,,,,,,,,,m,0,1.5147,,,,,,,,0,115,115,133,1
,,,,,,,,,,,,,,,,,6117fb98735b8d5cc5e705a2,51,2022-02-12_11h35.39.562,lexical_decision_task_DD_L2,2021.2.3,MacIntel,60.0024001,,,,,,,,,,,0.9332,1,,,,,,,,,,,,,,,,,,,,,,,,-0.026445855,-0.402057563,0,0,0,,,,,,,SHELF,HB,m,y,./images/SHELFHB.png,,,,,,,,,,,,,,,,,,,,,m,1,0.9332,,,,,,,,0,116,116,39,1
,,,,,,,,,,,,,,,,,6117fb98735b8d5cc5e705a2,51,2022-02-12_11h35.39.562,lexical_decision_task_DD_L2,2021.2.3,MacIntel,60.0024001,,,,,,,,,,,0.7396,1,,,,,,,,,,,,,,,,,,,,,,,,-0.026445855,-0.401262546,0,0,0,,,,,,,STATUE,HB,z,y,./images/STATUEHB.png,,,,,,,,,,,,,,,,,,,,,z,1,0.7396,,,,,,,,0,117,117,150,1
,,,,,,,,,,,,,,,,,6117fb98735b8d5cc5e705a2,51,2022-02-12_11h35.39.562,lexical_decision_task_DD_L2,2021.2.3,MacIntel,60.0024001,,,,,,,,,,,0.7498,0,,,,,,,,,,,,,,,,,,,,,,,,-0.026445855,-0.401262546,0,0,0,,,,,,,GRAIN,HB,m,y,./images/GRAINHB.png,,,,,,,,,,,,,,,,,,,,,z,0,0.7498,,,,,,,,0,118,118,75,1
,,,,,,,,,,,,,,,,,6117fb98735b8d5cc5e705a2,51,2022-02-12_11h35.39.562,lexical_decision_task_DD_L2,2021.2.3,MacIntel,60.0024001,,,,,,,,,,,0.7752,1,,,,,,,,,,,,,,,,,,,,,,,,-0.026445855,-0.401262546,0,0,0,,,,,,,JELLY,LB,m,y,./images/JELLYLB.png,,,,,,,,,,,,,,,,,,,,,m,1,0.7752,,,,,,,,0,119,119,64,1
,,,,,,,,,,,,,,,,,6117fb98735b8d5cc5e705a2,51,2022-02-12_11h35.39.562,lexical_decision_task_DD_L2,2021.2.3,MacIntel,60.0024001,,,,,,,,,,,0.9239,1,,,,,,,,,,,,,,,,,,,,,,,,-0.026445855,-0.401262546,0,0,0,,,,,,,SPINE,C,z,y,./images/SPINE.png,,,,,,,,,,,,,,,,,,,,,z,1,0.9239,,,,,,,,0,120,120,149,1
,,,,,,,,,,,,,,,,,6117fb98735b8d5cc5e705a2,51,2022-02-12_11h35.39.562,lexical_decision_task_DD_L2,2021.2.3,MacIntel,60.0024001,,,,,,,,,,,0.818,0,,,,,,,,,,,,,,,,,,,,,,,,-0.026701864,-0.401262546,0,0,0,,,,,,,PEARL,LB,m,y,./images/PEARLLB.png,,,,,,,,,,,,,,,,,,,,,z,0,0.818,,,,,,,,0,121,121,46,1
,,,,,,,,,,,,,,,,,6117fb98735b8d5cc5e705a2,51,2022-02-12_11h35.39.562,lexical_decision_task_DD_L2,2021.2.3,MacIntel,60.0024001,,,,,,,,,,,2.9149,0,,,,,,,,,,,,,,,,,,,,,,,,-0.026701864,-0.401262546,0,0,0,,,,,,,TOMATO,HB,m,y,./images/TOMATOHB.png,,,,,,,,,,,,,,,,,,,,,z,0,2.9149,,,,,,,,0,122,122,0,1
,,,,,,,,,,,,,,,,,6117fb98735b8d5cc5e705a2,51,2022-02-12_11h35.39.562,lexical_decision_task_DD_L2,2021.2.3,MacIntel,60.0024001,,,,,,,,,,,0.9022,1,,,,,,,,,,,,,,,,,,,,,,,,-0.026445855,-0.401262546,0,0,0,,,,,,,JAGUAR,HB,m,y,./images/JAGUARHB.png,,,,,,,,,,,,,,,,,,,,,m,1,0.9022,,,,,,,,0,123,123,18,1
,,,,,,,,,,,,,,,,,6117fb98735b8d5cc5e705a2,51,2022-02-12_11h35.39.562,lexical_decision_task_DD_L2,2021.2.3,MacIntel,60.0024001,,,,,,,,,,,0.8156,1,,,,,,,,,,,,,,,,,,,,,,,,-0.026189643,-0.401262546,0,0,0,,,,,,,SHIELD,HB,z,y,./images/SHIELDHB.png,,,,,,,,,,,,,,,,,,,,,z,1,0.8156,,,,,,,,0,124,124,132,1
,,,,,,,,,,,,,,,,,6117fb98735b8d5cc5e705a2,51,2022-02-12_11h35.39.562,lexical_decision_task_DD_L2,2021.2.3,MacIntel,60.0024001,,,,,,,,,,,1.0491,0,,,,,,,,,,,,,,,,,,,,,,,,-0.021259494,-0.40550944,1,0,0,,,,,,,COLLAR,HB,z,y,./images/COLLARHB.png,break_done_button,,,,,,,,,,,,,,,,,,,,m,0,1.0491,,,,,,,,0,125,125,99,1
,,,,,,,,,,,,,,,,,6117fb98735b8d5cc5e705a2,51,2022-02-12_11h35.39.562,lexical_decision_task_DD_L2,2021.2.3,MacIntel,60.0024001,,,,,,,,,,,0.7981,1,,,,,,,,,,,,,,,,,,,,,,,,-0.020703939,-0.40550944,0,0,0,,,,,,,VALLEY,C,z,y,./images/VALLEY.png,,,,,,,,,,,,,,,,,,,,,z,1,0.7981,,,,,,,,0,126,126,152,1
,,,,,,,,,,,,,,,,,6117fb98735b8d5cc5e705a2,51,2022-02-12_11h35.39.562,lexical_decision_task_DD_L2,2021.2.3,MacIntel,60.0024001,,,,,,,,,,,1.1481,1,,,,,,,,,,,,,,,,,,,,,,,,-0.021474202,-0.406290758,0,0,0,,,,,,,PENCE,LB,m,y,./images/PENCELB.png,,,,,,,,,,,,,,,,,,,,,m,1,1.1481,,,,,,,,0,127,127,16,1
