key_resp.keys,instr_done_touch.x,instr_done_touch.y,instr_done_touch.leftButton,instr_done_touch.midButton,instr_done_touch.rightButton,instr_done_touch.clicked_name,instruction_pages.thisRepN,instruction_pages.thisTrialN,instruction_pages.thisN,instruction_pages.thisIndex,instruction_pages.ran,pageN,phase,instruct_text,has_image,instruct_image,participant,age,date,expName,psychopyVersion,OS,frameRate,key_resp.rt,response.keys,response.corr,response.rt,touch_resp.x,touch_resp.y,touch_resp.leftButton,touch_resp.midButton,touch_resp.rightButton,touch_resp.time,touch_resp.clicked_name,rt,corr,practrials.thisRepN,practrials.thisTrialN,practrials.thisN,practrials.thisIndex,practrials.ran,TrialID,Target,corrAns,end_of_practice_trials_pages.thisRepN,end_of_practice_trials_pages.thisTrialN,end_of_practice_trials_pages.thisN,end_of_practice_trials_pages.thisIndex,end_of_practice_trials_pages.ran,key_resp_2.keys,key_resp_2.corr,key_resp_2.rt,targ_click.x,targ_click.y,targ_click.leftButton,targ_click.midButton,targ_click.rightButton,targ_click.time,targ_click.clicked_name,break_done_touch.x,break_done_touch.y,break_done_touch.leftButton,break_done_touch.midButton,break_done_touch.rightButton,break_done_keyboard.keys,maintrials.thisRepN,maintrials.thisTrialN,maintrials.thisN,maintrials.thisIndex,maintrials.ran,string,blur,study,lex,stim_path,break_done_keyboard.rt,mouse_2.x,mouse_2.y,mouse_2.leftButton,mouse_2.midButton,mouse_2.rightButton,mouse_2.clicked_name,slider.response,slider.rt,trials.thisRepN,trials.thisTrialN,trials.thisN,trials.thisIndex,trials.ran,test_instructions.thisRepN,test_instructions.thisTrialN,test_instructions.thisN,test_instructions.thisIndex,test_instructions.ran,key_resp_3.keys,key_resp_3.corr,key_resp_3.rt,test_click.x,test_click.y,test_click.leftButton,test_click.midButton,test_click.rightButton,test_click.time,test_click.clicked_name,test_phase.thisRepN,test_phase.thisTrialN,test_phase.thisN,test_phase.thisIndex,test_phase.ran
,0.119791667,-0.41015625,1,0,0,instr_done_button,0,0,0,0,1,1,instructions,"INSTRUCTIONS
At the start of each trial, look at the plus sign  (+) in the center of the screen.  This tells you that a trial is about to begin and where to look. Second, the plus sign will disappear and a string of letters will appear. Your task is to determine if the string of letters is a word or not. If the item is a word press the M key (on keyboard)  or touch the word button (phone/tablet).  If the item is not a word,  press the  Z key (on keyboard)  or touch the nonword button (on phone/tablet). 
Press the space bar or touch  continue.",0,,612d435206d267d587b12789,57,2022-02-12_17h57.21.256,lexical_decision_task_DD_L2,2021.2.3,Win32,60.09976561,,,,,,,,,,,,,,,,,,,,,,,,,,,,,,,,,,,,,,,,,,,,,,,,,,,,,,,,,,,,,,,,,,,,,,,,,,,,,,,,,,,,,,
,0.04296875,-0.397135417,1,0,0,instr_done_button,0,1,1,1,1,2,instructions,"If your device has a keyboard, press the 'Z' key for nonwords and the 'M' key for words.





Press the space bar or touch the button below to continue.",0,keyboard-example.gif,612d435206d267d587b12789,57,2022-02-12_17h57.21.256,lexical_decision_task_DD_L2,2021.2.3,Win32,60.09976561,,,,,,,,,,,,,,,,,,,,,,,,,,,,,,,,,,,,,,,,,,,,,,,,,,,,,,,,,,,,,,,,,,,,,,,,,,,,,,,,,,,,,,
space,0.04296875,-0.397135417,0,0,0,,0,2,2,2,1,3,instructions,"If you are using a touchscreen only device, use the buttons on the screen. Do not use the mouse.





Press the space bar or touch the button below to continue.",0,touchscreen-example.gif,612d435206d267d587b12789,57,2022-02-12_17h57.21.256,lexical_decision_task_DD_L2,2021.2.3,Win32,60.09976561,18.175,,,,,,,,,,,,,,,,,,,,,,,,,,,,,,,,,,,,,,,,,,,,,,,,,,,,,,,,,,,,,,,,,,,,,,,,,,,,,,,,,,,,,
space,0.04296875,-0.397135417,0,0,0,,0,3,3,3,1,4,instructions,"It is very important that you respond as quickly and accurately as possible, as each letter string will only be on the screen for two seconds. If you do not respond within this time, the message 'Too slow!' will be displayed and the experiment will progress to the next letter string. The first 20 trials will be practice trials and you will receive feedback on your answers. 

Press the space bar or touch the button below to start the practice trials.",0,,612d435206d267d587b12789,57,2022-02-12_17h57.21.256,lexical_decision_task_DD_L2,2021.2.3,Win32,60.09976561,26.8956,,,,,,,,,,,,,,,,,,,,,,,,,,,,,,,,,,,,,,,,,,,,,,,,,,,,,,,,,,,,,,,,,,,,,,,,,,,,,,,,,,,,,
,,,,,,,,,,,,,,,,,612d435206d267d587b12789,57,2022-02-12_17h57.21.256,lexical_decision_task_DD_L2,2021.2.3,Win32,60.09976561,,m,1,1.5284,,,,,,,,1.5284,1,0,0,0,6,1,1001,ZOMBIE,m,,,,,,,,,,,,,,,,,,,,,,,,,,,,,,,,,,,,,,,,,,,,,,,,,,,,,,,,,,,,,,,,,
,,,,,,,,,,,,,,,,,612d435206d267d587b12789,57,2022-02-12_17h57.21.256,lexical_decision_task_DD_L2,2021.2.3,Win32,60.09976561,,m,0,1.511,,,,,,,,1.511,0,0,1,1,10,1,1001,INLADE,z,,,,,,,,,,,,,,,,,,,,,,,,,,,,,,,,,,,,,,,,,,,,,,,,,,,,,,,,,,,,,,,,,
,,,,,,,,,,,,,,,,,612d435206d267d587b12789,57,2022-02-12_17h57.21.256,lexical_decision_task_DD_L2,2021.2.3,Win32,60.09976561,,z,1,1.2996,,,,,,,,1.2996,1,0,2,2,15,1,1001,WHAISE,z,,,,,,,,,,,,,,,,,,,,,,,,,,,,,,,,,,,,,,,,,,,,,,,,,,,,,,,,,,,,,,,,,
,,,,,,,,,,,,,,,,,612d435206d267d587b12789,57,2022-02-12_17h57.21.256,lexical_decision_task_DD_L2,2021.2.3,Win32,60.09976561,,z,1,1.4466,,,,,,,,1.4466,1,0,3,3,8,1,1001,ASLERT,z,,,,,,,,,,,,,,,,,,,,,,,,,,,,,,,,,,,,,,,,,,,,,,,,,,,,,,,,,,,,,,,,,
,,,,,,,,,,,,,,,,,612d435206d267d587b12789,57,2022-02-12_17h57.21.256,lexical_decision_task_DD_L2,2021.2.3,Win32,60.09976561,,m,1,0.9813,,,,,,,,0.9813,1,0,4,4,0,1,1001,UTOPIA,m,,,,,,,,,,,,,,,,,,,,,,,,,,,,,,,,,,,,,,,,,,,,,,,,,,,,,,,,,,,,,,,,,
,,,,,,,,,,,,,,,,,612d435206d267d587b12789,57,2022-02-12_17h57.21.256,lexical_decision_task_DD_L2,2021.2.3,Win32,60.09976561,,z,1,1.0481,,,,,,,,1.0481,1,0,5,5,11,1,1001,RASHET,z,,,,,,,,,,,,,,,,,,,,,,,,,,,,,,,,,,,,,,,,,,,,,,,,,,,,,,,,,,,,,,,,,
,,,,,,,,,,,,,,,,,612d435206d267d587b12789,57,2022-02-12_17h57.21.256,lexical_decision_task_DD_L2,2021.2.3,Win32,60.09976561,,m,1,1.0439,,,,,,,,1.0439,1,0,6,6,3,1,1001,MATRIX,m,,,,,,,,,,,,,,,,,,,,,,,,,,,,,,,,,,,,,,,,,,,,,,,,,,,,,,,,,,,,,,,,,
,,,,,,,,,,,,,,,,,612d435206d267d587b12789,57,2022-02-12_17h57.21.256,lexical_decision_task_DD_L2,2021.2.3,Win32,60.09976561,,m,1,1.1493,,,,,,,,1.1493,1,0,7,7,4,1,1001,SQUEAK,m,,,,,,,,,,,,,,,,,,,,,,,,,,,,,,,,,,,,,,,,,,,,,,,,,,,,,,,,,,,,,,,,,
,,,,,,,,,,,,,,,,,612d435206d267d587b12789,57,2022-02-12_17h57.21.256,lexical_decision_task_DD_L2,2021.2.3,Win32,60.09976561,,z,1,0.774,,,,,,,,0.774,1,0,8,8,13,1,1001,ROUPET,z,,,,,,,,,,,,,,,,,,,,,,,,,,,,,,,,,,,,,,,,,,,,,,,,,,,,,,,,,,,,,,,,,
,,,,,,,,,,,,,,,,,612d435206d267d587b12789,57,2022-02-12_17h57.21.256,lexical_decision_task_DD_L2,2021.2.3,Win32,60.09976561,,m,1,1.0369,,,,,,,,1.0369,1,0,9,9,1,1,1001,ADJUST,m,,,,,,,,,,,,,,,,,,,,,,,,,,,,,,,,,,,,,,,,,,,,,,,,,,,,,,,,,,,,,,,,,
,,,,,,,,,,,,,,,,,612d435206d267d587b12789,57,2022-02-12_17h57.21.256,lexical_decision_task_DD_L2,2021.2.3,Win32,60.09976561,,m,1,0.8369,,,,,,,,0.8369,1,0,10,10,5,1,1001,OBTAIN,m,,,,,,,,,,,,,,,,,,,,,,,,,,,,,,,,,,,,,,,,,,,,,,,,,,,,,,,,,,,,,,,,,
,,,,,,,,,,,,,,,,,612d435206d267d587b12789,57,2022-02-12_17h57.21.256,lexical_decision_task_DD_L2,2021.2.3,Win32,60.09976561,,m,1,0.7424,,,,,,,,0.7424,1,0,11,11,2,1,1001,ALMOND,m,,,,,,,,,,,,,,,,,,,,,,,,,,,,,,,,,,,,,,,,,,,,,,,,,,,,,,,,,,,,,,,,,
,,,,,,,,,,,,,,,,,612d435206d267d587b12789,57,2022-02-12_17h57.21.256,lexical_decision_task_DD_L2,2021.2.3,Win32,60.09976561,,z,1,0.774,,,,,,,,0.774,1,0,12,12,12,1,1001,SPRINY,z,,,,,,,,,,,,,,,,,,,,,,,,,,,,,,,,,,,,,,,,,,,,,,,,,,,,,,,,,,,,,,,,,
,,,,,,,,,,,,,,,,,612d435206d267d587b12789,57,2022-02-12_17h57.21.256,lexical_decision_task_DD_L2,2021.2.3,Win32,60.09976561,,z,0,1.2365,,,,,,,,1.2365,0,0,13,13,7,1,1001,VOLUME,m,,,,,,,,,,,,,,,,,,,,,,,,,,,,,,,,,,,,,,,,,,,,,,,,,,,,,,,,,,,,,,,,,
,,,,,,,,,,,,,,,,,612d435206d267d587b12789,57,2022-02-12_17h57.21.256,lexical_decision_task_DD_L2,2021.2.3,Win32,60.09976561,,z,1,0.9075,,,,,,,,0.9075,1,0,14,14,14,1,1001,THRALE,z,,,,,,,,,,,,,,,,,,,,,,,,,,,,,,,,,,,,,,,,,,,,,,,,,,,,,,,,,,,,,,,,,
,,,,,,,,,,,,,,,,,612d435206d267d587b12789,57,2022-02-12_17h57.21.256,lexical_decision_task_DD_L2,2021.2.3,Win32,60.09976561,,z,1,0.8361,,,,,,,,0.8361,1,0,15,15,9,1,1001,FARINY,z,,,,,,,,,,,,,,,,,,,,,,,,,,,,,,,,,,,,,,,,,,,,,,,,,,,,,,,,,,,,,,,,,
space,0.04296875,-0.397135417,0,0,0,,,,,,,1,end_of_practice,"You have completed the practice trials. During the experimental trials, you will not receive feedback. 
Before you begin, please ensure that you are in a comfortable and quiet location and will not be disturbed for about 15 minutes, as we cannot use your data if you do not complete all the trials. 
 When you are ready to start the experimental trials, please press space or touch the button below.",,,612d435206d267d587b12789,57,2022-02-12_17h57.21.256,lexical_decision_task_DD_L2,2021.2.3,Win32,60.09976561,9.3137,,,,,,,,,,,,,,,,,,,,,0,0,0,0,1,,,,,,,,,,,,,,,,,,,,,,,,,,,,,,,,,,,,,,,,,,,,,,,,,,,,,,,,,,,,
,,,,,,,,,,,,,,,,,612d435206d267d587b12789,57,2022-02-12_17h57.21.256,lexical_decision_task_DD_L2,2021.2.3,Win32,60.09976561,,,,,,,,,,,,2.0471,1,,,,,,,,,,,,,,m,1,2.0471,,,,,,,,0.04296875,-0.397135417,0,0,0,,0,0,0,69,1,COOKER,HB,old,m,./images/COOKERHB.png,,,,,,,,,,,,,,,,,,,,,,,,,,,,,,,,,,
,,,,,,,,,,,,,,,,,612d435206d267d587b12789,57,2022-02-12_17h57.21.256,lexical_decision_task_DD_L2,2021.2.3,Win32,60.09976561,,,,,,,,,,,,0.9003,1,,,,,,,,,,,,,,m,1,0.9003,,,,,,,,0.04296875,-0.397135417,0,0,0,,0,1,1,46,1,PEARL,LB,old,m,./images/PEARLLB.png,,,,,,,,,,,,,,,,,,,,,,,,,,,,,,,,,,
,,,,,,,,,,,,,,,,,612d435206d267d587b12789,57,2022-02-12_17h57.21.256,lexical_decision_task_DD_L2,2021.2.3,Win32,60.09976561,,,,,,,,,,,,0.8898,1,,,,,,,,,,,,,,z,1,0.8898,,,,,,,,0.04296875,-0.397135417,0,0,0,,0,2,2,155,1,CANGY,LB,old,z,./images/CANGYLB.png,,,,,,,,,,,,,,,,,,,,,,,,,,,,,,,,,,
,,,,,,,,,,,,,,,,,612d435206d267d587b12789,57,2022-02-12_17h57.21.256,lexical_decision_task_DD_L2,2021.2.3,Win32,60.09976561,,,,,,,,,,,,0.8013,1,,,,,,,,,,,,,,m,1,0.8013,,,,,,,,0.04296875,-0.397135417,0,0,0,,0,3,3,14,1,PICKLE,C,old,m,./images/PICKLE.png,,,,,,,,,,,,,,,,,,,,,,,,,,,,,,,,,,
,,,,,,,,,,,,,,,,,612d435206d267d587b12789,57,2022-02-12_17h57.21.256,lexical_decision_task_DD_L2,2021.2.3,Win32,60.09976561,,,,,,,,,,,,0.8862,1,,,,,,,,,,,,,,m,1,0.8862,,,,,,,,0.04296875,-0.397135417,0,0,0,,0,4,4,48,1,SPORT,HB,old,m,./images/SPORTHB.png,,,,,,,,,,,,,,,,,,,,,,,,,,,,,,,,,,
,,,,,,,,,,,,,,,,,612d435206d267d587b12789,57,2022-02-12_17h57.21.256,lexical_decision_task_DD_L2,2021.2.3,Win32,60.09976561,,,,,,,,,,,,0.9291,1,,,,,,,,,,,,,,m,1,0.9291,,,,,,,,0.04296875,-0.397135417,0,0,0,,0,5,5,75,1,GRAIN,HB,old,m,./images/GRAINHB.png,,,,,,,,,,,,,,,,,,,,,,,,,,,,,,,,,,
,,,,,,,,,,,,,,,,,612d435206d267d587b12789,57,2022-02-12_17h57.21.256,lexical_decision_task_DD_L2,2021.2.3,Win32,60.09976561,,,,,,,,,,,,1.3411,1,,,,,,,,,,,,,,z,1,1.3411,,,,,,,,0.04296875,-0.397135417,0,0,0,,0,6,6,157,1,INLER,HB,old,z,./images/INLERHB.png,,,,,,,,,,,,,,,,,,,,,,,,,,,,,,,,,,
,,,,,,,,,,,,,,,,,612d435206d267d587b12789,57,2022-02-12_17h57.21.256,lexical_decision_task_DD_L2,2021.2.3,Win32,60.09976561,,,,,,,,,,,,1.1369,1,,,,,,,,,,,,,,m,1,1.1369,,,,,,,,0.04296875,-0.397135417,0,0,0,,0,7,7,78,1,LITTER,HB,old,m,./images/LITTERHB.png,,,,,,,,,,,,,,,,,,,,,,,,,,,,,,,,,,
,,,,,,,,,,,,,,,,,612d435206d267d587b12789,57,2022-02-12_17h57.21.256,lexical_decision_task_DD_L2,2021.2.3,Win32,60.09976561,,,,,,,,,,,,1.1338,1,,,,,,,,,,,,,,z,1,1.1338,,,,,,,,0.04296875,-0.397135417,0,0,0,,0,8,8,124,1,TUNCH,HB,old,z,./images/TUNCHHB.png,,,,,,,,,,,,,,,,,,,,,,,,,,,,,,,,,,
,,,,,,,,,,,,,,,,,612d435206d267d587b12789,57,2022-02-12_17h57.21.256,lexical_decision_task_DD_L2,2021.2.3,Win32,60.09976561,,,,,,,,,,,,0.9548,1,,,,,,,,,,,,,,z,1,0.9548,,,,,,,,0.04296875,-0.397135417,0,0,0,,0,9,9,89,1,DRIEK,LB,old,z,./images/DRIEKLB.png,,,,,,,,,,,,,,,,,,,,,,,,,,,,,,,,,,
,,,,,,,,,,,,,,,,,612d435206d267d587b12789,57,2022-02-12_17h57.21.256,lexical_decision_task_DD_L2,2021.2.3,Win32,60.09976561,,,,,,,,,,,,0.9308,1,,,,,,,,,,,,,,z,1,0.9308,,,,,,,,0.04296875,-0.397135417,0,0,0,,0,10,10,90,1,NEAST,C,old,z,./images/NEAST.png,,,,,,,,,,,,,,,,,,,,,,,,,,,,,,,,,,
,,,,,,,,,,,,,,,,,612d435206d267d587b12789,57,2022-02-12_17h57.21.256,lexical_decision_task_DD_L2,2021.2.3,Win32,60.09976561,,,,,,,,,,,,0.8025,1,,,,,,,,,,,,,,m,1,0.8025,,,,,,,,0.04296875,-0.397135417,0,0,0,,0,11,11,26,1,SMOKER,C,old,m,./images/SMOKER.png,,,,,,,,,,,,,,,,,,,,,,,,,,,,,,,,,,
,,,,,,,,,,,,,,,,,612d435206d267d587b12789,57,2022-02-12_17h57.21.256,lexical_decision_task_DD_L2,2021.2.3,Win32,60.09976561,,,,,,,,,,,,0.9203,1,,,,,,,,,,,,,,z,1,0.9203,,,,,,,,0.04296875,-0.397135417,0,0,0,,0,12,12,92,1,PAIMS,LB,old,z,./images/PAIMSLB.png,,,,,,,,,,,,,,,,,,,,,,,,,,,,,,,,,,
,,,,,,,,,,,,,,,,,612d435206d267d587b12789,57,2022-02-12_17h57.21.256,lexical_decision_task_DD_L2,2021.2.3,Win32,60.09976561,,,,,,,,,,,,0.8033,1,,,,,,,,,,,,,,m,1,0.8033,,,,,,,,0.04296875,-0.397135417,0,0,0,,0,13,13,28,1,FALCON,LB,old,m,./images/FALCONLB.png,,,,,,,,,,,,,,,,,,,,,,,,,,,,,,,,,,
,,,,,,,,,,,,,,,,,612d435206d267d587b12789,57,2022-02-12_17h57.21.256,lexical_decision_task_DD_L2,2021.2.3,Win32,60.09976561,,,,,,,,,,,,1.0839,1,,,,,,,,,,,,,,m,1,1.0839,,,,,,,,0.04296875,-0.397135417,0,0,0,,0,14,14,21,1,KIDNEY,HB,old,m,./images/KIDNEYHB.png,,,,,,,,,,,,,,,,,,,,,,,,,,,,,,,,,,
,,,,,,,,,,,,,,,,,612d435206d267d587b12789,57,2022-02-12_17h57.21.256,lexical_decision_task_DD_L2,2021.2.3,Win32,60.09976561,,,,,,,,,,,,0.9209,1,,,,,,,,,,,,,,m,1,0.9209,,,,,,,,0.04296875,-0.397135417,0,0,0,,0,15,15,1,1,PLANK,LB,old,m,./images/PLANKLB.png,,,,,,,,,,,,,,,,,,,,,,,,,,,,,,,,,,
,,,,,,,,,,,,,,,,,612d435206d267d587b12789,57,2022-02-12_17h57.21.256,lexical_decision_task_DD_L2,2021.2.3,Win32,60.09976561,,,,,,,,,,,,0.9314,1,,,,,,,,,,,,,,m,1,0.9314,,,,,,,,0.04296875,-0.397135417,0,0,0,,0,16,16,23,1,WALRUS,C,old,m,./images/WALRUS.png,,,,,,,,,,,,,,,,,,,,,,,,,,,,,,,,,,
,,,,,,,,,,,,,,,,,612d435206d267d587b12789,57,2022-02-12_17h57.21.256,lexical_decision_task_DD_L2,2021.2.3,Win32,60.09976561,,,,,,,,,,,,0.9729,0,,,,,,,,,,,,,,m,0,0.9729,,,,,,,,0.04296875,-0.397135417,0,0,0,,0,17,17,110,1,CRUNK,LB,old,z,./images/CRUNKLB.png,,,,,,,,,,,,,,,,,,,,,,,,,,,,,,,,,,
,,,,,,,,,,,,,,,,,612d435206d267d587b12789,57,2022-02-12_17h57.21.256,lexical_decision_task_DD_L2,2021.2.3,Win32,60.09976561,,,,,,,,,,,,0.9653,1,,,,,,,,,,,,,,m,1,0.9653,,,,,,,,0.04296875,-0.397135417,0,0,0,,0,18,18,66,1,SWEAT,HB,old,m,./images/SWEATHB.png,,,,,,,,,,,,,,,,,,,,,,,,,,,,,,,,,,
,,,,,,,,,,,,,,,,,612d435206d267d587b12789,57,2022-02-12_17h57.21.256,lexical_decision_task_DD_L2,2021.2.3,Win32,60.09976561,,,,,,,,,,,,1.0195,1,,,,,,,,,,,,,,z,1,1.0195,,,,,,,,0.04296875,-0.397135417,0,0,0,,0,19,19,146,1,MOOST,LB,old,z,./images/MOOSTLB.png,,,,,,,,,,,,,,,,,,,,,,,,,,,,,,,,,,
,,,,,,,,,,,,,,,,,612d435206d267d587b12789,57,2022-02-12_17h57.21.256,lexical_decision_task_DD_L2,2021.2.3,Win32,60.09976561,,,,,,,,,,,,1.2199,1,,,,,,,,,,,,,,z,1,1.2199,,,,,,,,0.04296875,-0.397135417,0,0,0,,0,20,20,115,1,MAWNS,HB,old,z,./images/MAWNSHB.png,,,,,,,,,,,,,,,,,,,,,,,,,,,,,,,,,,
,,,,,,,,,,,,,,,,,612d435206d267d587b12789,57,2022-02-12_17h57.21.256,lexical_decision_task_DD_L2,2021.2.3,Win32,60.09976561,,,,,,,,,,,,0.8416,1,,,,,,,,,,,,,,m,1,0.8416,,,,,,,,0.04296875,-0.397135417,0,0,0,,0,21,21,9,1,RHINO,HB,old,m,./images/RHINOHB.png,,,,,,,,,,,,,,,,,,,,,,,,,,,,,,,,,,
,,,,,,,,,,,,,,,,,612d435206d267d587b12789,57,2022-02-12_17h57.21.256,lexical_decision_task_DD_L2,2021.2.3,Win32,60.09976561,,,,,,,,,,,,1.1218,1,,,,,,,,,,,,,,z,1,1.1218,,,,,,,,0.04296875,-0.397135417,0,0,0,,0,22,22,106,1,CLUMS,HB,old,z,./images/CLUMSHB.png,,,,,,,,,,,,,,,,,,,,,,,,,,,,,,,,,,
,,,,,,,,,,,,,,,,,612d435206d267d587b12789,57,2022-02-12_17h57.21.256,lexical_decision_task_DD_L2,2021.2.3,Win32,60.09976561,,,,,,,,,,,,0.968,1,,,,,,,,,,,,,,z,1,0.968,,,,,,,,0.04296875,-0.397135417,0,0,0,,0,23,23,152,1,FRAIN,LB,old,z,./images/FRAINLB.png,,,,,,,,,,,,,,,,,,,,,,,,,,,,,,,,,,
,,,,,,,,,,,,,,,,,612d435206d267d587b12789,57,2022-02-12_17h57.21.256,lexical_decision_task_DD_L2,2021.2.3,Win32,60.09976561,,,,,,,,,,,,1.0403,1,,,,,,,,,,,,,,z,1,1.0403,,,,,,,,0.04296875,-0.397135417,0,0,0,,0,24,24,143,1,MONGS,LB,old,z,./images/MONGSLB.png,,,,,,,,,,,,,,,,,,,,,,,,,,,,,,,,,,
,,,,,,,,,,,,,,,,,612d435206d267d587b12789,57,2022-02-12_17h57.21.256,lexical_decision_task_DD_L2,2021.2.3,Win32,60.09976561,,,,,,,,,,,,0.7473,1,,,,,,,,,,,,,,z,1,0.7473,,,,,,,,0.04296875,-0.397135417,0,0,0,,0,25,25,135,1,JOODY,C,old,z,./images/JOODY.png,,,,,,,,,,,,,,,,,,,,,,,,,,,,,,,,,,
,,,,,,,,,,,,,,,,,612d435206d267d587b12789,57,2022-02-12_17h57.21.256,lexical_decision_task_DD_L2,2021.2.3,Win32,60.09976561,,,,,,,,,,,,0.8853,1,,,,,,,,,,,,,,m,1,0.8853,,,,,,,,0.04296875,-0.397135417,0,0,0,,0,26,26,30,1,STORM,HB,old,m,./images/STORMHB.png,,,,,,,,,,,,,,,,,,,,,,,,,,,,,,,,,,
,,,,,,,,,,,,,,,,,612d435206d267d587b12789,57,2022-02-12_17h57.21.256,lexical_decision_task_DD_L2,2021.2.3,Win32,60.09976561,,,,,,,,,,,,1.556,1,,,,,,,,,,,,,,z,1,1.556,,,,,,,,0.04296875,-0.397135417,0,0,0,,0,27,27,159,1,CUDDY,C,old,z,./images/CUDDY.png,,,,,,,,,,,,,,,,,,,,,,,,,,,,,,,,,,
,,,,,,,,,,,,,,,,,612d435206d267d587b12789,57,2022-02-12_17h57.21.256,lexical_decision_task_DD_L2,2021.2.3,Win32,60.09976561,,,,,,,,,,,,1.0861,1,,,,,,,,,,,,,,z,1,1.0861,,,,,,,,0.04296875,-0.397135417,0,0,0,,0,28,28,127,1,NINDY,HB,old,z,./images/NINDYHB.png,,,,,,,,,,,,,,,,,,,,,,,,,,,,,,,,,,
,,,,,,,,,,,,,,,,,612d435206d267d587b12789,57,2022-02-12_17h57.21.256,lexical_decision_task_DD_L2,2021.2.3,Win32,60.09976561,,,,,,,,,,,,0.8837,1,,,,,,,,,,,,,,m,1,0.8837,,,,,,,,0.04296875,-0.397135417,0,0,0,,0,29,29,77,1,COUCH,C,old,m,./images/COUCH.png,,,,,,,,,,,,,,,,,,,,,,,,,,,,,,,,,,
,,,,,,,,,,,,,,,,,612d435206d267d587b12789,57,2022-02-12_17h57.21.256,lexical_decision_task_DD_L2,2021.2.3,Win32,60.09976561,,,,,,,,,,,,0.9673,1,,,,,,,,,,,,,,m,1,0.9673,,,,,,,,0.04296875,-0.397135417,0,0,0,,0,30,30,42,1,FOLDER,HB,old,m,./images/FOLDERHB.png,,,,,,,,,,,,,,,,,,,,,,,,,,,,,,,,,,
,,,,,,,,,,,,,,,,,612d435206d267d587b12789,57,2022-02-12_17h57.21.256,lexical_decision_task_DD_L2,2021.2.3,Win32,60.09976561,,,,,,,,,,,,1.0094,1,,,,,,,,,,,,,,z,1,1.0094,,,,,,,,0.04296875,-0.397135417,0,0,0,,0,31,31,166,1,SHORY,HB,old,z,./images/SHORYHB.png,,,,,,,,,,,,,,,,,,,,,,,,,,,,,,,,,,
,,,,,,,,,,,,,,,,,612d435206d267d587b12789,57,2022-02-12_17h57.21.256,lexical_decision_task_DD_L2,2021.2.3,Win32,60.09976561,,,,,,,,,,,,0.8645,1,,,,,,,,,,,,,,z,1,0.8645,,,,,,,,0.04296875,-0.397135417,0,0,0,,0,32,32,156,1,HIXES,C,old,z,./images/HIXES.png,,,,,,,,,,,,,,,,,,,,,,,,,,,,,,,,,,
,,,,,,,,,,,,,,,,,612d435206d267d587b12789,57,2022-02-12_17h57.21.256,lexical_decision_task_DD_L2,2021.2.3,Win32,60.09976561,,,,,,,,,,,,0.9287,1,,,,,,,,,,,,,,m,1,0.9287,,,,,,,,0.04296875,-0.397135417,0,0,0,,0,33,33,36,1,THROAT,HB,old,m,./images/THROATHB.png,,,,,,,,,,,,,,,,,,,,,,,,,,,,,,,,,,
,,,,,,,,,,,,,,,,,612d435206d267d587b12789,57,2022-02-12_17h57.21.256,lexical_decision_task_DD_L2,2021.2.3,Win32,60.09976561,,,,,,,,,,,,0.8426,1,,,,,,,,,,,,,,m,1,0.8426,,,,,,,,0.04296875,-0.397135417,0,0,0,,0,34,34,74,1,CEMENT,C,old,m,./images/CEMENT.png,,,,,,,,,,,,,,,,,,,,,,,,,,,,,,,,,,
,,,,,,,,,,,,,,,,,612d435206d267d587b12789,57,2022-02-12_17h57.21.256,lexical_decision_task_DD_L2,2021.2.3,Win32,60.09976561,,,,,,,,,,,,0.9281,1,,,,,,,,,,,,,,z,1,0.9281,,,,,,,,0.04296875,-0.397135417,0,0,0,,0,35,35,119,1,PAFER,LB,old,z,./images/PAFERLB.png,,,,,,,,,,,,,,,,,,,,,,,,,,,,,,,,,,
,,,,,,,,,,,,,,,,,612d435206d267d587b12789,57,2022-02-12_17h57.21.256,lexical_decision_task_DD_L2,2021.2.3,Win32,60.09976561,,,,,,,,,,,,0.8794,1,,,,,,,,,,,,,,z,1,0.8794,,,,,,,,0.04296875,-0.397135417,0,0,0,,0,36,36,108,1,GRUET,C,old,z,./images/GRUET.png,,,,,,,,,,,,,,,,,,,,,,,,,,,,,,,,,,
,,,,,,,,,,,,,,,,,612d435206d267d587b12789,57,2022-02-12_17h57.21.256,lexical_decision_task_DD_L2,2021.2.3,Win32,60.09976561,,,,,,,,,,,,1.0533,1,,,,,,,,,,,,,,m,1,1.0533,,,,,,,,0.04296875,-0.397135417,0,0,0,,0,37,37,3,1,FINGER,HB,old,m,./images/FINGERHB.png,,,,,,,,,,,,,,,,,,,,,,,,,,,,,,,,,,
,,,,,,,,,,,,,,,,,612d435206d267d587b12789,57,2022-02-12_17h57.21.256,lexical_decision_task_DD_L2,2021.2.3,Win32,60.09976561,,,,,,,,,,,,0.934,1,,,,,,,,,,,,,,z,1,0.934,,,,,,,,0.04296875,-0.397135417,0,0,0,,0,38,38,101,1,GLEET,LB,old,z,./images/GLEETLB.png,,,,,,,,,,,,,,,,,,,,,,,,,,,,,,,,,,
,,,,,,,,,,,,,,,,,612d435206d267d587b12789,57,2022-02-12_17h57.21.256,lexical_decision_task_DD_L2,2021.2.3,Win32,60.09976561,,,,,,,,,,,,1.5151,1,,,,,,,,,,,,,,z,1,1.5151,,,,,,,,0.04296875,-0.397135417,0,0,0,,0,39,39,130,1,CRILL,HB,old,z,./images/CRILLHB.png,,,,,,,,,,,,,,,,,,,,,,,,,,,,,,,,,,
,,,,,,,,,,,,,,,,,612d435206d267d587b12789,57,2022-02-12_17h57.21.256,lexical_decision_task_DD_L2,2021.2.3,Win32,60.09976561,,,,,,,,,,,,0.7951,1,,,,,,,,,,,,,,m,1,0.7951,,,,,,,,0.04296875,-0.397135417,0,0,0,,0,40,40,47,1,BERRY,C,old,m,./images/BERRY.png,,,,,,,,,,,,,,,,,,,,,,,,,,,,,,,,,,
,,,,,,,,,,,,,,,,,612d435206d267d587b12789,57,2022-02-12_17h57.21.256,lexical_decision_task_DD_L2,2021.2.3,Win32,60.09976561,,,,,,,,,,,,0.9554,1,,,,,,,,,,,,,,m,1,0.9554,,,,,,,,0.04296875,-0.397135417,0,0,0,space,0,41,41,76,1,INFANT,LB,old,m,./images/INFANTLB.png,17.8193,,,,,,,,,,,,,,,,,,,,,,,,,,,,,,,,,
,,,,,,,,,,,,,,,,,612d435206d267d587b12789,57,2022-02-12_17h57.21.256,lexical_decision_task_DD_L2,2021.2.3,Win32,60.09976561,,,,,,,,,,,,1.0037,1,,,,,,,,,,,,,,m,1,1.0037,,,,,,,,0.04296875,-0.397135417,0,0,0,,0,42,42,8,1,TULIP,C,old,m,./images/TULIP.png,,,,,,,,,,,,,,,,,,,,,,,,,,,,,,,,,,
,,,,,,,,,,,,,,,,,612d435206d267d587b12789,57,2022-02-12_17h57.21.256,lexical_decision_task_DD_L2,2021.2.3,Win32,60.09976561,,,,,,,,,,,,1.8019,1,,,,,,,,,,,,,,z,1,1.8019,,,,,,,,0.04296875,-0.397135417,0,0,0,,0,43,43,162,1,LEICH,C,old,z,./images/LEICH.png,,,,,,,,,,,,,,,,,,,,,,,,,,,,,,,,,,
,,,,,,,,,,,,,,,,,612d435206d267d587b12789,57,2022-02-12_17h57.21.256,lexical_decision_task_DD_L2,2021.2.3,Win32,60.09976561,,,,,,,,,,,,1.8522,1,,,,,,,,,,,,,,z,1,1.8522,,,,,,,,0.04296875,-0.397135417,0,0,0,,0,44,44,148,1,JOMS,HB,old,z,./images/JOMSHB.png,,,,,,,,,,,,,,,,,,,,,,,,,,,,,,,,,,
,,,,,,,,,,,,,,,,,612d435206d267d587b12789,57,2022-02-12_17h57.21.256,lexical_decision_task_DD_L2,2021.2.3,Win32,60.09976561,,,,,,,,,,,,0.8854,1,,,,,,,,,,,,,,z,1,0.8854,,,,,,,,0.04296875,-0.397135417,0,0,0,,0,45,45,104,1,GITTY,LB,old,z,./images/GITTYLB.png,,,,,,,,,,,,,,,,,,,,,,,,,,,,,,,,,,
,,,,,,,,,,,,,,,,,612d435206d267d587b12789,57,2022-02-12_17h57.21.256,lexical_decision_task_DD_L2,2021.2.3,Win32,60.09976561,,,,,,,,,,,,0.8949,1,,,,,,,,,,,,,,m,1,0.8949,,,,,,,,0.04296875,-0.397135417,0,0,0,,0,46,46,0,1,TOMATO,HB,old,m,./images/TOMATOHB.png,,,,,,,,,,,,,,,,,,,,,,,,,,,,,,,,,,
,,,,,,,,,,,,,,,,,612d435206d267d587b12789,57,2022-02-12_17h57.21.256,lexical_decision_task_DD_L2,2021.2.3,Win32,60.09976561,,,,,,,,,,,,1.2692,1,,,,,,,,,,,,,,z,1,1.2692,,,,,,,,0.04296875,-0.397135417,0,0,0,,0,47,47,95,1,HANTY,LB,old,z,./images/HANTYLB.png,,,,,,,,,,,,,,,,,,,,,,,,,,,,,,,,,,
,,,,,,,,,,,,,,,,,612d435206d267d587b12789,57,2022-02-12_17h57.21.256,lexical_decision_task_DD_L2,2021.2.3,Win32,60.09976561,,,,,,,,,,,,1.1451,1,,,,,,,,,,,,,,z,1,1.1451,,,,,,,,0.04296875,-0.397135417,0,0,0,,0,48,48,136,1,WERVE,HB,old,z,./images/WERVEHB.png,,,,,,,,,,,,,,,,,,,,,,,,,,,,,,,,,,
,,,,,,,,,,,,,,,,,612d435206d267d587b12789,57,2022-02-12_17h57.21.256,lexical_decision_task_DD_L2,2021.2.3,Win32,60.09976561,,,,,,,,,,,,0.9685,1,,,,,,,,,,,,,,z,1,0.9685,,,,,,,,0.04296875,-0.397135417,0,0,0,,0,49,49,153,1,CLUPS,C,old,z,./images/CLUPS.png,,,,,,,,,,,,,,,,,,,,,,,,,,,,,,,,,,
,,,,,,,,,,,,,,,,,612d435206d267d587b12789,57,2022-02-12_17h57.21.256,lexical_decision_task_DD_L2,2021.2.3,Win32,60.09976561,,,,,,,,,,,,0.8842,1,,,,,,,,,,,,,,z,1,0.8842,,,,,,,,0.04296875,-0.397135417,0,0,0,,0,50,50,147,1,ZOLES,C,old,z,./images/ZOLES.png,,,,,,,,,,,,,,,,,,,,,,,,,,,,,,,,,,
,,,,,,,,,,,,,,,,,612d435206d267d587b12789,57,2022-02-12_17h57.21.256,lexical_decision_task_DD_L2,2021.2.3,Win32,60.09976561,,,,,,,,,,,,0.7181,1,,,,,,,,,,,,,,m,1,0.7181,,,,,,,,0.04296875,-0.397135417,0,0,0,,0,51,51,52,1,BANNER,LB,old,m,./images/BANNERLB.png,,,,,,,,,,,,,,,,,,,,,,,,,,,,,,,,,,
,,,,,,,,,,,,,,,,,612d435206d267d587b12789,57,2022-02-12_17h57.21.256,lexical_decision_task_DD_L2,2021.2.3,Win32,60.09976561,,,,,,,,,,,,1.1795,1,,,,,,,,,,,,,,m,1,1.1795,,,,,,,,0.04296875,-0.397135417,0,0,0,,0,52,52,44,1,LIZARD,C,old,m,./images/LIZARD.png,,,,,,,,,,,,,,,,,,,,,,,,,,,,,,,,,,
,,,,,,,,,,,,,,,,,612d435206d267d587b12789,57,2022-02-12_17h57.21.256,lexical_decision_task_DD_L2,2021.2.3,Win32,60.09976561,,,,,,,,,,,,0.8359,1,,,,,,,,,,,,,,z,1,0.8359,,,,,,,,0.04296875,-0.397135417,0,0,0,,0,53,53,125,1,MOOKY,LB,old,z,./images/MOOKYLB.png,,,,,,,,,,,,,,,,,,,,,,,,,,,,,,,,,,
,,,,,,,,,,,,,,,,,612d435206d267d587b12789,57,2022-02-12_17h57.21.256,lexical_decision_task_DD_L2,2021.2.3,Win32,60.09976561,,,,,,,,,,,,1.0088,1,,,,,,,,,,,,,,m,1,1.0088,,,,,,,,0.04296875,-0.397135417,0,0,0,,0,54,54,31,1,QUILL,LB,old,m,./images/QUILLLB.png,,,,,,,,,,,,,,,,,,,,,,,,,,,,,,,,,,
,,,,,,,,,,,,,,,,,612d435206d267d587b12789,57,2022-02-12_17h57.21.256,lexical_decision_task_DD_L2,2021.2.3,Win32,60.09976561,,,,,,,,,,,,1.3398,1,,,,,,,,,,,,,,z,1,1.3398,,,,,,,,0.04296875,-0.397135417,0,0,0,,0,55,55,121,1,CEERS,HB,old,z,./images/CEERSHB.png,,,,,,,,,,,,,,,,,,,,,,,,,,,,,,,,,,
,,,,,,,,,,,,,,,,,612d435206d267d587b12789,57,2022-02-12_17h57.21.256,lexical_decision_task_DD_L2,2021.2.3,Win32,60.09976561,,,,,,,,,,,,1.421,1,,,,,,,,,,,,,,z,1,1.421,,,,,,,,0.04296875,-0.397135417,0,0,0,,0,56,56,97,1,CHIDS,HB,old,z,./images/CHIDSHB.png,,,,,,,,,,,,,,,,,,,,,,,,,,,,,,,,,,
,,,,,,,,,,,,,,,,,612d435206d267d587b12789,57,2022-02-12_17h57.21.256,lexical_decision_task_DD_L2,2021.2.3,Win32,60.09976561,,,,,,,,,,,,1.1326,0,,,,,,,,,,,,,,z,0,1.1326,,,,,,,,0.04296875,-0.397135417,0,0,0,,0,57,57,33,1,MAGGOT,HB,old,m,./images/MAGGOTHB.png,,,,,,,,,,,,,,,,,,,,,,,,,,,,,,,,,,
,,,,,,,,,,,,,,,,,612d435206d267d587b12789,57,2022-02-12_17h57.21.256,lexical_decision_task_DD_L2,2021.2.3,Win32,60.09976561,,,,,,,,,,,,0.6457,1,,,,,,,,,,,,,,m,1,0.6457,,,,,,,,0.04296875,-0.397135417,0,0,0,,0,58,58,40,1,SWING,LB,old,m,./images/SWINGLB.png,,,,,,,,,,,,,,,,,,,,,,,,,,,,,,,,,,
,,,,,,,,,,,,,,,,,612d435206d267d587b12789,57,2022-02-12_17h57.21.256,lexical_decision_task_DD_L2,2021.2.3,Win32,60.09976561,,,,,,,,,,,,1.2936,1,,,,,,,,,,,,,,z,1,1.2936,,,,,,,,0.04296875,-0.397135417,0,0,0,,0,59,59,133,1,POWDY,HB,old,z,./images/POWDYHB.png,,,,,,,,,,,,,,,,,,,,,,,,,,,,,,,,,,
,,,,,,,,,,,,,,,,,612d435206d267d587b12789,57,2022-02-12_17h57.21.256,lexical_decision_task_DD_L2,2021.2.3,Win32,60.09976561,,,,,,,,,,,,0.7997,1,,,,,,,,,,,,,,m,1,0.7997,,,,,,,,0.04296875,-0.397135417,0,0,0,,0,60,60,79,1,CRUST,LB,old,m,./images/CRUSTLB.png,,,,,,,,,,,,,,,,,,,,,,,,,,,,,,,,,,
,,,,,,,,,,,,,,,,,612d435206d267d587b12789,57,2022-02-12_17h57.21.256,lexical_decision_task_DD_L2,2021.2.3,Win32,60.09976561,,,,,,,,,,,,0.8838,1,,,,,,,,,,,,,,m,1,0.8838,,,,,,,,0.04296875,-0.397135417,0,0,0,,0,61,61,24,1,SCREW,HB,old,m,./images/SCREWHB.png,,,,,,,,,,,,,,,,,,,,,,,,,,,,,,,,,,
,,,,,,,,,,,,,,,,,612d435206d267d587b12789,57,2022-02-12_17h57.21.256,lexical_decision_task_DD_L2,2021.2.3,Win32,60.09976561,,,,,,,,,,,,0.8483,1,,,,,,,,,,,,,,z,1,0.8483,,,,,,,,0.04296875,-0.397135417,0,0,0,,0,62,62,98,1,BAMPS,LB,old,z,./images/BAMPSLB.png,,,,,,,,,,,,,,,,,,,,,,,,,,,,,,,,,,
,,,,,,,,,,,,,,,,,612d435206d267d587b12789,57,2022-02-12_17h57.21.256,lexical_decision_task_DD_L2,2021.2.3,Win32,60.09976561,,,,,,,,,,,,0.7619,1,,,,,,,,,,,,,,m,1,0.7619,,,,,,,,0.04296875,-0.397135417,0,0,0,,0,63,63,19,1,DOUGH,LB,old,m,./images/DOUGHLB.png,,,,,,,,,,,,,,,,,,,,,,,,,,,,,,,,,,
,,,,,,,,,,,,,,,,,612d435206d267d587b12789,57,2022-02-12_17h57.21.256,lexical_decision_task_DD_L2,2021.2.3,Win32,60.09976561,,,,,,,,,,,,0.9691,0,,,,,,,,,,,,,,m,0,0.9691,,,,,,,,0.04296875,-0.397135417,0,0,0,,0,64,64,158,1,EGECT,LB,old,z,./images/EGECTLB.png,,,,,,,,,,,,,,,,,,,,,,,,,,,,,,,,,,
,,,,,,,,,,,,,,,,,612d435206d267d587b12789,57,2022-02-12_17h57.21.256,lexical_decision_task_DD_L2,2021.2.3,Win32,60.09976561,,,,,,,,,,,,0.8785,1,,,,,,,,,,,,,,z,1,0.8785,,,,,,,,0.04296875,-0.397135417,0,0,0,,0,65,65,117,1,STEEG,C,old,z,./images/STEEG.png,,,,,,,,,,,,,,,,,,,,,,,,,,,,,,,,,,
,,,,,,,,,,,,,,,,,612d435206d267d587b12789,57,2022-02-12_17h57.21.256,lexical_decision_task_DD_L2,2021.2.3,Win32,60.09976561,,,,,,,,,,,,0.81,1,,,,,,,,,,,,,,z,1,0.81,,,,,,,,0.04296875,-0.397135417,0,0,0,,0,66,66,161,1,BLAPS,LB,old,z,./images/BLAPSLB.png,,,,,,,,,,,,,,,,,,,,,,,,,,,,,,,,,,
,,,,,,,,,,,,,,,,,612d435206d267d587b12789,57,2022-02-12_17h57.21.256,lexical_decision_task_DD_L2,2021.2.3,Win32,60.09976561,,,,,,,,,,,,0.9254,1,,,,,,,,,,,,,,m,1,0.9254,,,,,,,,0.04296875,-0.397135417,0,0,0,,0,67,67,43,1,MOSQUE,LB,old,m,./images/MOSQUELB.png,,,,,,,,,,,,,,,,,,,,,,,,,,,,,,,,,,
,,,,,,,,,,,,,,,,,612d435206d267d587b12789,57,2022-02-12_17h57.21.256,lexical_decision_task_DD_L2,2021.2.3,Win32,60.09976561,,,,,,,,,,,,1.0062,1,,,,,,,,,,,,,,m,1,1.0062,,,,,,,,0.04296875,-0.397135417,0,0,0,,0,68,68,4,1,MUSCLE,LB,old,m,./images/MUSCLELB.png,,,,,,,,,,,,,,,,,,,,,,,,,,,,,,,,,,
,,,,,,,,,,,,,,,,,612d435206d267d587b12789,57,2022-02-12_17h57.21.256,lexical_decision_task_DD_L2,2021.2.3,Win32,60.09976561,,,,,,,,,,,,0.9564,1,,,,,,,,,,,,,,z,1,0.9564,,,,,,,,0.04296875,-0.397135417,0,0,0,,0,69,69,120,1,RINED,C,old,z,./images/RINED.png,,,,,,,,,,,,,,,,,,,,,,,,,,,,,,,,,,
,,,,,,,,,,,,,,,,,612d435206d267d587b12789,57,2022-02-12_17h57.21.256,lexical_decision_task_DD_L2,2021.2.3,Win32,60.09976561,,,,,,,,,,,,1.0537,1,,,,,,,,,,,,,,m,1,1.0537,,,,,,,,0.04296875,-0.397135417,0,0,0,,0,70,70,18,1,JAGUAR,HB,old,m,./images/JAGUARHB.png,,,,,,,,,,,,,,,,,,,,,,,,,,,,,,,,,,
,,,,,,,,,,,,,,,,,612d435206d267d587b12789,57,2022-02-12_17h57.21.256,lexical_decision_task_DD_L2,2021.2.3,Win32,60.09976561,,,,,,,,,,,,1.3722,1,,,,,,,,,,,,,,m,1,1.3722,,,,,,,,0.04296875,-0.397135417,0,0,0,,0,71,71,17,1,SKIING,C,old,m,./images/SKIING.png,,,,,,,,,,,,,,,,,,,,,,,,,,,,,,,,,,
,,,,,,,,,,,,,,,,,612d435206d267d587b12789,57,2022-02-12_17h57.21.256,lexical_decision_task_DD_L2,2021.2.3,Win32,60.09976561,,,,,,,,,,,,1.2615,1,,,,,,,,,,,,,,m,1,1.2615,,,,,,,,0.04296875,-0.397135417,0,0,0,,0,72,72,39,1,SHELF,HB,old,m,./images/SHELFHB.png,,,,,,,,,,,,,,,,,,,,,,,,,,,,,,,,,,
,,,,,,,,,,,,,,,,,612d435206d267d587b12789,57,2022-02-12_17h57.21.256,lexical_decision_task_DD_L2,2021.2.3,Win32,60.09976561,,,,,,,,,,,,1.0806,1,,,,,,,,,,,,,,m,1,1.0806,,,,,,,,0.04296875,-0.397135417,0,0,0,,0,73,73,50,1,MALLET,C,old,m,./images/MALLET.png,,,,,,,,,,,,,,,,,,,,,,,,,,,,,,,,,,
,,,,,,,,,,,,,,,,,612d435206d267d587b12789,57,2022-02-12_17h57.21.256,lexical_decision_task_DD_L2,2021.2.3,Win32,60.09976561,,,,,,,,,,,,0.9612,1,,,,,,,,,,,,,,z,1,0.9612,,,,,,,,0.04296875,-0.397135417,0,0,0,,0,74,74,160,1,VEETS,HB,old,z,./images/VEETSHB.png,,,,,,,,,,,,,,,,,,,,,,,,,,,,,,,,,,
,,,,,,,,,,,,,,,,,612d435206d267d587b12789,57,2022-02-12_17h57.21.256,lexical_decision_task_DD_L2,2021.2.3,Win32,60.09976561,,,,,,,,,,,,0.882,1,,,,,,,,,,,,,,z,1,0.882,,,,,,,,0.04296875,-0.397135417,0,0,0,,0,75,75,99,1,BACKY,C,old,z,./images/BACKY.png,,,,,,,,,,,,,,,,,,,,,,,,,,,,,,,,,,
,,,,,,,,,,,,,,,,,612d435206d267d587b12789,57,2022-02-12_17h57.21.256,lexical_decision_task_DD_L2,2021.2.3,Win32,60.09976561,,,,,,,,,,,,0.8421,1,,,,,,,,,,,,,,m,1,0.8421,,,,,,,,0.04296875,-0.397135417,0,0,0,,0,76,76,35,1,PEACH,C,old,m,./images/PEACH.png,,,,,,,,,,,,,,,,,,,,,,,,,,,,,,,,,,
,,,,,,,,,,,,,,,,,612d435206d267d587b12789,57,2022-02-12_17h57.21.256,lexical_decision_task_DD_L2,2021.2.3,Win32,60.09976561,,,,,,,,,,,,1.0498,1,,,,,,,,,,,,,,z,1,1.0498,,,,,,,,0.04296875,-0.397135417,0,0,0,,0,77,77,103,1,FLORT,HB,old,z,./images/FLORTHB.png,,,,,,,,,,,,,,,,,,,,,,,,,,,,,,,,,,
,,,,,,,,,,,,,,,,,612d435206d267d587b12789,57,2022-02-12_17h57.21.256,lexical_decision_task_DD_L2,2021.2.3,Win32,60.09976561,,,,,,,,,,,,0.9156,1,,,,,,,,,,,,,,m,1,0.9156,,,,,,,,0.04296875,-0.397135417,0,0,0,,0,78,78,29,1,CRUMB,C,old,m,./images/CRUMB.png,,,,,,,,,,,,,,,,,,,,,,,,,,,,,,,,,,
,,,,,,,,,,,,,,,,,612d435206d267d587b12789,57,2022-02-12_17h57.21.256,lexical_decision_task_DD_L2,2021.2.3,Win32,60.09976561,,,,,,,,,,,,0.8825,1,,,,,,,,,,,,,,z,1,0.8825,,,,,,,,0.04296875,-0.397135417,0,0,0,,0,79,79,167,1,ZONET,LB,old,z,./images/ZONETLB.png,,,,,,,,,,,,,,,,,,,,,,,,,,,,,,,,,,
,,,,,,,,,,,,,,,,,612d435206d267d587b12789,57,2022-02-12_17h57.21.256,lexical_decision_task_DD_L2,2021.2.3,Win32,60.09976561,,,,,,,,,,,,1.0491,1,,,,,,,,,,,,,,m,1,1.0491,,,,,,,,0.04296875,-0.397135417,0,0,0,,0,80,80,58,1,BABOON,LB,old,m,./images/BABOONLB.png,,,,,,,,,,,,,,,,,,,,,,,,,,,,,,,,,,
,,,,,,,,,,,,,,,,,612d435206d267d587b12789,57,2022-02-12_17h57.21.256,lexical_decision_task_DD_L2,2021.2.3,Win32,60.09976561,,,,,,,,,,,,0.9282,1,,,,,,,,,,,,,,m,1,0.9282,,,,,,,,0.04296875,-0.397135417,0,0,0,,0,81,81,55,1,MUFFIN,LB,old,m,./images/MUFFINLB.png,,,,,,,,,,,,,,,,,,,,,,,,,,,,,,,,,,
,,,,,,,,,,,,,,,,,612d435206d267d587b12789,57,2022-02-12_17h57.21.256,lexical_decision_task_DD_L2,2021.2.3,Win32,60.09976561,,,,,,,,,,,,0.8447,1,,,,,,,,,,,,,,m,1,0.8447,,,,,,,,0.04296875,-0.397135417,0,0,0,,0,82,82,49,1,DRUMS,LB,old,m,./images/DRUMSLB.png,,,,,,,,,,,,,,,,,,,,,,,,,,,,,,,,,,
,,,,,,,,,,,,,,,,,612d435206d267d587b12789,57,2022-02-12_17h57.21.256,lexical_decision_task_DD_L2,2021.2.3,Win32,60.09976561,,,,,,,,,,,,1.551,0,,,,,,,,,,,,,,m,0,1.551,,,,,,,,0.04296875,-0.397135417,0,0,0,space,0,83,83,132,1,SCIFF,C,old,z,./images/SCIFF.png,21.4575,,,,,,,,,,,,,,,,,,,,,,,,,,,,,,,,,
,,,,,,,,,,,,,,,,,612d435206d267d587b12789,57,2022-02-12_17h57.21.256,lexical_decision_task_DD_L2,2021.2.3,Win32,60.09976561,,,,,,,,,,,,1.4313,1,,,,,,,,,,,,,,z,1,1.4313,,,,,,,,0.04296875,-0.397135417,0,0,0,,0,84,84,134,1,TROSS,LB,old,z,./images/TROSSLB.png,,,,,,,,,,,,,,,,,,,,,,,,,,,,,,,,,,
,,,,,,,,,,,,,,,,,612d435206d267d587b12789,57,2022-02-12_17h57.21.256,lexical_decision_task_DD_L2,2021.2.3,Win32,60.09976561,,,,,,,,,,,,1.2548,1,,,,,,,,,,,,,,m,1,1.2548,,,,,,,,0.04296875,-0.397135417,0,0,0,,0,85,85,72,1,NOOSE,HB,old,m,./images/NOOSEHB.png,,,,,,,,,,,,,,,,,,,,,,,,,,,,,,,,,,
,,,,,,,,,,,,,,,,,612d435206d267d587b12789,57,2022-02-12_17h57.21.256,lexical_decision_task_DD_L2,2021.2.3,Win32,60.09976561,,,,,,,,,,,,1.1753,1,,,,,,,,,,,,,,m,1,1.1753,,,,,,,,0.04296875,-0.397135417,0,0,0,,0,86,86,70,1,URINE,LB,old,m,./images/URINELB.png,,,,,,,,,,,,,,,,,,,,,,,,,,,,,,,,,,
,,,,,,,,,,,,,,,,,612d435206d267d587b12789,57,2022-02-12_17h57.21.256,lexical_decision_task_DD_L2,2021.2.3,Win32,60.09976561,,,,,,,,,,,,0.9692,1,,,,,,,,,,,,,,m,1,0.9692,,,,,,,,0.04296875,-0.397135417,0,0,0,,0,87,87,81,1,POODLE,HB,old,m,./images/POODLEHB.png,,,,,,,,,,,,,,,,,,,,,,,,,,,,,,,,,,
,,,,,,,,,,,,,,,,,612d435206d267d587b12789,57,2022-02-12_17h57.21.256,lexical_decision_task_DD_L2,2021.2.3,Win32,60.09976561,,,,,,,,,,,,1.0943,1,,,,,,,,,,,,,,z,1,1.0943,,,,,,,,0.04296875,-0.397135417,0,0,0,,0,88,88,141,1,PLEET,C,old,z,./images/PLEET.png,,,,,,,,,,,,,,,,,,,,,,,,,,,,,,,,,,
,,,,,,,,,,,,,,,,,612d435206d267d587b12789,57,2022-02-12_17h57.21.256,lexical_decision_task_DD_L2,2021.2.3,Win32,60.09976561,,,,,,,,,,,,1.3034,1,,,,,,,,,,,,,,z,1,1.3034,,,,,,,,0.04296875,-0.397135417,0,0,0,,0,89,89,144,1,NAIRY,C,old,z,./images/NAIRY.png,,,,,,,,,,,,,,,,,,,,,,,,,,,,,,,,,,
,,,,,,,,,,,,,,,,,612d435206d267d587b12789,57,2022-02-12_17h57.21.256,lexical_decision_task_DD_L2,2021.2.3,Win32,60.09976561,,,,,,,,,,,,1.0025,1,,,,,,,,,,,,,,m,1,1.0025,,,,,,,,0.04296875,-0.397135417,0,0,0,,0,90,90,37,1,BIRTH,LB,old,m,./images/BIRTHLB.png,,,,,,,,,,,,,,,,,,,,,,,,,,,,,,,,,,
,,,,,,,,,,,,,,,,,612d435206d267d587b12789,57,2022-02-12_17h57.21.256,lexical_decision_task_DD_L2,2021.2.3,Win32,60.09976561,,,,,,,,,,,,0.9212,1,,,,,,,,,,,,,,m,1,0.9212,,,,,,,,0.04296875,-0.397135417,0,0,0,,0,91,91,65,1,FARMER,C,old,m,./images/FARMER.png,,,,,,,,,,,,,,,,,,,,,,,,,,,,,,,,,,
,,,,,,,,,,,,,,,,,612d435206d267d587b12789,57,2022-02-12_17h57.21.256,lexical_decision_task_DD_L2,2021.2.3,Win32,60.09976561,,,,,,,,,,,,1.1691,1,,,,,,,,,,,,,,z,1,1.1691,,,,,,,,0.04296875,-0.397135417,0,0,0,,0,92,92,91,1,SHENS,HB,old,z,./images/SHENSHB.png,,,,,,,,,,,,,,,,,,,,,,,,,,,,,,,,,,
,,,,,,,,,,,,,,,,,612d435206d267d587b12789,57,2022-02-12_17h57.21.256,lexical_decision_task_DD_L2,2021.2.3,Win32,60.09976561,,,,,,,,,,,,0.9354,1,,,,,,,,,,,,,,m,1,0.9354,,,,,,,,0.04296875,-0.397135417,0,0,0,,0,93,93,10,1,BELLY,LB,old,m,./images/BELLYLB.png,,,,,,,,,,,,,,,,,,,,,,,,,,,,,,,,,,
,,,,,,,,,,,,,,,,,612d435206d267d587b12789,57,2022-02-12_17h57.21.256,lexical_decision_task_DD_L2,2021.2.3,Win32,60.09976561,,,,,,,,,,,,0.8855,1,,,,,,,,,,,,,,m,1,0.8855,,,,,,,,0.04296875,-0.397135417,0,0,0,,0,94,94,38,1,LADDER,C,old,m,./images/LADDER.png,,,,,,,,,,,,,,,,,,,,,,,,,,,,,,,,,,
,,,,,,,,,,,,,,,,,612d435206d267d587b12789,57,2022-02-12_17h57.21.256,lexical_decision_task_DD_L2,2021.2.3,Win32,60.09976561,,,,,,,,,,,,1.0078,1,,,,,,,,,,,,,,z,1,1.0078,,,,,,,,0.04296875,-0.397135417,0,0,0,,0,95,95,149,1,VEASE,LB,old,z,./images/VEASELB.png,,,,,,,,,,,,,,,,,,,,,,,,,,,,,,,,,,
,,,,,,,,,,,,,,,,,612d435206d267d587b12789,57,2022-02-12_17h57.21.256,lexical_decision_task_DD_L2,2021.2.3,Win32,60.09976561,,,,,,,,,,,,1.1325,1,,,,,,,,,,,,,,z,1,1.1325,,,,,,,,0.04296875,-0.397135417,0,0,0,,0,96,96,85,1,CHULK,HB,old,z,./images/CHULKHB.png,,,,,,,,,,,,,,,,,,,,,,,,,,,,,,,,,,
,,,,,,,,,,,,,,,,,612d435206d267d587b12789,57,2022-02-12_17h57.21.256,lexical_decision_task_DD_L2,2021.2.3,Win32,60.09976561,,,,,,,,,,,,1.0521,1,,,,,,,,,,,,,,z,1,1.0521,,,,,,,,0.04296875,-0.397135417,0,0,0,,0,97,97,93,1,SMONE,C,old,z,./images/SMONE.png,,,,,,,,,,,,,,,,,,,,,,,,,,,,,,,,,,
,,,,,,,,,,,,,,,,,612d435206d267d587b12789,57,2022-02-12_17h57.21.256,lexical_decision_task_DD_L2,2021.2.3,Win32,60.09976561,,,,,,,,,,,,1.002,1,,,,,,,,,,,,,,z,1,1.002,,,,,,,,0.04296875,-0.397135417,0,0,0,,0,98,98,113,1,LINEW,LB,old,z,./images/LINEWLB.png,,,,,,,,,,,,,,,,,,,,,,,,,,,,,,,,,,
,,,,,,,,,,,,,,,,,612d435206d267d587b12789,57,2022-02-12_17h57.21.256,lexical_decision_task_DD_L2,2021.2.3,Win32,60.09976561,,,,,,,,,,,,0.9334,1,,,,,,,,,,,,,,m,1,0.9334,,,,,,,,0.04296875,-0.397135417,0,0,0,,0,99,99,53,1,CARPET,C,old,m,./images/CARPET.png,,,,,,,,,,,,,,,,,,,,,,,,,,,,,,,,,,
,,,,,,,,,,,,,,,,,612d435206d267d587b12789,57,2022-02-12_17h57.21.256,lexical_decision_task_DD_L2,2021.2.3,Win32,60.09976561,,,,,,,,,,,,1.8033,1,,,,,,,,,,,,,,z,1,1.8033,,,,,,,,0.04296875,-0.397135417,0,0,0,,0,100,100,88,1,GLUSH,HB,old,z,./images/GLUSHHB.png,,,,,,,,,,,,,,,,,,,,,,,,,,,,,,,,,,
,,,,,,,,,,,,,,,,,612d435206d267d587b12789,57,2022-02-12_17h57.21.256,lexical_decision_task_DD_L2,2021.2.3,Win32,60.09976561,,,,,,,,,,,,0.9221,1,,,,,,,,,,,,,,m,1,0.9221,,,,,,,,0.04296875,-0.397135417,0,0,0,,0,101,101,34,1,CANYON,LB,old,m,./images/CANYONLB.png,,,,,,,,,,,,,,,,,,,,,,,,,,,,,,,,,,
,,,,,,,,,,,,,,,,,612d435206d267d587b12789,57,2022-02-12_17h57.21.256,lexical_decision_task_DD_L2,2021.2.3,Win32,60.09976561,,,,,,,,,,,,1.0111,1,,,,,,,,,,,,,,m,1,1.0111,,,,,,,,0.04296875,-0.397135417,0,0,0,,0,102,102,68,1,TORCH,C,old,m,./images/TORCH.png,,,,,,,,,,,,,,,,,,,,,,,,,,,,,,,,,,
,,,,,,,,,,,,,,,,,612d435206d267d587b12789,57,2022-02-12_17h57.21.256,lexical_decision_task_DD_L2,2021.2.3,Win32,60.09976561,,,,,,,,,,,,1.1361,1,,,,,,,,,,,,,,m,1,1.1361,,,,,,,,0.04296875,-0.397135417,0,0,0,,0,103,103,82,1,SUNSET,LB,old,m,./images/SUNSETLB.png,,,,,,,,,,,,,,,,,,,,,,,,,,,,,,,,,,
,,,,,,,,,,,,,,,,,612d435206d267d587b12789,57,2022-02-12_17h57.21.256,lexical_decision_task_DD_L2,2021.2.3,Win32,60.09976561,,,,,,,,,,,,1.1846,1,,,,,,,,,,,,,,z,1,1.1846,,,,,,,,0.04296875,-0.397135417,0,0,0,,0,104,104,165,1,TROWN,C,old,z,./images/TROWN.png,,,,,,,,,,,,,,,,,,,,,,,,,,,,,,,,,,
,,,,,,,,,,,,,,,,,612d435206d267d587b12789,57,2022-02-12_17h57.21.256,lexical_decision_task_DD_L2,2021.2.3,Win32,60.09976561,,,,,,,,,,,,1.0088,1,,,,,,,,,,,,,,z,1,1.0088,,,,,,,,0.04296875,-0.397135417,0,0,0,,0,105,105,84,1,HAXES,C,old,z,./images/HAXES.png,,,,,,,,,,,,,,,,,,,,,,,,,,,,,,,,,,
,,,,,,,,,,,,,,,,,612d435206d267d587b12789,57,2022-02-12_17h57.21.256,lexical_decision_task_DD_L2,2021.2.3,Win32,60.09976561,,,,,,,,,,,,1.1715,1,,,,,,,,,,,,,,z,1,1.1715,,,,,,,,0.04296875,-0.397135417,0,0,0,,0,106,106,105,1,MOKER,C,old,z,./images/MOKER.png,,,,,,,,,,,,,,,,,,,,,,,,,,,,,,,,,,
,,,,,,,,,,,,,,,,,612d435206d267d587b12789,57,2022-02-12_17h57.21.256,lexical_decision_task_DD_L2,2021.2.3,Win32,60.09976561,,,,,,,,,,,,1.1227,1,,,,,,,,,,,,,,z,1,1.1227,,,,,,,,0.04296875,-0.397135417,0,0,0,,0,107,107,111,1,HOSSE,C,old,z,./images/HOSSE.png,,,,,,,,,,,,,,,,,,,,,,,,,,,,,,,,,,
,,,,,,,,,,,,,,,,,612d435206d267d587b12789,57,2022-02-12_17h57.21.256,lexical_decision_task_DD_L2,2021.2.3,Win32,60.09976561,,,,,,,,,,,,0.8851,1,,,,,,,,,,,,,,m,1,0.8851,,,,,,,,0.04296875,-0.397135417,0,0,0,,0,108,108,51,1,ONION,HB,old,m,./images/ONIONHB.png,,,,,,,,,,,,,,,,,,,,,,,,,,,,,,,,,,
,,,,,,,,,,,,,,,,,612d435206d267d587b12789,57,2022-02-12_17h57.21.256,lexical_decision_task_DD_L2,2021.2.3,Win32,60.09976561,,,,,,,,,,,,0.8297,1,,,,,,,,,,,,,,m,1,0.8297,,,,,,,,0.04296875,-0.397135417,0,0,0,,0,109,109,83,1,JUNGLE,C,old,m,./images/JUNGLE.png,,,,,,,,,,,,,,,,,,,,,,,,,,,,,,,,,,
,,,,,,,,,,,,,,,,,612d435206d267d587b12789,57,2022-02-12_17h57.21.256,lexical_decision_task_DD_L2,2021.2.3,Win32,60.09976561,,,,,,,,,,,,1.0143,1,,,,,,,,,,,,,,z,1,1.0143,,,,,,,,0.04296875,-0.397135417,0,0,0,,0,110,110,122,1,BLOOT,LB,old,z,./images/BLOOTLB.png,,,,,,,,,,,,,,,,,,,,,,,,,,,,,,,,,,
,,,,,,,,,,,,,,,,,612d435206d267d587b12789,57,2022-02-12_17h57.21.256,lexical_decision_task_DD_L2,2021.2.3,Win32,60.09976561,,,,,,,,,,,,1.0065,1,,,,,,,,,,,,,,m,1,1.0065,,,,,,,,0.04296875,-0.397135417,0,0,0,,0,111,111,5,1,PASTA,C,old,m,./images/PASTA.png,,,,,,,,,,,,,,,,,,,,,,,,,,,,,,,,,,
,,,,,,,,,,,,,,,,,612d435206d267d587b12789,57,2022-02-12_17h57.21.256,lexical_decision_task_DD_L2,2021.2.3,Win32,60.09976561,,,,,,,,,,,,1.0902,1,,,,,,,,,,,,,,m,1,1.0902,,,,,,,,0.04296875,-0.397135417,0,0,0,,0,112,112,11,1,BONNET,C,old,m,./images/BONNET.png,,,,,,,,,,,,,,,,,,,,,,,,,,,,,,,,,,
,,,,,,,,,,,,,,,,,612d435206d267d587b12789,57,2022-02-12_17h57.21.256,lexical_decision_task_DD_L2,2021.2.3,Win32,60.09976561,,,,,,,,,,,,0.9683,1,,,,,,,,,,,,,,m,1,0.9683,,,,,,,,0.04296875,-0.397135417,0,0,0,,0,113,113,13,1,MOTOR,LB,old,m,./images/MOTORLB.png,,,,,,,,,,,,,,,,,,,,,,,,,,,,,,,,,,
,,,,,,,,,,,,,,,,,612d435206d267d587b12789,57,2022-02-12_17h57.21.256,lexical_decision_task_DD_L2,2021.2.3,Win32,60.09976561,,,,,,,,,,,,0.8794,1,,,,,,,,,,,,,,m,1,0.8794,,,,,,,,0.04296875,-0.397135417,0,0,0,,0,114,114,71,1,PIMPLE,C,old,m,./images/PIMPLE.png,,,,,,,,,,,,,,,,,,,,,,,,,,,,,,,,,,
,,,,,,,,,,,,,,,,,612d435206d267d587b12789,57,2022-02-12_17h57.21.256,lexical_decision_task_DD_L2,2021.2.3,Win32,60.09976561,,,,,,,,,,,,1.0147,1,,,,,,,,,,,,,,z,1,1.0147,,,,,,,,0.04296875,-0.397135417,0,0,0,,0,115,115,138,1,PLICE,C,old,z,./images/PLICE.png,,,,,,,,,,,,,,,,,,,,,,,,,,,,,,,,,,
,,,,,,,,,,,,,,,,,612d435206d267d587b12789,57,2022-02-12_17h57.21.256,lexical_decision_task_DD_L2,2021.2.3,Win32,60.09976561,,,,,,,,,,,,1.7202,1,,,,,,,,,,,,,,z,1,1.7202,,,,,,,,0.04296875,-0.397135417,0,0,0,,0,116,116,151,1,TINKY,HB,old,z,./images/TINKYHB.png,,,,,,,,,,,,,,,,,,,,,,,,,,,,,,,,,,
,,,,,,,,,,,,,,,,,612d435206d267d587b12789,57,2022-02-12_17h57.21.256,lexical_decision_task_DD_L2,2021.2.3,Win32,60.09976561,,,,,,,,,,,,1.468,1,,,,,,,,,,,,,,z,1,1.468,,,,,,,,0.04296875,-0.397135417,0,0,0,,0,117,117,107,1,FASKS,LB,old,z,./images/FASKSLB.png,,,,,,,,,,,,,,,,,,,,,,,,,,,,,,,,,,
,,,,,,,,,,,,,,,,,612d435206d267d587b12789,57,2022-02-12_17h57.21.256,lexical_decision_task_DD_L2,2021.2.3,Win32,60.09976561,,,,,,,,,,,,0.8438,1,,,,,,,,,,,,,,m,1,0.8438,,,,,,,,0.04296875,-0.397135417,0,0,0,,0,118,118,15,1,GREASE,HB,old,m,./images/GREASEHB.png,,,,,,,,,,,,,,,,,,,,,,,,,,,,,,,,,,
,,,,,,,,,,,,,,,,,612d435206d267d587b12789,57,2022-02-12_17h57.21.256,lexical_decision_task_DD_L2,2021.2.3,Win32,60.09976561,,,,,,,,,,,,0.8011,1,,,,,,,,,,,,,,m,1,0.8011,,,,,,,,0.04296875,-0.397135417,0,0,0,,0,119,119,61,1,CANDLE,LB,old,m,./images/CANDLELB.png,,,,,,,,,,,,,,,,,,,,,,,,,,,,,,,,,,
,,,,,,,,,,,,,,,,,612d435206d267d587b12789,57,2022-02-12_17h57.21.256,lexical_decision_task_DD_L2,2021.2.3,Win32,60.09976561,,,,,,,,,,,,1.926,1,,,,,,,,,,,,,,z,1,1.926,,,,,,,,0.04296875,-0.397135417,0,0,0,,0,120,120,102,1,DULLE,C,old,z,./images/DULLE.png,,,,,,,,,,,,,,,,,,,,,,,,,,,,,,,,,,
,,,,,,,,,,,,,,,,,612d435206d267d587b12789,57,2022-02-12_17h57.21.256,lexical_decision_task_DD_L2,2021.2.3,Win32,60.09976561,,,,,,,,,,,,1.6291,1,,,,,,,,,,,,,,z,1,1.6291,,,,,,,,0.04296875,-0.397135417,0,0,0,,0,121,121,154,1,THINT,HB,old,z,./images/THINTHB.png,,,,,,,,,,,,,,,,,,,,,,,,,,,,,,,,,,
,,,,,,,,,,,,,,,,,612d435206d267d587b12789,57,2022-02-12_17h57.21.256,lexical_decision_task_DD_L2,2021.2.3,Win32,60.09976561,,,,,,,,,,,,0.8803,1,,,,,,,,,,,,,,m,1,0.8803,,,,,,,,0.04296875,-0.397135417,0,0,0,,0,122,122,80,1,WEASEL,C,old,m,./images/WEASEL.png,,,,,,,,,,,,,,,,,,,,,,,,,,,,,,,,,,
,,,,,,,,,,,,,,,,,612d435206d267d587b12789,57,2022-02-12_17h57.21.256,lexical_decision_task_DD_L2,2021.2.3,Win32,60.09976561,,,,,,,,,,,,0.9277,1,,,,,,,,,,,,,,m,1,0.9277,,,,,,,,0.04296875,-0.397135417,0,0,0,,0,123,123,6,1,SQUARE,HB,old,m,./images/SQUAREHB.png,,,,,,,,,,,,,,,,,,,,,,,,,,,,,,,,,,
,,,,,,,,,,,,,,,,,612d435206d267d587b12789,57,2022-02-12_17h57.21.256,lexical_decision_task_DD_L2,2021.2.3,Win32,60.09976561,,,,,,,,,,,,1.0412,1,,,,,,,,,,,,,,m,1,1.0412,,,,,,,,0.04296875,-0.397135417,0,0,0,,0,124,124,41,1,STRING,C,old,m,./images/STRING.png,,,,,,,,,,,,,,,,,,,,,,,,,,,,,,,,,,
,,,,,,,,,,,,,,,,,612d435206d267d587b12789,57,2022-02-12_17h57.21.256,lexical_decision_task_DD_L2,2021.2.3,Win32,60.09976561,,,,,,,,,,,,0.9374,1,,,,,,,,,,,,,,z,1,0.9374,,,,,,,,0.04296875,-0.397135417,0,0,0,space,0,125,125,131,1,NACES,LB,old,z,./images/NACESLB.png,22.3828,,,,,,,,,,,,,,,,,,,,,,,,,,,,,,,,,
,,,,,,,,,,,,,,,,,612d435206d267d587b12789,57,2022-02-12_17h57.21.256,lexical_decision_task_DD_L2,2021.2.3,Win32,60.09976561,,,,,,,,,,,,1.6009,1,,,,,,,,,,,,,,z,1,1.6009,,,,,,,,0.04296875,-0.397135417,0,0,0,,0,126,126,163,1,GAMBA,HB,old,z,./images/GAMBAHB.png,,,,,,,,,,,,,,,,,,,,,,,,,,,,,,,,,,
,,,,,,,,,,,,,,,,,612d435206d267d587b12789,57,2022-02-12_17h57.21.256,lexical_decision_task_DD_L2,2021.2.3,Win32,60.09976561,,,,,,,,,,,,1.0548,1,,,,,,,,,,,,,,z,1,1.0548,,,,,,,,0.04296875,-0.397135417,0,0,0,,0,127,127,116,1,BALGY,LB,old,z,./images/BALGYLB.png,,,,,,,,,,,,,,,,,,,,,,,,,,,,,,,,,,
,,,,,,,,,,,,,,,,,612d435206d267d587b12789,57,2022-02-12_17h57.21.256,lexical_decision_task_DD_L2,2021.2.3,Win32,60.09976561,,,,,,,,,,,,0.7999,1,,,,,,,,,,,,,,m,1,0.7999,,,,,,,,0.04296875,-0.397135417,0,0,0,,0,128,128,25,1,WRIST,LB,old,m,./images/WRISTLB.png,,,,,,,,,,,,,,,,,,,,,,,,,,,,,,,,,,
,,,,,,,,,,,,,,,,,612d435206d267d587b12789,57,2022-02-12_17h57.21.256,lexical_decision_task_DD_L2,2021.2.3,Win32,60.09976561,,,,,,,,,,,,1.0045,1,,,,,,,,,,,,,,z,1,1.0045,,,,,,,,0.04296875,-0.397135417,0,0,0,,0,129,129,86,1,AIFED,LB,old,z,./images/AIFEDLB.png,,,,,,,,,,,,,,,,,,,,,,,,,,,,,,,,,,
,,,,,,,,,,,,,,,,,612d435206d267d587b12789,57,2022-02-12_17h57.21.256,lexical_decision_task_DD_L2,2021.2.3,Win32,60.09976561,,,,,,,,,,,,1.0132,1,,,,,,,,,,,,,,m,1,1.0132,,,,,,,,0.04296875,-0.397135417,0,0,0,,0,130,130,64,1,JELLY,LB,old,m,./images/JELLYLB.png,,,,,,,,,,,,,,,,,,,,,,,,,,,,,,,,,,
,,,,,,,,,,,,,,,,,612d435206d267d587b12789,57,2022-02-12_17h57.21.256,lexical_decision_task_DD_L2,2021.2.3,Win32,60.09976561,,,,,,,,,,,,1.1299,0,,,,,,,,,,,,,,z,0,1.1299,,,,,,,,0.04296875,-0.397135417,0,0,0,,0,131,131,16,1,PENCE,LB,old,m,./images/PENCELB.png,,,,,,,,,,,,,,,,,,,,,,,,,,,,,,,,,,
,,,,,,,,,,,,,,,,,612d435206d267d587b12789,57,2022-02-12_17h57.21.256,lexical_decision_task_DD_L2,2021.2.3,Win32,60.09976561,,,,,,,,,,,,1.0912,1,,,,,,,,,,,,,,m,1,1.0912,,,,,,,,0.04296875,-0.397135417,0,0,0,,0,132,132,67,1,SAILOR,LB,old,m,./images/SAILORLB.png,,,,,,,,,,,,,,,,,,,,,,,,,,,,,,,,,,
,,,,,,,,,,,,,,,,,612d435206d267d587b12789,57,2022-02-12_17h57.21.256,lexical_decision_task_DD_L2,2021.2.3,Win32,60.09976561,,,,,,,,,,,,1.0086,1,,,,,,,,,,,,,,z,1,1.0086,,,,,,,,0.04296875,-0.397135417,0,0,0,,0,133,133,150,1,NOOLS,C,old,z,./images/NOOLS.png,,,,,,,,,,,,,,,,,,,,,,,,,,,,,,,,,,
,,,,,,,,,,,,,,,,,612d435206d267d587b12789,57,2022-02-12_17h57.21.256,lexical_decision_task_DD_L2,2021.2.3,Win32,60.09976561,,,,,,,,,,,,1.0973,1,,,,,,,,,,,,,,z,1,1.0973,,,,,,,,0.04296875,-0.397135417,0,0,0,,0,134,134,126,1,GUELS,C,old,z,./images/GUELS.png,,,,,,,,,,,,,,,,,,,,,,,,,,,,,,,,,,
,,,,,,,,,,,,,,,,,612d435206d267d587b12789,57,2022-02-12_17h57.21.256,lexical_decision_task_DD_L2,2021.2.3,Win32,60.09976561,,,,,,,,,,,,0.9713,1,,,,,,,,,,,,,,m,1,0.9713,,,,,,,,0.04296875,-0.397135417,0,0,0,,0,135,135,27,1,ATTIC,HB,old,m,./images/ATTICHB.png,,,,,,,,,,,,,,,,,,,,,,,,,,,,,,,,,,
,,,,,,,,,,,,,,,,,612d435206d267d587b12789,57,2022-02-12_17h57.21.256,lexical_decision_task_DD_L2,2021.2.3,Win32,60.09976561,,,,,,,,,,,,1.423,1,,,,,,,,,,,,,,z,1,1.423,,,,,,,,0.04296875,-0.397135417,0,0,0,,0,136,136,94,1,BLANS,HB,old,z,./images/BLANSHB.png,,,,,,,,,,,,,,,,,,,,,,,,,,,,,,,,,,
,,,,,,,,,,,,,,,,,612d435206d267d587b12789,57,2022-02-12_17h57.21.256,lexical_decision_task_DD_L2,2021.2.3,Win32,60.09976561,,,,,,,,,,,,1.0516,1,,,,,,,,,,,,,,z,1,1.0516,,,,,,,,0.04296875,-0.397135417,0,0,0,,0,137,137,100,1,DRIBS,HB,old,z,./images/DRIBSHB.png,,,,,,,,,,,,,,,,,,,,,,,,,,,,,,,,,,
,,,,,,,,,,,,,,,,,612d435206d267d587b12789,57,2022-02-12_17h57.21.256,lexical_decision_task_DD_L2,2021.2.3,Win32,60.09976561,,,,,,,,,,,,2.7678,1,,,,,,,,,,,,,,z,1,2.7678,,,,,,,,0.04296875,-0.397135417,0,0,0,,0,138,138,139,1,BLEAR,HB,old,z,./images/BLEARHB.png,,,,,,,,,,,,,,,,,,,,,,,,,,,,,,,,,,
,,,,,,,,,,,,,,,,,612d435206d267d587b12789,57,2022-02-12_17h57.21.256,lexical_decision_task_DD_L2,2021.2.3,Win32,60.09976561,,,,,,,,,,,,1.7485,1,,,,,,,,,,,,,,z,1,1.7485,,,,,,,,0.04296875,-0.397135417,0,0,0,,0,139,139,140,1,DOVET,LB,old,z,./images/DOVETLB.png,,,,,,,,,,,,,,,,,,,,,,,,,,,,,,,,,,
,,,,,,,,,,,,,,,,,612d435206d267d587b12789,57,2022-02-12_17h57.21.256,lexical_decision_task_DD_L2,2021.2.3,Win32,60.09976561,,,,,,,,,,,,2.1317,1,,,,,,,,,,,,,,z,1,2.1317,,,,,,,,0.04296875,-0.397135417,0,0,0,,0,140,140,142,1,PLASK,HB,old,z,./images/PLASKHB.png,,,,,,,,,,,,,,,,,,,,,,,,,,,,,,,,,,
,,,,,,,,,,,,,,,,,612d435206d267d587b12789,57,2022-02-12_17h57.21.256,lexical_decision_task_DD_L2,2021.2.3,Win32,60.09976561,,,,,,,,,,,,0.803,1,,,,,,,,,,,,,,m,1,0.803,,,,,,,,0.04296875,-0.397135417,0,0,0,,0,141,141,22,1,MELON,LB,old,m,./images/MELONLB.png,,,,,,,,,,,,,,,,,,,,,,,,,,,,,,,,,,
,,,,,,,,,,,,,,,,,612d435206d267d587b12789,57,2022-02-12_17h57.21.256,lexical_decision_task_DD_L2,2021.2.3,Win32,60.09976561,,,,,,,,,,,,1.5083,1,,,,,,,,,,,,,,z,1,1.5083,,,,,,,,0.04296875,-0.397135417,0,0,0,,0,142,142,145,1,LAMEL,HB,old,z,./images/LAMELHB.png,,,,,,,,,,,,,,,,,,,,,,,,,,,,,,,,,,
,,,,,,,,,,,,,,,,,612d435206d267d587b12789,57,2022-02-12_17h57.21.256,lexical_decision_task_DD_L2,2021.2.3,Win32,60.09976561,,,,,,,,,,,,1.1362,1,,,,,,,,,,,,,,z,1,1.1362,,,,,,,,0.04296875,-0.397135417,0,0,0,,0,143,143,114,1,RIKES,C,old,z,./images/RIKES.png,,,,,,,,,,,,,,,,,,,,,,,,,,,,,,,,,,
,,,,,,,,,,,,,,,,,612d435206d267d587b12789,57,2022-02-12_17h57.21.256,lexical_decision_task_DD_L2,2021.2.3,Win32,60.09976561,,,,,,,,,,,,1.6195,1,,,,,,,,,,,,,,z,1,1.6195,,,,,,,,0.04296875,-0.397135417,0,0,0,,0,144,144,112,1,MYING,HB,old,z,./images/MYINGHB.png,,,,,,,,,,,,,,,,,,,,,,,,,,,,,,,,,,
,,,,,,,,,,,,,,,,,612d435206d267d587b12789,57,2022-02-12_17h57.21.256,lexical_decision_task_DD_L2,2021.2.3,Win32,60.09976561,,,,,,,,,,,,0.9502,1,,,,,,,,,,,,,,m,1,0.9502,,,,,,,,0.04296875,-0.397135417,0,0,0,,0,145,145,45,1,KITTEN,HB,old,m,./images/KITTENHB.png,,,,,,,,,,,,,,,,,,,,,,,,,,,,,,,,,,
,,,,,,,,,,,,,,,,,612d435206d267d587b12789,57,2022-02-12_17h57.21.256,lexical_decision_task_DD_L2,2021.2.3,Win32,60.09976561,,,,,,,,,,,,1.1344,1,,,,,,,,,,,,,,z,1,1.1344,,,,,,,,0.04296875,-0.397135417,0,0,0,,0,146,146,123,1,SEDGE,C,old,z,./images/SEDGE.png,,,,,,,,,,,,,,,,,,,,,,,,,,,,,,,,,,
,,,,,,,,,,,,,,,,,612d435206d267d587b12789,57,2022-02-12_17h57.21.256,lexical_decision_task_DD_L2,2021.2.3,Win32,60.09976561,,,,,,,,,,,,1.4774,1,,,,,,,,,,,,,,m,1,1.4774,,,,,,,,0.04296875,-0.397135417,0,0,0,,0,147,147,56,1,PACKET,C,old,m,./images/PACKET.png,,,,,,,,,,,,,,,,,,,,,,,,,,,,,,,,,,
,,,,,,,,,,,,,,,,,612d435206d267d587b12789,57,2022-02-12_17h57.21.256,lexical_decision_task_DD_L2,2021.2.3,Win32,60.09976561,,,,,,,,,,,,1.0987,1,,,,,,,,,,,,,,m,1,1.0987,,,,,,,,0.04296875,-0.397135417,0,0,0,,0,148,148,7,1,PAINT,LB,old,m,./images/PAINTLB.png,,,,,,,,,,,,,,,,,,,,,,,,,,,,,,,,,,
,,,,,,,,,,,,,,,,,612d435206d267d587b12789,57,2022-02-12_17h57.21.256,lexical_decision_task_DD_L2,2021.2.3,Win32,60.09976561,,,,,,,,,,,,1.4958,1,,,,,,,,,,,,,,m,1,1.4958,,,,,,,,0.04296875,-0.397135417,0,0,0,,0,149,149,20,1,CRADLE,C,old,m,./images/CRADLE.png,,,,,,,,,,,,,,,,,,,,,,,,,,,,,,,,,,
,,,,,,,,,,,,,,,,,612d435206d267d587b12789,57,2022-02-12_17h57.21.256,lexical_decision_task_DD_L2,2021.2.3,Win32,60.09976561,,,,,,,,,,,,1.9388,1,,,,,,,,,,,,,,z,1,1.9388,,,,,,,,0.04296875,-0.397135417,0,0,0,,0,150,150,118,1,BAVEL,HB,old,z,./images/BAVELHB.png,,,,,,,,,,,,,,,,,,,,,,,,,,,,,,,,,,
,,,,,,,,,,,,,,,,,612d435206d267d587b12789,57,2022-02-12_17h57.21.256,lexical_decision_task_DD_L2,2021.2.3,Win32,60.09976561,,,,,,,,,,,,0.9639,1,,,,,,,,,,,,,,m,1,0.9639,,,,,,,,0.04296875,-0.397135417,0,0,0,,0,151,151,2,1,BEARD,C,old,m,./images/BEARD.png,,,,,,,,,,,,,,,,,,,,,,,,,,,,,,,,,,
,,,,,,,,,,,,,,,,,612d435206d267d587b12789,57,2022-02-12_17h57.21.256,lexical_decision_task_DD_L2,2021.2.3,Win32,60.09976561,,,,,,,,,,,,1.9199,1,,,,,,,,,,,,,,z,1,1.9199,,,,,,,,0.04296875,-0.397135417,0,0,0,,0,152,152,109,1,BURGE,HB,old,z,./images/BURGEHB.png,,,,,,,,,,,,,,,,,,,,,,,,,,,,,,,,,,
,,,,,,,,,,,,,,,,,612d435206d267d587b12789,57,2022-02-12_17h57.21.256,lexical_decision_task_DD_L2,2021.2.3,Win32,60.09976561,,,,,,,,,,,,1.0518,1,,,,,,,,,,,,,,z,1,1.0518,,,,,,,,0.04296875,-0.397135417,0,0,0,,0,153,153,129,1,PRANS,C,old,z,./images/PRANS.png,,,,,,,,,,,,,,,,,,,,,,,,,,,,,,,,,,
,,,,,,,,,,,,,,,,,612d435206d267d587b12789,57,2022-02-12_17h57.21.256,lexical_decision_task_DD_L2,2021.2.3,Win32,60.09976561,,,,,,,,,,,,1.0114,1,,,,,,,,,,,,,,m,1,1.0114,,,,,,,,0.04296875,-0.397135417,0,0,0,,0,154,154,12,1,SHORE,HB,old,m,./images/SHOREHB.png,,,,,,,,,,,,,,,,,,,,,,,,,,,,,,,,,,
,,,,,,,,,,,,,,,,,612d435206d267d587b12789,57,2022-02-12_17h57.21.256,lexical_decision_task_DD_L2,2021.2.3,Win32,60.09976561,,,,,,,,,,,,1.0443,1,,,,,,,,,,,,,,m,1,1.0443,,,,,,,,0.04296875,-0.397135417,0,0,0,,0,155,155,54,1,TRIPOD,HB,old,m,./images/TRIPODHB.png,,,,,,,,,,,,,,,,,,,,,,,,,,,,,,,,,,
,,,,,,,,,,,,,,,,,612d435206d267d587b12789,57,2022-02-12_17h57.21.256,lexical_decision_task_DD_L2,2021.2.3,Win32,60.09976561,,,,,,,,,,,,1.2565,1,,,,,,,,,,,,,,m,1,1.2565,,,,,,,,0.04296875,-0.397135417,0,0,0,,0,156,156,57,1,MOOSE,HB,old,m,./images/MOOSEHB.png,,,,,,,,,,,,,,,,,,,,,,,,,,,,,,,,,,
,,,,,,,,,,,,,,,,,612d435206d267d587b12789,57,2022-02-12_17h57.21.256,lexical_decision_task_DD_L2,2021.2.3,Win32,60.09976561,,,,,,,,,,,,1.0089,1,,,,,,,,,,,,,,z,1,1.0089,,,,,,,,0.04296875,-0.397135417,0,0,0,,0,157,157,96,1,KEAMS,C,old,z,./images/KEAMS.png,,,,,,,,,,,,,,,,,,,,,,,,,,,,,,,,,,
,,,,,,,,,,,,,,,,,612d435206d267d587b12789,57,2022-02-12_17h57.21.256,lexical_decision_task_DD_L2,2021.2.3,Win32,60.09976561,,,,,,,,,,,,0.8865,1,,,,,,,,,,,,,,m,1,0.8865,,,,,,,,0.04296875,-0.397135417,0,0,0,,0,158,158,32,1,BARREL,C,old,m,./images/BARREL.png,,,,,,,,,,,,,,,,,,,,,,,,,,,,,,,,,,
,,,,,,,,,,,,,,,,,612d435206d267d587b12789,57,2022-02-12_17h57.21.256,lexical_decision_task_DD_L2,2021.2.3,Win32,60.09976561,,,,,,,,,,,,1.3841,1,,,,,,,,,,,,,,z,1,1.3841,,,,,,,,0.04296875,-0.397135417,0,0,0,,0,159,159,137,1,JOOST,LB,old,z,./images/JOOSTLB.png,,,,,,,,,,,,,,,,,,,,,,,,,,,,,,,,,,
,,,,,,,,,,,,,,,,,612d435206d267d587b12789,57,2022-02-12_17h57.21.256,lexical_decision_task_DD_L2,2021.2.3,Win32,60.09976561,,,,,,,,,,,,1.3742,1,,,,,,,,,,,,,,z,1,1.3742,,,,,,,,0.04296875,-0.397135417,0,0,0,,0,160,160,164,1,SGREW,LB,old,z,./images/SGREWLB.png,,,,,,,,,,,,,,,,,,,,,,,,,,,,,,,,,,
,,,,,,,,,,,,,,,,,612d435206d267d587b12789,57,2022-02-12_17h57.21.256,lexical_decision_task_DD_L2,2021.2.3,Win32,60.09976561,,,,,,,,,,,,0.8771,1,,,,,,,,,,,,,,m,1,0.8771,,,,,,,,0.04296875,-0.397135417,0,0,0,,0,161,161,63,1,MIRROR,HB,old,m,./images/MIRRORHB.png,,,,,,,,,,,,,,,,,,,,,,,,,,,,,,,,,,
,,,,,,,,,,,,,,,,,612d435206d267d587b12789,57,2022-02-12_17h57.21.256,lexical_decision_task_DD_L2,2021.2.3,Win32,60.09976561,,,,,,,,,,,,1.2274,1,,,,,,,,,,,,,,m,1,1.2274,,,,,,,,0.04296875,-0.397135417,0,0,0,,0,162,162,60,1,TWINS,HB,old,m,./images/TWINSHB.png,,,,,,,,,,,,,,,,,,,,,,,,,,,,,,,,,,
,,,,,,,,,,,,,,,,,612d435206d267d587b12789,57,2022-02-12_17h57.21.256,lexical_decision_task_DD_L2,2021.2.3,Win32,60.09976561,,,,,,,,,,,,1.0034,1,,,,,,,,,,,,,,m,1,1.0034,,,,,,,,0.04296875,-0.397135417,0,0,0,,0,163,163,73,1,SNACK,LB,old,m,./images/SNACKLB.png,,,,,,,,,,,,,,,,,,,,,,,,,,,,,,,,,,
,,,,,,,,,,,,,,,,,612d435206d267d587b12789,57,2022-02-12_17h57.21.256,lexical_decision_task_DD_L2,2021.2.3,Win32,60.09976561,,,,,,,,,,,,1.1706,0,,,,,,,,,,,,,,m,0,1.1706,,,,,,,,0.04296875,-0.397135417,0,0,0,,0,164,164,128,1,GRIFT,LB,old,z,./images/GRIFTLB.png,,,,,,,,,,,,,,,,,,,,,,,,,,,,,,,,,,
,,,,,,,,,,,,,,,,,612d435206d267d587b12789,57,2022-02-12_17h57.21.256,lexical_decision_task_DD_L2,2021.2.3,Win32,60.09976561,,,,,,,,,,,,1.1833,1,,,,,,,,,,,,,,m,1,1.1833,,,,,,,,0.04296875,-0.397135417,0,0,0,,0,165,165,59,1,BURIAL,C,old,m,./images/BURIAL.png,,,,,,,,,,,,,,,,,,,,,,,,,,,,,,,,,,
,,,,,,,,,,,,,,,,,612d435206d267d587b12789,57,2022-02-12_17h57.21.256,lexical_decision_task_DD_L2,2021.2.3,Win32,60.09976561,,,,,,,,,,,,1.015,1,,,,,,,,,,,,,,m,1,1.015,,,,,,,,0.04296875,-0.397135417,0,0,0,,0,166,166,62,1,PURSE,C,old,m,./images/PURSE.png,,,,,,,,,,,,,,,,,,,,,,,,,,,,,,,,,,
,,,,,,,,,,,,,,,,,612d435206d267d587b12789,57,2022-02-12_17h57.21.256,lexical_decision_task_DD_L2,2021.2.3,Win32,60.09976561,,,,,,,,,,,,2.9249,1,,,,,,,,,,,,,,z,1,2.9249,,,,,,,,0.04296875,-0.397135417,0,0,0,,0,167,167,87,1,TRING,C,old,z,./images/TRING.png,,,,,,,,,,,,,,,,,,,,,,,,,,,,,,,,,,
,,,,,,,,,,,,,,,,,612d435206d267d587b12789,57,2022-02-12_17h57.21.256,lexical_decision_task_DD_L2,2021.2.3,Win32,60.09976561,,,,,,,,,,,,,,,,,,,,,,,,,,,,,,,,,,,,,,,,,,,,,,,,,How likely will it be that you will recognize the words presented clearly on a scale of 0 (not likely) to 100 (most likely)?,,,,,-0.013020833,-0.415364583,1,0,0,jol_adv,5,7.7316,0,0,0,0,1,,,,,,,,,,,,,,,,,,,,
,,,,,,,,,,,,,,,,,612d435206d267d587b12789,57,2022-02-12_17h57.21.256,lexical_decision_task_DD_L2,2021.2.3,Win32,60.09976561,,,,,,,,,,,,,,,,,,,,,,,,,,,,,,,,,,,,,,,,,,,,,,,,,How likely will it be that you will recognize the words presented slighly blurred on a scale of 0 (not likely) to 100 (most likely)?,,,,,,,,,,,5,6.4779,0,1,1,1,1,,,,,,,,,,,,,,,,,,,,
,,,,,,,,,,,,,,,,,612d435206d267d587b12789,57,2022-02-12_17h57.21.256,lexical_decision_task_DD_L2,2021.2.3,Win32,60.09976561,,,,,,,,,,,,,,,,,,,,,,,,,,,,,,,,,,,,,,,,,,,,,,,,,How likely will it be that you will recognize the words presented very blurred on a scale of 0 (not likely) to 100 (most likely)?,,,,,,,,,,,4,4.1413,0,2,2,2,1,,,,,,,,,,,,,,,,,,,,
space,0.171875,-0.25,0,0,0,,,,,,,1,test,"In the next phase you will be presented with the words from the the first phase. Your job is to decide whether you remember seeing the word or not. If you remember seeing the word press ""old"" or type ""m"". If you do not remember seeing the word press ""new"" or type ""z"". Please press the space bar or click on continue to begin. ",,,612d435206d267d587b12789,57,2022-02-12_17h57.21.256,lexical_decision_task_DD_L2,2021.2.3,Win32,60.09976561,46.7877,,,,,,,,,,,,,,,,,,,,,,,,,,,,,,,,,,,,,,,,,,,,,,,,,,,,,,,,,,,,,,,,,,0,0,0,0,1,,,,,,,,,,,,,,,
,0.028645833,-0.391927083,1,0,0,instr_done_button,,,,,,1,test,"In the next phase you will be presented with the words from the the first phase. Your job is to decide whether you remember seeing the word or not. If you remember seeing the word press ""old"" or type ""m"". If you do not remember seeing the word press ""new"" or type ""z"". Please press the space bar or click on continue to begin. ",,,612d435206d267d587b12789,57,2022-02-12_17h57.21.256,lexical_decision_task_DD_L2,2021.2.3,Win32,60.09976561,,,,,,,,,,,,,,,,,,,,,,,,,,,,,,,,,,,,,,,,,,,,,,,,,,,,,,,,,,,,,,,,,,,1,0,1,0,1,,,,,,,,,,,,,,,
space,0.028645833,-0.393229167,0,0,0,,,,,,,1,test,"In the next phase you will be presented with the words from the the first phase. Your job is to decide whether you remember seeing the word or not. If you remember seeing the word press ""old"" or type ""m"". If you do not remember seeing the word press ""new"" or type ""z"". Please press the space bar or click on continue to begin. ",,,612d435206d267d587b12789,57,2022-02-12_17h57.21.256,lexical_decision_task_DD_L2,2021.2.3,Win32,60.09976561,7.15,,,,,,,,,,,,,,,,,,,,,,,,,,,,,,,,,,,,,,,,,,,,,,,,,,,,,,,,,,,,,,,,,,2,0,2,0,1,,,,,,,,,,,,,,,
,-0.048177083,-0.399739583,1,0,0,instr_done_button,,,,,,1,test,"In the next phase you will be presented with the words from the the first phase. Your job is to decide whether you remember seeing the word or not. If you remember seeing the word press ""old"" or type ""m"". If you do not remember seeing the word press ""new"" or type ""z"". Please press the space bar or click on continue to begin. ",,,612d435206d267d587b12789,57,2022-02-12_17h57.21.256,lexical_decision_task_DD_L2,2021.2.3,Win32,60.09976561,,,,,,,,,,,,,,,,,,,,,,,,,,,,,,,,,,,,,,,,,,,,,,,,,,,,,,,,,,,,,,,,,,,3,0,3,0,1,,,,,,,,,,,,,,,
,-0.006510417,-0.384114583,1,0,0,instr_done_button,,,,,,1,test,"In the next phase you will be presented with the words from the the first phase. Your job is to decide whether you remember seeing the word or not. If you remember seeing the word press ""old"" or type ""m"". If you do not remember seeing the word press ""new"" or type ""z"". Please press the space bar or click on continue to begin. ",,,612d435206d267d587b12789,57,2022-02-12_17h57.21.256,lexical_decision_task_DD_L2,2021.2.3,Win32,60.09976561,,,,,,,,,,,,,,,,,,,,,,,,,,,,,,,,,,,,,,,,,,,,,,,,,,,,,,,,,,,,,,,,,,,4,0,4,0,1,,,,,,,,,,,,,,,
,,,,,,,,,,,,,,,,,612d435206d267d587b12789,57,2022-02-12_17h57.21.256,lexical_decision_task_DD_L2,2021.2.3,Win32,60.09976561,,,,,,,,,,,,5.0052,1,,,,,,,,,,,,,,,,,,,,,,,,0.032552083,-0.352864583,0,0,0,,,,,,,SMOKER,C,m,y,./images/SMOKER.png,,,,,,,,,,,,,,,,,,,,m,1,5.0052,,,,,,,,0,0,0,26,1
,,,,,,,,,,,,,,,,,612d435206d267d587b12789,57,2022-02-12_17h57.21.256,lexical_decision_task_DD_L2,2021.2.3,Win32,60.09976561,,,,,,,,,,,,1.2825,1,,,,,,,,,,,,,,,,,,,,,,,,0.032552083,-0.352864583,0,0,0,,,,,,,MUFFIN,LB,m,y,./images/MUFFINLB.png,,,,,,,,,,,,,,,,,,,,m,1,1.2825,,,,,,,,0,1,1,55,1
,,,,,,,,,,,,,,,,,612d435206d267d587b12789,57,2022-02-12_17h57.21.256,lexical_decision_task_DD_L2,2021.2.3,Win32,60.09976561,,,,,,,,,,,,1.2711,1,,,,,,,,,,,,,,,,,,,,,,,,0.032552083,-0.352864583,0,0,0,,,,,,,JAGUAR,HB,m,y,./images/JAGUARHB.png,,,,,,,,,,,,,,,,,,,,m,1,1.2711,,,,,,,,0,2,2,18,1
,,,,,,,,,,,,,,,,,612d435206d267d587b12789,57,2022-02-12_17h57.21.256,lexical_decision_task_DD_L2,2021.2.3,Win32,60.09976561,,,,,,,,,,,,0.9108,1,,,,,,,,,,,,,,,,,,,,,,,,0.032552083,-0.352864583,0,0,0,,,,,,,CANDLE,LB,m,y,./images/CANDLELB.png,,,,,,,,,,,,,,,,,,,,m,1,0.9108,,,,,,,,0,3,3,61,1
,,,,,,,,,,,,,,,,,612d435206d267d587b12789,57,2022-02-12_17h57.21.256,lexical_decision_task_DD_L2,2021.2.3,Win32,60.09976561,,,,,,,,,,,,1.2071,1,,,,,,,,,,,,,,,,,,,,,,,,0.032552083,-0.352864583,0,0,0,,,,,,,MELON,LB,m,y,./images/MELONLB.png,,,,,,,,,,,,,,,,,,,,m,1,1.2071,,,,,,,,0,4,4,22,1
,,,,,,,,,,,,,,,,,612d435206d267d587b12789,57,2022-02-12_17h57.21.256,lexical_decision_task_DD_L2,2021.2.3,Win32,60.09976561,,,,,,,,,,,,1.2422,1,,,,,,,,,,,,,,,,,,,,,,,,0.032552083,-0.352864583,0,0,0,,,,,,,SNACK,LB,m,y,./images/SNACKLB.png,,,,,,,,,,,,,,,,,,,,m,1,1.2422,,,,,,,,0,5,5,73,1
,,,,,,,,,,,,,,,,,612d435206d267d587b12789,57,2022-02-12_17h57.21.256,lexical_decision_task_DD_L2,2021.2.3,Win32,60.09976561,,,,,,,,,,,,1.1002,0,,,,,,,,,,,,,,,,,,,,,,,,0.032552083,-0.352864583,0,0,0,,,,,,,MAGGOT,HB,m,y,./images/MAGGOTHB.png,,,,,,,,,,,,,,,,,,,,z,0,1.1002,,,,,,,,0,6,6,33,1
,,,,,,,,,,,,,,,,,612d435206d267d587b12789,57,2022-02-12_17h57.21.256,lexical_decision_task_DD_L2,2021.2.3,Win32,60.09976561,,,,,,,,,,,,1.1748,1,,,,,,,,,,,,,,,,,,,,,,,,0.032552083,-0.352864583,0,0,0,,,,,,,POSTER,C,z,y,./images/POSTER.png,,,,,,,,,,,,,,,,,,,,z,1,1.1748,,,,,,,,0,7,7,137,1
,,,,,,,,,,,,,,,,,612d435206d267d587b12789,57,2022-02-12_17h57.21.256,lexical_decision_task_DD_L2,2021.2.3,Win32,60.09976561,,,,,,,,,,,,1.4778,1,,,,,,,,,,,,,,,,,,,,,,,,0.032552083,-0.352864583,0,0,0,,,,,,,MOOSE,HB,m,y,./images/MOOSEHB.png,,,,,,,,,,,,,,,,,,,,m,1,1.4778,,,,,,,,0,8,8,57,1
,,,,,,,,,,,,,,,,,612d435206d267d587b12789,57,2022-02-12_17h57.21.256,lexical_decision_task_DD_L2,2021.2.3,Win32,60.09976561,,,,,,,,,,,,1.2056,1,,,,,,,,,,,,,,,,,,,,,,,,0.032552083,-0.352864583,0,0,0,,,,,,,DIVER,HB,z,y,./images/DIVERHB.png,,,,,,,,,,,,,,,,,,,,z,1,1.2056,,,,,,,,0,9,9,93,1
,,,,,,,,,,,,,,,,,612d435206d267d587b12789,57,2022-02-12_17h57.21.256,lexical_decision_task_DD_L2,2021.2.3,Win32,60.09976561,,,,,,,,,,,,1.0097,1,,,,,,,,,,,,,,,,,,,,,,,,0.032552083,-0.352864583,0,0,0,,,,,,,TIGER,LB,z,y,./images/TIGERLB.png,,,,,,,,,,,,,,,,,,,,z,1,1.0097,,,,,,,,0,10,10,121,1
,,,,,,,,,,,,,,,,,612d435206d267d587b12789,57,2022-02-12_17h57.21.256,lexical_decision_task_DD_L2,2021.2.3,Win32,60.09976561,,,,,,,,,,,,1.0468,1,,,,,,,,,,,,,,,,,,,,,,,,0.032552083,-0.352864583,0,0,0,,,,,,,GREASE,HB,m,y,./images/GREASEHB.png,,,,,,,,,,,,,,,,,,,,m,1,1.0468,,,,,,,,0,11,11,15,1
,,,,,,,,,,,,,,,,,612d435206d267d587b12789,57,2022-02-12_17h57.21.256,lexical_decision_task_DD_L2,2021.2.3,Win32,60.09976561,,,,,,,,,,,,1.0398,1,,,,,,,,,,,,,,,,,,,,,,,,0.032552083,-0.352864583,0,0,0,,,,,,,BISHOP,LB,z,y,./images/BISHOPLB.png,,,,,,,,,,,,,,,,,,,,z,1,1.0398,,,,,,,,0,12,12,133,1
,,,,,,,,,,,,,,,,,612d435206d267d587b12789,57,2022-02-12_17h57.21.256,lexical_decision_task_DD_L2,2021.2.3,Win32,60.09976561,,,,,,,,,,,,1.0117,1,,,,,,,,,,,,,,,,,,,,,,,,0.032552083,-0.352864583,0,0,0,,,,,,,PILOT,C,z,y,./images/PILOT.png,,,,,,,,,,,,,,,,,,,,z,1,1.0117,,,,,,,,0,13,13,134,1
,,,,,,,,,,,,,,,,,612d435206d267d587b12789,57,2022-02-12_17h57.21.256,lexical_decision_task_DD_L2,2021.2.3,Win32,60.09976561,,,,,,,,,,,,1.384,1,,,,,,,,,,,,,,,,,,,,,,,,0.032552083,-0.352864583,0,0,0,,,,,,,MUSCLE,LB,m,y,./images/MUSCLELB.png,,,,,,,,,,,,,,,,,,,,m,1,1.384,,,,,,,,0,14,14,4,1
,,,,,,,,,,,,,,,,,612d435206d267d587b12789,57,2022-02-12_17h57.21.256,lexical_decision_task_DD_L2,2021.2.3,Win32,60.09976561,,,,,,,,,,,,1.1104,1,,,,,,,,,,,,,,,,,,,,,,,,0.032552083,-0.352864583,0,0,0,,,,,,,SWING,LB,m,y,./images/SWINGLB.png,,,,,,,,,,,,,,,,,,,,m,1,1.1104,,,,,,,,0,15,15,40,1
,,,,,,,,,,,,,,,,,612d435206d267d587b12789,57,2022-02-12_17h57.21.256,lexical_decision_task_DD_L2,2021.2.3,Win32,60.09976561,,,,,,,,,,,,0.9929,1,,,,,,,,,,,,,,,,,,,,,,,,0.032552083,-0.352864583,0,0,0,,,,,,,FERRY,HB,z,y,./images/FERRYHB.png,,,,,,,,,,,,,,,,,,,,z,1,0.9929,,,,,,,,0,16,16,141,1
,,,,,,,,,,,,,,,,,612d435206d267d587b12789,57,2022-02-12_17h57.21.256,lexical_decision_task_DD_L2,2021.2.3,Win32,60.09976561,,,,,,,,,,,,1.0473,1,,,,,,,,,,,,,,,,,,,,,,,,0.032552083,-0.352864583,0,0,0,,,,,,,BONNET,C,m,y,./images/BONNET.png,,,,,,,,,,,,,,,,,,,,m,1,1.0473,,,,,,,,0,17,17,11,1
,,,,,,,,,,,,,,,,,612d435206d267d587b12789,57,2022-02-12_17h57.21.256,lexical_decision_task_DD_L2,2021.2.3,Win32,60.09976561,,,,,,,,,,,,1.7381,1,,,,,,,,,,,,,,,,,,,,,,,,0.032552083,-0.352864583,0,0,0,,,,,,,CLIFF,C,z,y,./images/CLIFF.png,,,,,,,,,,,,,,,,,,,,z,1,1.7381,,,,,,,,0,18,18,92,1
,,,,,,,,,,,,,,,,,612d435206d267d587b12789,57,2022-02-12_17h57.21.256,lexical_decision_task_DD_L2,2021.2.3,Win32,60.09976561,,,,,,,,,,,,1.073,1,,,,,,,,,,,,,,,,,,,,,,,,0.032552083,-0.352864583,0,0,0,,,,,,,BRUSH,C,z,y,./images/BRUSH.png,,,,,,,,,,,,,,,,,,,,z,1,1.073,,,,,,,,0,19,19,143,1
,,,,,,,,,,,,,,,,,612d435206d267d587b12789,57,2022-02-12_17h57.21.256,lexical_decision_task_DD_L2,2021.2.3,Win32,60.09976561,,,,,,,,,,,,1.0737,1,,,,,,,,,,,,,,,,,,,,,,,,0.032552083,-0.352864583,0,0,0,,,,,,,PAINT,LB,m,y,./images/PAINTLB.png,,,,,,,,,,,,,,,,,,,,m,1,1.0737,,,,,,,,0,20,20,7,1
,,,,,,,,,,,,,,,,,612d435206d267d587b12789,57,2022-02-12_17h57.21.256,lexical_decision_task_DD_L2,2021.2.3,Win32,60.09976561,,,,,,,,,,,,2.1361,1,,,,,,,,,,,,,,,,,,,,,,,,0.032552083,-0.352864583,0,0,0,,,,,,,BAMBOO,C,z,y,./images/BAMBOO.png,,,,,,,,,,,,,,,,,,,,z,1,2.1361,,,,,,,,0,21,21,89,1
,,,,,,,,,,,,,,,,,612d435206d267d587b12789,57,2022-02-12_17h57.21.256,lexical_decision_task_DD_L2,2021.2.3,Win32,60.09976561,,,,,,,,,,,,1.7492,0,,,,,,,,,,,,,,,,,,,,,,,,0.032552083,-0.352864583,0,0,0,,,,,,,SCREW,HB,m,y,./images/SCREWHB.png,,,,,,,,,,,,,,,,,,,,z,0,1.7492,,,,,,,,0,22,22,24,1
,,,,,,,,,,,,,,,,,612d435206d267d587b12789,57,2022-02-12_17h57.21.256,lexical_decision_task_DD_L2,2021.2.3,Win32,60.09976561,,,,,,,,,,,,0.9832,1,,,,,,,,,,,,,,,,,,,,,,,,0.032552083,-0.352864583,0,0,0,,,,,,,BERRY,C,m,y,./images/BERRY.png,,,,,,,,,,,,,,,,,,,,m,1,0.9832,,,,,,,,0,23,23,47,1
,,,,,,,,,,,,,,,,,612d435206d267d587b12789,57,2022-02-12_17h57.21.256,lexical_decision_task_DD_L2,2021.2.3,Win32,60.09976561,,,,,,,,,,,,0.9435,1,,,,,,,,,,,,,,,,,,,,,,,,0.032552083,-0.352864583,0,0,0,,,,,,,TULIP,C,m,y,./images/TULIP.png,,,,,,,,,,,,,,,,,,,,m,1,0.9435,,,,,,,,0,24,24,8,1
,,,,,,,,,,,,,,,,,612d435206d267d587b12789,57,2022-02-12_17h57.21.256,lexical_decision_task_DD_L2,2021.2.3,Win32,60.09976561,,,,,,,,,,,,1.6721,1,,,,,,,,,,,,,,,,,,,,,,,,0.032552083,-0.352864583,0,0,0,,,,,,,PLANK,LB,m,y,./images/PLANKLB.png,,,,,,,,,,,,,,,,,,,,m,1,1.6721,,,,,,,,0,25,25,1,1
,,,,,,,,,,,,,,,,,612d435206d267d587b12789,57,2022-02-12_17h57.21.256,lexical_decision_task_DD_L2,2021.2.3,Win32,60.09976561,,,,,,,,,,,,1.0749,1,,,,,,,,,,,,,,,,,,,,,,,,0.032552083,-0.352864583,0,0,0,,,,,,,STAIN,HB,z,y,./images/STAINHB.png,,,,,,,,,,,,,,,,,,,,z,1,1.0749,,,,,,,,0,26,26,90,1
,,,,,,,,,,,,,,,,,612d435206d267d587b12789,57,2022-02-12_17h57.21.256,lexical_decision_task_DD_L2,2021.2.3,Win32,60.09976561,,,,,,,,,,,,1.1114,0,,,,,,,,,,,,,,,,,,,,,,,,0.032552083,-0.352864583,0,0,0,,,,,,,KIDNEY,HB,m,y,./images/KIDNEYHB.png,,,,,,,,,,,,,,,,,,,,z,0,1.1114,,,,,,,,0,27,27,21,1
,,,,,,,,,,,,,,,,,612d435206d267d587b12789,57,2022-02-12_17h57.21.256,lexical_decision_task_DD_L2,2021.2.3,Win32,60.09976561,,,,,,,,,,,,1.0124,1,,,,,,,,,,,,,,,,,,,,,,,,0.032552083,-0.352864583,0,0,0,,,,,,,PARCEL,HB,z,y,./images/PARCELHB.png,,,,,,,,,,,,,,,,,,,,z,1,1.0124,,,,,,,,0,28,28,102,1
,,,,,,,,,,,,,,,,,612d435206d267d587b12789,57,2022-02-12_17h57.21.256,lexical_decision_task_DD_L2,2021.2.3,Win32,60.09976561,,,,,,,,,,,,0.9852,1,,,,,,,,,,,,,,,,,,,,,,,,0.032552083,-0.352864583,0,0,0,,,,,,,SHORE,HB,m,y,./images/SHOREHB.png,,,,,,,,,,,,,,,,,,,,m,1,0.9852,,,,,,,,0,29,29,12,1
,,,,,,,,,,,,,,,,,612d435206d267d587b12789,57,2022-02-12_17h57.21.256,lexical_decision_task_DD_L2,2021.2.3,Win32,60.09976561,,,,,,,,,,,,1.5411,1,,,,,,,,,,,,,,,,,,,,,,,,0.032552083,-0.352864583,0,0,0,,,,,,,POODLE,HB,m,y,./images/POODLEHB.png,,,,,,,,,,,,,,,,,,,,m,1,1.5411,,,,,,,,0,30,30,81,1
,,,,,,,,,,,,,,,,,612d435206d267d587b12789,57,2022-02-12_17h57.21.256,lexical_decision_task_DD_L2,2021.2.3,Win32,60.09976561,,,,,,,,,,,,1.2116,0,,,,,,,,,,,,,,,,,,,,,,,,0.032552083,-0.352864583,0,0,0,,,,,,,HEATER,C,z,y,./images/HEATER.png,,,,,,,,,,,,,,,,,,,,m,0,1.2116,,,,,,,,0,31,31,140,1
,,,,,,,,,,,,,,,,,612d435206d267d587b12789,57,2022-02-12_17h57.21.256,lexical_decision_task_DD_L2,2021.2.3,Win32,60.09976561,,,,,,,,,,,,0.9707,1,,,,,,,,,,,,,,,,,,,,,,,,0.032552083,-0.352864583,0,0,0,,,,,,,FLESH,HB,z,y,./images/FLESHHB.png,,,,,,,,,,,,,,,,,,,,z,1,0.9707,,,,,,,,0,32,32,108,1
,,,,,,,,,,,,,,,,,612d435206d267d587b12789,57,2022-02-12_17h57.21.256,lexical_decision_task_DD_L2,2021.2.3,Win32,60.09976561,,,,,,,,,,,,1.1431,1,,,,,,,,,,,,,,,,,,,,,,,,0.032552083,-0.352864583,0,0,0,,,,,,,PLANET,C,z,y,./images/PLANET.png,,,,,,,,,,,,,,,,,,,,z,1,1.1431,,,,,,,,0,33,33,164,1
,,,,,,,,,,,,,,,,,612d435206d267d587b12789,57,2022-02-12_17h57.21.256,lexical_decision_task_DD_L2,2021.2.3,Win32,60.09976561,,,,,,,,,,,,1.1108,1,,,,,,,,,,,,,,,,,,,,,,,,0.032552083,-0.352864583,0,0,0,,,,,,,PISTOL,C,z,y,./images/PISTOL.png,,,,,,,,,,,,,,,,,,,,z,1,1.1108,,,,,,,,0,34,34,113,1
,,,,,,,,,,,,,,,,,612d435206d267d587b12789,57,2022-02-12_17h57.21.256,lexical_decision_task_DD_L2,2021.2.3,Win32,60.09976561,,,,,,,,,,,,0.8412,1,,,,,,,,,,,,,,,,,,,,,,,,0.032552083,-0.352864583,0,0,0,,,,,,,ENGINE,C,z,y,./images/ENGINE.png,,,,,,,,,,,,,,,,,,,,z,1,0.8412,,,,,,,,0,35,35,122,1
,,,,,,,,,,,,,,,,,612d435206d267d587b12789,57,2022-02-12_17h57.21.256,lexical_decision_task_DD_L2,2021.2.3,Win32,60.09976561,,,,,,,,,,,,0.8794,1,,,,,,,,,,,,,,,,,,,,,,,,0.032552083,-0.352864583,0,0,0,,,,,,,PARADE,C,z,y,./images/PARADE.png,,,,,,,,,,,,,,,,,,,,z,1,0.8794,,,,,,,,0,36,36,101,1
,,,,,,,,,,,,,,,,,612d435206d267d587b12789,57,2022-02-12_17h57.21.256,lexical_decision_task_DD_L2,2021.2.3,Win32,60.09976561,,,,,,,,,,,,0.8755,1,,,,,,,,,,,,,,,,,,,,,,,,0.032552083,-0.352864583,0,0,0,,,,,,,MOTOR,LB,m,y,./images/MOTORLB.png,,,,,,,,,,,,,,,,,,,,m,1,0.8755,,,,,,,,0,37,37,13,1
,,,,,,,,,,,,,,,,,612d435206d267d587b12789,57,2022-02-12_17h57.21.256,lexical_decision_task_DD_L2,2021.2.3,Win32,60.09976561,,,,,,,,,,,,1.3441,1,,,,,,,,,,,,,,,,,,,,,,,,0.032552083,-0.352864583,0,0,0,,,,,,,HAMMER,HB,z,y,./images/HAMMERHB.png,,,,,,,,,,,,,,,,,,,,z,1,1.3441,,,,,,,,0,38,38,159,1
,,,,,,,,,,,,,,,,,612d435206d267d587b12789,57,2022-02-12_17h57.21.256,lexical_decision_task_DD_L2,2021.2.3,Win32,60.09976561,,,,,,,,,,,,1.0931,0,,,,,,,,,,,,,,,,,,,,,,,,0.032552083,-0.352864583,0,0,0,,,,,,,PICKLE,C,m,y,./images/PICKLE.png,,,,,,,,,,,,,,,,,,,,z,0,1.0931,,,,,,,,0,39,39,14,1
,,,,,,,,,,,,,,,,,612d435206d267d587b12789,57,2022-02-12_17h57.21.256,lexical_decision_task_DD_L2,2021.2.3,Win32,60.09976561,,,,,,,,,,,,1.0431,1,,,,,,,,,,,,,,,,,,,,,,,,0.032552083,-0.352864583,0,0,0,,,,,,,CANOE,LB,z,y,./images/CANOELB.png,,,,,,,,,,,,,,,,,,,,z,1,1.0431,,,,,,,,0,40,40,142,1
,,,,,,,,,,,,,,,,,612d435206d267d587b12789,57,2022-02-12_17h57.21.256,lexical_decision_task_DD_L2,2021.2.3,Win32,60.09976561,,,,,,,,,,,,0.9387,0,,,,,,,,,,,,,,,,,,,,,,,,0.032552083,-0.352864583,0,0,0,space,,,,,,BAKER,HB,z,y,./images/BAKERHB.png,34.0689,,,,,,,,,,,,,,,,,,,m,0,0.9387,,,,,,,,0,41,41,147,1
,,,,,,,,,,,,,,,,,612d435206d267d587b12789,57,2022-02-12_17h57.21.256,lexical_decision_task_DD_L2,2021.2.3,Win32,60.09976561,,,,,,,,,,,,1.2739,1,,,,,,,,,,,,,,,,,,,,,,,,0.032552083,-0.352864583,0,0,0,,,,,,,FARMER,C,m,y,./images/FARMER.png,,,,,,,,,,,,,,,,,,,,m,1,1.2739,,,,,,,,0,42,42,65,1
,,,,,,,,,,,,,,,,,612d435206d267d587b12789,57,2022-02-12_17h57.21.256,lexical_decision_task_DD_L2,2021.2.3,Win32,60.09976561,,,,,,,,,,,,0.9155,0,,,,,,,,,,,,,,,,,,,,,,,,0.032552083,-0.352864583,0,0,0,,,,,,,DOUGH,LB,m,y,./images/DOUGHLB.png,,,,,,,,,,,,,,,,,,,,z,0,0.9155,,,,,,,,0,43,43,19,1
,,,,,,,,,,,,,,,,,612d435206d267d587b12789,57,2022-02-12_17h57.21.256,lexical_decision_task_DD_L2,2021.2.3,Win32,60.09976561,,,,,,,,,,,,1.2501,0,,,,,,,,,,,,,,,,,,,,,,,,0.032552083,-0.352864583,0,0,0,,,,,,,PEACH,C,m,y,./images/PEACH.png,,,,,,,,,,,,,,,,,,,,z,0,1.2501,,,,,,,,0,44,44,35,1
,,,,,,,,,,,,,,,,,612d435206d267d587b12789,57,2022-02-12_17h57.21.256,lexical_decision_task_DD_L2,2021.2.3,Win32,60.09976561,,,,,,,,,,,,1.0173,1,,,,,,,,,,,,,,,,,,,,,,,,0.032552083,-0.352864583,0,0,0,,,,,,,COOKER,HB,m,y,./images/COOKERHB.png,,,,,,,,,,,,,,,,,,,,m,1,1.0173,,,,,,,,0,45,45,69,1
,,,,,,,,,,,,,,,,,612d435206d267d587b12789,57,2022-02-12_17h57.21.256,lexical_decision_task_DD_L2,2021.2.3,Win32,60.09976561,,,,,,,,,,,,2.0869,1,,,,,,,,,,,,,,,,,,,,,,,,0.032552083,-0.352864583,0,0,0,,,,,,,BASKET,C,z,y,./images/BASKET.png,,,,,,,,,,,,,,,,,,,,z,1,2.0869,,,,,,,,0,46,46,128,1
,,,,,,,,,,,,,,,,,612d435206d267d587b12789,57,2022-02-12_17h57.21.256,lexical_decision_task_DD_L2,2021.2.3,Win32,60.09976561,,,,,,,,,,,,0.9814,1,,,,,,,,,,,,,,,,,,,,,,,,0.032552083,-0.352864583,0,0,0,,,,,,,STATUE,HB,z,y,./images/STATUEHB.png,,,,,,,,,,,,,,,,,,,,z,1,0.9814,,,,,,,,0,47,47,150,1
,,,,,,,,,,,,,,,,,612d435206d267d587b12789,57,2022-02-12_17h57.21.256,lexical_decision_task_DD_L2,2021.2.3,Win32,60.09976561,,,,,,,,,,,,0.9481,1,,,,,,,,,,,,,,,,,,,,,,,,0.032552083,-0.352864583,0,0,0,,,,,,,BANNER,LB,m,y,./images/BANNERLB.png,,,,,,,,,,,,,,,,,,,,m,1,0.9481,,,,,,,,0,48,48,52,1
,,,,,,,,,,,,,,,,,612d435206d267d587b12789,57,2022-02-12_17h57.21.256,lexical_decision_task_DD_L2,2021.2.3,Win32,60.09976561,,,,,,,,,,,,1.0069,1,,,,,,,,,,,,,,,,,,,,,,,,0.032552083,-0.352864583,0,0,0,,,,,,,JUMPER,C,z,y,./images/JUMPER.png,,,,,,,,,,,,,,,,,,,,z,1,1.0069,,,,,,,,0,49,49,158,1
,,,,,,,,,,,,,,,,,612d435206d267d587b12789,57,2022-02-12_17h57.21.256,lexical_decision_task_DD_L2,2021.2.3,Win32,60.09976561,,,,,,,,,,,,0.9358,1,,,,,,,,,,,,,,,,,,,,,,,,0.032552083,-0.352864583,0,0,0,,,,,,,SHELF,HB,m,y,./images/SHELFHB.png,,,,,,,,,,,,,,,,,,,,m,1,0.9358,,,,,,,,0,50,50,39,1
,,,,,,,,,,,,,,,,,612d435206d267d587b12789,57,2022-02-12_17h57.21.256,lexical_decision_task_DD_L2,2021.2.3,Win32,60.09976561,,,,,,,,,,,,2.2734,1,,,,,,,,,,,,,,,,,,,,,,,,0.032552083,-0.352864583,0,0,0,,,,,,,PENCE,LB,m,y,./images/PENCELB.png,,,,,,,,,,,,,,,,,,,,m,1,2.2734,,,,,,,,0,51,51,16,1
,,,,,,,,,,,,,,,,,612d435206d267d587b12789,57,2022-02-12_17h57.21.256,lexical_decision_task_DD_L2,2021.2.3,Win32,60.09976561,,,,,,,,,,,,1.0509,1,,,,,,,,,,,,,,,,,,,,,,,,0.032552083,-0.352864583,0,0,0,,,,,,,FENCE,C,z,y,./images/FENCE.png,,,,,,,,,,,,,,,,,,,,z,1,1.0509,,,,,,,,0,52,52,98,1
,,,,,,,,,,,,,,,,,612d435206d267d587b12789,57,2022-02-12_17h57.21.256,lexical_decision_task_DD_L2,2021.2.3,Win32,60.09976561,,,,,,,,,,,,1.0864,1,,,,,,,,,,,,,,,,,,,,,,,,0.032552083,-0.352864583,0,0,0,,,,,,,TRIPOD,HB,m,y,./images/TRIPODHB.png,,,,,,,,,,,,,,,,,,,,m,1,1.0864,,,,,,,,0,53,53,54,1
,,,,,,,,,,,,,,,,,612d435206d267d587b12789,57,2022-02-12_17h57.21.256,lexical_decision_task_DD_L2,2021.2.3,Win32,60.09976561,,,,,,,,,,,,1.3404,1,,,,,,,,,,,,,,,,,,,,,,,,0.032552083,-0.352864583,0,0,0,,,,,,,BURIAL,C,m,y,./images/BURIAL.png,,,,,,,,,,,,,,,,,,,,m,1,1.3404,,,,,,,,0,54,54,59,1
,,,,,,,,,,,,,,,,,612d435206d267d587b12789,57,2022-02-12_17h57.21.256,lexical_decision_task_DD_L2,2021.2.3,Win32,60.09976561,,,,,,,,,,,,0.9842,1,,,,,,,,,,,,,,,,,,,,,,,,0.032552083,-0.352864583,0,0,0,,,,,,,PASTA,C,m,y,./images/PASTA.png,,,,,,,,,,,,,,,,,,,,m,1,0.9842,,,,,,,,0,55,55,5,1
,,,,,,,,,,,,,,,,,612d435206d267d587b12789,57,2022-02-12_17h57.21.256,lexical_decision_task_DD_L2,2021.2.3,Win32,60.09976561,,,,,,,,,,,,0.9553,1,,,,,,,,,,,,,,,,,,,,,,,,0.032552083,-0.352864583,0,0,0,,,,,,,STOVE,C,z,y,./images/STOVE.png,,,,,,,,,,,,,,,,,,,,z,1,0.9553,,,,,,,,0,56,56,86,1
,,,,,,,,,,,,,,,,,612d435206d267d587b12789,57,2022-02-12_17h57.21.256,lexical_decision_task_DD_L2,2021.2.3,Win32,60.09976561,,,,,,,,,,,,1.3405,1,,,,,,,,,,,,,,,,,,,,,,,,0.032552083,-0.352864583,0,0,0,,,,,,,BUBBLE,C,z,y,./images/BUBBLE.png,,,,,,,,,,,,,,,,,,,,z,1,1.3405,,,,,,,,0,57,57,155,1
,,,,,,,,,,,,,,,,,612d435206d267d587b12789,57,2022-02-12_17h57.21.256,lexical_decision_task_DD_L2,2021.2.3,Win32,60.09976561,,,,,,,,,,,,1.6377,1,,,,,,,,,,,,,,,,,,,,,,,,0.032552083,-0.352864583,0,0,0,,,,,,,CLOUD,C,z,y,./images/CLOUD.png,,,,,,,,,,,,,,,,,,,,z,1,1.6377,,,,,,,,0,58,58,110,1
,,,,,,,,,,,,,,,,,612d435206d267d587b12789,57,2022-02-12_17h57.21.256,lexical_decision_task_DD_L2,2021.2.3,Win32,60.09976561,,,,,,,,,,,,1.0061,1,,,,,,,,,,,,,,,,,,,,,,,,0.032552083,-0.352864583,0,0,0,,,,,,,BANANA,LB,z,y,./images/BANANALB.png,,,,,,,,,,,,,,,,,,,,z,1,1.0061,,,,,,,,0,59,59,154,1
,,,,,,,,,,,,,,,,,612d435206d267d587b12789,57,2022-02-12_17h57.21.256,lexical_decision_task_DD_L2,2021.2.3,Win32,60.09976561,,,,,,,,,,,,0.9422,1,,,,,,,,,,,,,,,,,,,,,,,,0.032552083,-0.352864583,0,0,0,,,,,,,MEDAL,C,z,y,./images/MEDAL.png,,,,,,,,,,,,,,,,,,,,z,1,0.9422,,,,,,,,0,60,60,95,1
,,,,,,,,,,,,,,,,,612d435206d267d587b12789,57,2022-02-12_17h57.21.256,lexical_decision_task_DD_L2,2021.2.3,Win32,60.09976561,,,,,,,,,,,,1.1817,0,,,,,,,,,,,,,,,,,,,,,,,,0.032552083,-0.352864583,0,0,0,,,,,,,SPORT,HB,m,y,./images/SPORTHB.png,,,,,,,,,,,,,,,,,,,,z,0,1.1817,,,,,,,,0,61,61,48,1
,,,,,,,,,,,,,,,,,612d435206d267d587b12789,57,2022-02-12_17h57.21.256,lexical_decision_task_DD_L2,2021.2.3,Win32,60.09976561,,,,,,,,,,,,1.0075,1,,,,,,,,,,,,,,,,,,,,,,,,0.032552083,-0.352864583,0,0,0,,,,,,,CHALK,LB,z,y,./images/CHALKLB.png,,,,,,,,,,,,,,,,,,,,z,1,1.0075,,,,,,,,0,62,62,109,1
,,,,,,,,,,,,,,,,,612d435206d267d587b12789,57,2022-02-12_17h57.21.256,lexical_decision_task_DD_L2,2021.2.3,Win32,60.09976561,,,,,,,,,,,,1.0113,1,,,,,,,,,,,,,,,,,,,,,,,,0.032552083,-0.352864583,0,0,0,,,,,,,FALCON,LB,m,y,./images/FALCONLB.png,,,,,,,,,,,,,,,,,,,,m,1,1.0113,,,,,,,,0,63,63,28,1
,,,,,,,,,,,,,,,,,612d435206d267d587b12789,57,2022-02-12_17h57.21.256,lexical_decision_task_DD_L2,2021.2.3,Win32,60.09976561,,,,,,,,,,,,2.1438,1,,,,,,,,,,,,,,,,,,,,,,,,0.032552083,-0.352864583,0,0,0,,,,,,,WHISKY,C,z,y,./images/WHISKY.png,,,,,,,,,,,,,,,,,,,,z,1,2.1438,,,,,,,,0,64,64,167,1
,,,,,,,,,,,,,,,,,612d435206d267d587b12789,57,2022-02-12_17h57.21.256,lexical_decision_task_DD_L2,2021.2.3,Win32,60.09976561,,,,,,,,,,,,1.2793,1,,,,,,,,,,,,,,,,,,,,,,,,0.032552083,-0.352864583,0,0,0,,,,,,,CLOWN,LB,z,y,./images/CLOWNLB.png,,,,,,,,,,,,,,,,,,,,z,1,1.2793,,,,,,,,0,65,65,106,1
,,,,,,,,,,,,,,,,,612d435206d267d587b12789,57,2022-02-12_17h57.21.256,lexical_decision_task_DD_L2,2021.2.3,Win32,60.09976561,,,,,,,,,,,,0.9079,1,,,,,,,,,,,,,,,,,,,,,,,,0.032552083,-0.352864583,0,0,0,,,,,,,BARREL,C,m,y,./images/BARREL.png,,,,,,,,,,,,,,,,,,,,m,1,0.9079,,,,,,,,0,66,66,32,1
,,,,,,,,,,,,,,,,,612d435206d267d587b12789,57,2022-02-12_17h57.21.256,lexical_decision_task_DD_L2,2021.2.3,Win32,60.09976561,,,,,,,,,,,,1.3464,1,,,,,,,,,,,,,,,,,,,,,,,,0.032552083,-0.352864583,0,0,0,,,,,,,DRILL,HB,z,y,./images/DRILLHB.png,,,,,,,,,,,,,,,,,,,,z,1,1.3464,,,,,,,,0,67,67,165,1
,,,,,,,,,,,,,,,,,612d435206d267d587b12789,57,2022-02-12_17h57.21.256,lexical_decision_task_DD_L2,2021.2.3,Win32,60.09976561,,,,,,,,,,,,1.0096,1,,,,,,,,,,,,,,,,,,,,,,,,0.032552083,-0.352864583,0,0,0,,,,,,,RHINO,HB,m,y,./images/RHINOHB.png,,,,,,,,,,,,,,,,,,,,m,1,1.0096,,,,,,,,0,68,68,9,1
,,,,,,,,,,,,,,,,,612d435206d267d587b12789,57,2022-02-12_17h57.21.256,lexical_decision_task_DD_L2,2021.2.3,Win32,60.09976561,,,,,,,,,,,,1.0731,1,,,,,,,,,,,,,,,,,,,,,,,,0.032552083,-0.352864583,0,0,0,,,,,,,CLOTH,C,z,y,./images/CLOTH.png,,,,,,,,,,,,,,,,,,,,z,1,1.0731,,,,,,,,0,69,69,107,1
,,,,,,,,,,,,,,,,,612d435206d267d587b12789,57,2022-02-12_17h57.21.256,lexical_decision_task_DD_L2,2021.2.3,Win32,60.09976561,,,,,,,,,,,,1.2082,1,,,,,,,,,,,,,,,,,,,,,,,,0.032552083,-0.352864583,0,0,0,,,,,,,URINE,LB,m,y,./images/URINELB.png,,,,,,,,,,,,,,,,,,,,m,1,1.2082,,,,,,,,0,70,70,70,1
,,,,,,,,,,,,,,,,,612d435206d267d587b12789,57,2022-02-12_17h57.21.256,lexical_decision_task_DD_L2,2021.2.3,Win32,60.09976561,,,,,,,,,,,,0.9406,1,,,,,,,,,,,,,,,,,,,,,,,,0.032552083,-0.352864583,0,0,0,,,,,,,CRUST,LB,m,y,./images/CRUSTLB.png,,,,,,,,,,,,,,,,,,,,m,1,0.9406,,,,,,,,0,71,71,79,1
,,,,,,,,,,,,,,,,,612d435206d267d587b12789,57,2022-02-12_17h57.21.256,lexical_decision_task_DD_L2,2021.2.3,Win32,60.09976561,,,,,,,,,,,,0.8427,1,,,,,,,,,,,,,,,,,,,,,,,,0.032552083,-0.352864583,0,0,0,,,,,,,BELLY,LB,m,y,./images/BELLYLB.png,,,,,,,,,,,,,,,,,,,,m,1,0.8427,,,,,,,,0,72,72,10,1
,,,,,,,,,,,,,,,,,612d435206d267d587b12789,57,2022-02-12_17h57.21.256,lexical_decision_task_DD_L2,2021.2.3,Win32,60.09976561,,,,,,,,,,,,0.9707,1,,,,,,,,,,,,,,,,,,,,,,,,0.032552083,-0.352864583,0,0,0,,,,,,,WALNUT,HB,z,y,./images/WALNUTHB.png,,,,,,,,,,,,,,,,,,,,z,1,0.9707,,,,,,,,0,73,73,84,1
,,,,,,,,,,,,,,,,,612d435206d267d587b12789,57,2022-02-12_17h57.21.256,lexical_decision_task_DD_L2,2021.2.3,Win32,60.09976561,,,,,,,,,,,,1.6025,1,,,,,,,,,,,,,,,,,,,,,,,,0.032552083,-0.352864583,0,0,0,,,,,,,THROAT,HB,m,y,./images/THROATHB.png,,,,,,,,,,,,,,,,,,,,m,1,1.6025,,,,,,,,0,74,74,36,1
,,,,,,,,,,,,,,,,,612d435206d267d587b12789,57,2022-02-12_17h57.21.256,lexical_decision_task_DD_L2,2021.2.3,Win32,60.09976561,,,,,,,,,,,,0.9726,1,,,,,,,,,,,,,,,,,,,,,,,,0.032552083,-0.352864583,0,0,0,,,,,,,COUCH,C,m,y,./images/COUCH.png,,,,,,,,,,,,,,,,,,,,m,1,0.9726,,,,,,,,0,75,75,77,1
,,,,,,,,,,,,,,,,,612d435206d267d587b12789,57,2022-02-12_17h57.21.256,lexical_decision_task_DD_L2,2021.2.3,Win32,60.09976561,,,,,,,,,,,,0.9097,1,,,,,,,,,,,,,,,,,,,,,,,,0.032552083,-0.352864583,0,0,0,,,,,,,WAGON,LB,z,y,./images/WAGONLB.png,,,,,,,,,,,,,,,,,,,,z,1,0.9097,,,,,,,,0,76,76,91,1
,,,,,,,,,,,,,,,,,612d435206d267d587b12789,57,2022-02-12_17h57.21.256,lexical_decision_task_DD_L2,2021.2.3,Win32,60.09976561,,,,,,,,,,,,1.0771,1,,,,,,,,,,,,,,,,,,,,,,,,0.032552083,-0.352864583,0,0,0,,,,,,,BEARD,C,m,y,./images/BEARD.png,,,,,,,,,,,,,,,,,,,,m,1,1.0771,,,,,,,,0,77,77,2,1
,,,,,,,,,,,,,,,,,612d435206d267d587b12789,57,2022-02-12_17h57.21.256,lexical_decision_task_DD_L2,2021.2.3,Win32,60.09976561,,,,,,,,,,,,0.9425,1,,,,,,,,,,,,,,,,,,,,,,,,0.032552083,-0.352864583,0,0,0,,,,,,,SNAKE,LB,z,y,./images/SNAKELB.png,,,,,,,,,,,,,,,,,,,,z,1,0.9425,,,,,,,,0,78,78,124,1
,,,,,,,,,,,,,,,,,612d435206d267d587b12789,57,2022-02-12_17h57.21.256,lexical_decision_task_DD_L2,2021.2.3,Win32,60.09976561,,,,,,,,,,,,0.9616,1,,,,,,,,,,,,,,,,,,,,,,,,0.032552083,-0.352864583,0,0,0,,,,,,,SAUNA,HB,z,y,./images/SAUNAHB.png,,,,,,,,,,,,,,,,,,,,z,1,0.9616,,,,,,,,0,79,79,117,1
,,,,,,,,,,,,,,,,,612d435206d267d587b12789,57,2022-02-12_17h57.21.256,lexical_decision_task_DD_L2,2021.2.3,Win32,60.09976561,,,,,,,,,,,,1.6043,0,,,,,,,,,,,,,,,,,,,,,,,,0.032552083,-0.352864583,0,0,0,,,,,,,PIMPLE,C,m,y,./images/PIMPLE.png,,,,,,,,,,,,,,,,,,,,z,0,1.6043,,,,,,,,0,80,80,71,1
,,,,,,,,,,,,,,,,,612d435206d267d587b12789,57,2022-02-12_17h57.21.256,lexical_decision_task_DD_L2,2021.2.3,Win32,60.09976561,,,,,,,,,,,,1.7753,1,,,,,,,,,,,,,,,,,,,,,,,,0.032552083,-0.352864583,0,0,0,,,,,,,BLOKE,HB,z,y,./images/BLOKEHB.png,,,,,,,,,,,,,,,,,,,,z,1,1.7753,,,,,,,,0,81,81,96,1
,,,,,,,,,,,,,,,,,612d435206d267d587b12789,57,2022-02-12_17h57.21.256,lexical_decision_task_DD_L2,2021.2.3,Win32,60.09976561,,,,,,,,,,,,0.9421,1,,,,,,,,,,,,,,,,,,,,,,,,0.032552083,-0.352864583,0,0,0,,,,,,,BUTTER,HB,z,y,./images/BUTTERHB.png,,,,,,,,,,,,,,,,,,,,z,1,0.9421,,,,,,,,0,82,82,111,1
,,,,,,,,,,,,,,,,,612d435206d267d587b12789,57,2022-02-12_17h57.21.256,lexical_decision_task_DD_L2,2021.2.3,Win32,60.09976561,,,,,,,,,,,,1.2118,1,,,,,,,,,,,,,,,,,,,,,,,,0.032552083,-0.352864583,0,0,0,space,,,,,,ALLEY,LB,z,y,./images/ALLEYLB.png,37.9061,,,,,,,,,,,,,,,,,,,z,1,1.2118,,,,,,,,0,83,83,139,1
,,,,,,,,,,,,,,,,,612d435206d267d587b12789,57,2022-02-12_17h57.21.256,lexical_decision_task_DD_L2,2021.2.3,Win32,60.09976561,,,,,,,,,,,,4.614,0,,,,,,,,,,,,,,,,,,,,,,,,0.032552083,-0.352864583,0,0,0,,,,,,,BIRTH,LB,m,y,./images/BIRTHLB.png,,,,,,,,,,,,,,,,,,,,z,0,4.614,,,,,,,,0,84,84,37,1
,,,,,,,,,,,,,,,,,612d435206d267d587b12789,57,2022-02-12_17h57.21.256,lexical_decision_task_DD_L2,2021.2.3,Win32,60.09976561,,,,,,,,,,,,1.7998,1,,,,,,,,,,,,,,,,,,,,,,,,0.032552083,-0.352864583,0,0,0,,,,,,,HOCKEY,C,z,y,./images/HOCKEY.png,,,,,,,,,,,,,,,,,,,,z,1,1.7998,,,,,,,,0,85,85,116,1
,,,,,,,,,,,,,,,,,612d435206d267d587b12789,57,2022-02-12_17h57.21.256,lexical_decision_task_DD_L2,2021.2.3,Win32,60.09976561,,,,,,,,,,,,1.2555,1,,,,,,,,,,,,,,,,,,,,,,,,0.032552083,-0.352864583,0,0,0,,,,,,,MONKEY,HB,z,y,./images/MONKEYHB.png,,,,,,,,,,,,,,,,,,,,z,1,1.2555,,,,,,,,0,86,86,129,1
,,,,,,,,,,,,,,,,,612d435206d267d587b12789,57,2022-02-12_17h57.21.256,lexical_decision_task_DD_L2,2021.2.3,Win32,60.09976561,,,,,,,,,,,,0.8844,1,,,,,,,,,,,,,,,,,,,,,,,,0.032552083,-0.352864583,0,0,0,,,,,,,FOLDER,HB,m,y,./images/FOLDERHB.png,,,,,,,,,,,,,,,,,,,,m,1,0.8844,,,,,,,,0,87,87,42,1
,,,,,,,,,,,,,,,,,612d435206d267d587b12789,57,2022-02-12_17h57.21.256,lexical_decision_task_DD_L2,2021.2.3,Win32,60.09976561,,,,,,,,,,,,1.1375,1,,,,,,,,,,,,,,,,,,,,,,,,0.032552083,-0.352864583,0,0,0,,,,,,,FINGER,HB,m,y,./images/FINGERHB.png,,,,,,,,,,,,,,,,,,,,m,1,1.1375,,,,,,,,0,88,88,3,1
,,,,,,,,,,,,,,,,,612d435206d267d587b12789,57,2022-02-12_17h57.21.256,lexical_decision_task_DD_L2,2021.2.3,Win32,60.09976561,,,,,,,,,,,,0.8382,1,,,,,,,,,,,,,,,,,,,,,,,,0.032552083,-0.352864583,0,0,0,,,,,,,WEASEL,C,m,y,./images/WEASEL.png,,,,,,,,,,,,,,,,,,,,m,1,0.8382,,,,,,,,0,89,89,80,1
,,,,,,,,,,,,,,,,,612d435206d267d587b12789,57,2022-02-12_17h57.21.256,lexical_decision_task_DD_L2,2021.2.3,Win32,60.09976561,,,,,,,,,,,,0.9437,1,,,,,,,,,,,,,,,,,,,,,,,,0.032552083,-0.352864583,0,0,0,,,,,,,PACKET,C,m,y,./images/PACKET.png,,,,,,,,,,,,,,,,,,,,m,1,0.9437,,,,,,,,0,90,90,56,1
,,,,,,,,,,,,,,,,,612d435206d267d587b12789,57,2022-02-12_17h57.21.256,lexical_decision_task_DD_L2,2021.2.3,Win32,60.09976561,,,,,,,,,,,,1.0422,1,,,,,,,,,,,,,,,,,,,,,,,,0.032552083,-0.352864583,0,0,0,,,,,,,DRUMS,LB,m,y,./images/DRUMSLB.png,,,,,,,,,,,,,,,,,,,,m,1,1.0422,,,,,,,,0,91,91,49,1
,,,,,,,,,,,,,,,,,612d435206d267d587b12789,57,2022-02-12_17h57.21.256,lexical_decision_task_DD_L2,2021.2.3,Win32,60.09976561,,,,,,,,,,,,1.0504,0,,,,,,,,,,,,,,,,,,,,,,,,0.032552083,-0.352864583,0,0,0,,,,,,,TWINS,HB,m,y,./images/TWINSHB.png,,,,,,,,,,,,,,,,,,,,z,0,1.0504,,,,,,,,0,92,92,60,1
,,,,,,,,,,,,,,,,,612d435206d267d587b12789,57,2022-02-12_17h57.21.256,lexical_decision_task_DD_L2,2021.2.3,Win32,60.09976561,,,,,,,,,,,,1.1473,1,,,,,,,,,,,,,,,,,,,,,,,,0.032552083,-0.352864583,0,0,0,,,,,,,MIDGET,LB,z,y,./images/MIDGETLB.png,,,,,,,,,,,,,,,,,,,,z,1,1.1473,,,,,,,,0,93,93,160,1
,,,,,,,,,,,,,,,,,612d435206d267d587b12789,57,2022-02-12_17h57.21.256,lexical_decision_task_DD_L2,2021.2.3,Win32,60.09976561,,,,,,,,,,,,1.6033,1,,,,,,,,,,,,,,,,,,,,,,,,0.032552083,-0.352864583,0,0,0,,,,,,,QUILL,LB,m,y,./images/QUILLLB.png,,,,,,,,,,,,,,,,,,,,m,1,1.6033,,,,,,,,0,94,94,31,1
,,,,,,,,,,,,,,,,,612d435206d267d587b12789,57,2022-02-12_17h57.21.256,lexical_decision_task_DD_L2,2021.2.3,Win32,60.09976561,,,,,,,,,,,,0.8751,1,,,,,,,,,,,,,,,,,,,,,,,,0.032552083,-0.352864583,0,0,0,,,,,,,BRIDE,LB,z,y,./images/BRIDELB.png,,,,,,,,,,,,,,,,,,,,z,1,0.8751,,,,,,,,0,95,95,148,1
,,,,,,,,,,,,,,,,,612d435206d267d587b12789,57,2022-02-12_17h57.21.256,lexical_decision_task_DD_L2,2021.2.3,Win32,60.09976561,,,,,,,,,,,,1.3084,1,,,,,,,,,,,,,,,,,,,,,,,,0.032552083,-0.352864583,0,0,0,,,,,,,SPINE,C,z,y,./images/SPINE.png,,,,,,,,,,,,,,,,,,,,z,1,1.3084,,,,,,,,0,96,96,149,1
,,,,,,,,,,,,,,,,,612d435206d267d587b12789,57,2022-02-12_17h57.21.256,lexical_decision_task_DD_L2,2021.2.3,Win32,60.09976561,,,,,,,,,,,,0.9052,1,,,,,,,,,,,,,,,,,,,,,,,,0.032552083,-0.352864583,0,0,0,,,,,,,GLOVE,LB,z,y,./images/GLOVELB.png,,,,,,,,,,,,,,,,,,,,z,1,0.9052,,,,,,,,0,97,97,157,1
,,,,,,,,,,,,,,,,,612d435206d267d587b12789,57,2022-02-12_17h57.21.256,lexical_decision_task_DD_L2,2021.2.3,Win32,60.09976561,,,,,,,,,,,,1.0406,0,,,,,,,,,,,,,,,,,,,,,,,,0.032552083,-0.352864583,0,0,0,,,,,,,CRUMB,C,m,y,./images/CRUMB.png,,,,,,,,,,,,,,,,,,,,z,0,1.0406,,,,,,,,0,98,98,29,1
,,,,,,,,,,,,,,,,,612d435206d267d587b12789,57,2022-02-12_17h57.21.256,lexical_decision_task_DD_L2,2021.2.3,Win32,60.09976561,,,,,,,,,,,,1.2369,0,,,,,,,,,,,,,,,,,,,,,,,,0.032552083,-0.352864583,0,0,0,,,,,,,MIRROR,HB,m,y,./images/MIRRORHB.png,,,,,,,,,,,,,,,,,,,,z,0,1.2369,,,,,,,,0,99,99,63,1
,,,,,,,,,,,,,,,,,612d435206d267d587b12789,57,2022-02-12_17h57.21.256,lexical_decision_task_DD_L2,2021.2.3,Win32,60.09976561,,,,,,,,,,,,0.9781,1,,,,,,,,,,,,,,,,,,,,,,,,0.032552083,-0.352864583,0,0,0,,,,,,,SUNSET,LB,m,y,./images/SUNSETLB.png,,,,,,,,,,,,,,,,,,,,m,1,0.9781,,,,,,,,0,100,100,82,1
,,,,,,,,,,,,,,,,,612d435206d267d587b12789,57,2022-02-12_17h57.21.256,lexical_decision_task_DD_L2,2021.2.3,Win32,60.09976561,,,,,,,,,,,,1.0119,0,,,,,,,,,,,,,,,,,,,,,,,,0.032552083,-0.352864583,0,0,0,,,,,,,SLOPE,HB,z,y,./images/SLOPEHB.png,,,,,,,,,,,,,,,,,,,,m,0,1.0119,,,,,,,,0,101,101,114,1
,,,,,,,,,,,,,,,,,612d435206d267d587b12789,57,2022-02-12_17h57.21.256,lexical_decision_task_DD_L2,2021.2.3,Win32,60.09976561,,,,,,,,,,,,1.7747,1,,,,,,,,,,,,,,,,,,,,,,,,0.032552083,-0.352864583,0,0,0,,,,,,,RULER,LB,z,y,./images/RULERLB.png,,,,,,,,,,,,,,,,,,,,z,1,1.7747,,,,,,,,0,102,102,163,1
,,,,,,,,,,,,,,,,,612d435206d267d587b12789,57,2022-02-12_17h57.21.256,lexical_decision_task_DD_L2,2021.2.3,Win32,60.09976561,,,,,,,,,,,,0.9183,1,,,,,,,,,,,,,,,,,,,,,,,,0.032552083,-0.352864583,0,0,0,,,,,,,SAILOR,LB,m,y,./images/SAILORLB.png,,,,,,,,,,,,,,,,,,,,m,1,0.9183,,,,,,,,0,103,103,67,1
,,,,,,,,,,,,,,,,,612d435206d267d587b12789,57,2022-02-12_17h57.21.256,lexical_decision_task_DD_L2,2021.2.3,Win32,60.09976561,,,,,,,,,,,,0.9365,1,,,,,,,,,,,,,,,,,,,,,,,,0.032552083,-0.352864583,0,0,0,,,,,,,ARTIST,LB,z,y,./images/ARTISTLB.png,,,,,,,,,,,,,,,,,,,,z,1,0.9365,,,,,,,,0,104,104,145,1
,,,,,,,,,,,,,,,,,612d435206d267d587b12789,57,2022-02-12_17h57.21.256,lexical_decision_task_DD_L2,2021.2.3,Win32,60.09976561,,,,,,,,,,,,1.109,1,,,,,,,,,,,,,,,,,,,,,,,,0.032552083,-0.352864583,0,0,0,,,,,,,RAZOR,LB,z,y,./images/RAZORLB.png,,,,,,,,,,,,,,,,,,,,z,1,1.109,,,,,,,,0,105,105,118,1
,,,,,,,,,,,,,,,,,612d435206d267d587b12789,57,2022-02-12_17h57.21.256,lexical_decision_task_DD_L2,2021.2.3,Win32,60.09976561,,,,,,,,,,,,1.1273,1,,,,,,,,,,,,,,,,,,,,,,,,0.032552083,-0.352864583,0,0,0,,,,,,,WHEEL,C,z,y,./images/WHEEL.png,,,,,,,,,,,,,,,,,,,,z,1,1.1273,,,,,,,,0,106,106,161,1
,,,,,,,,,,,,,,,,,612d435206d267d587b12789,57,2022-02-12_17h57.21.256,lexical_decision_task_DD_L2,2021.2.3,Win32,60.09976561,,,,,,,,,,,,1.1367,0,,,,,,,,,,,,,,,,,,,,,,,,0.032552083,-0.352864583,0,0,0,,,,,,,DANCER,HB,z,y,./images/DANCERHB.png,,,,,,,,,,,,,,,,,,,,m,0,1.1367,,,,,,,,0,107,107,105,1
,,,,,,,,,,,,,,,,,612d435206d267d587b12789,57,2022-02-12_17h57.21.256,lexical_decision_task_DD_L2,2021.2.3,Win32,60.09976561,,,,,,,,,,,,1.4045,1,,,,,,,,,,,,,,,,,,,,,,,,0.032552083,-0.352864583,0,0,0,,,,,,,STREAM,C,z,y,./images/STREAM.png,,,,,,,,,,,,,,,,,,,,z,1,1.4045,,,,,,,,0,108,108,125,1
,,,,,,,,,,,,,,,,,612d435206d267d587b12789,57,2022-02-12_17h57.21.256,lexical_decision_task_DD_L2,2021.2.3,Win32,60.09976561,,,,,,,,,,,,1.009,1,,,,,,,,,,,,,,,,,,,,,,,,0.032552083,-0.352864583,0,0,0,,,,,,,STOOL,LB,z,y,./images/STOOLLB.png,,,,,,,,,,,,,,,,,,,,z,1,1.009,,,,,,,,0,109,109,127,1
,,,,,,,,,,,,,,,,,612d435206d267d587b12789,57,2022-02-12_17h57.21.256,lexical_decision_task_DD_L2,2021.2.3,Win32,60.09976561,,,,,,,,,,,,1.0085,1,,,,,,,,,,,,,,,,,,,,,,,,0.032552083,-0.352864583,0,0,0,,,,,,,JUNGLE,C,m,y,./images/JUNGLE.png,,,,,,,,,,,,,,,,,,,,m,1,1.0085,,,,,,,,0,110,110,83,1
,,,,,,,,,,,,,,,,,612d435206d267d587b12789,57,2022-02-12_17h57.21.256,lexical_decision_task_DD_L2,2021.2.3,Win32,60.09976561,,,,,,,,,,,,1.841,0,,,,,,,,,,,,,,,,,,,,,,,,0.032552083,-0.352864583,0,0,0,,,,,,,JELLY,LB,m,y,./images/JELLYLB.png,,,,,,,,,,,,,,,,,,,,z,0,1.841,,,,,,,,0,111,111,64,1
,,,,,,,,,,,,,,,,,612d435206d267d587b12789,57,2022-02-12_17h57.21.256,lexical_decision_task_DD_L2,2021.2.3,Win32,60.09976561,,,,,,,,,,,,1.1394,1,,,,,,,,,,,,,,,,,,,,,,,,0.032552083,-0.352864583,0,0,0,,,,,,,BABOON,LB,m,y,./images/BABOONLB.png,,,,,,,,,,,,,,,,,,,,m,1,1.1394,,,,,,,,0,112,112,58,1
,,,,,,,,,,,,,,,,,612d435206d267d587b12789,57,2022-02-12_17h57.21.256,lexical_decision_task_DD_L2,2021.2.3,Win32,60.09976561,,,,,,,,,,,,0.8468,1,,,,,,,,,,,,,,,,,,,,,,,,0.032552083,-0.352864583,0,0,0,,,,,,,LADDER,C,m,y,./images/LADDER.png,,,,,,,,,,,,,,,,,,,,m,1,0.8468,,,,,,,,0,113,113,38,1
,,,,,,,,,,,,,,,,,612d435206d267d587b12789,57,2022-02-12_17h57.21.256,lexical_decision_task_DD_L2,2021.2.3,Win32,60.09976561,,,,,,,,,,,,0.9781,1,,,,,,,,,,,,,,,,,,,,,,,,0.032552083,-0.352864583,0,0,0,,,,,,,ATTIC,HB,m,y,./images/ATTICHB.png,,,,,,,,,,,,,,,,,,,,m,1,0.9781,,,,,,,,0,114,114,27,1
,,,,,,,,,,,,,,,,,612d435206d267d587b12789,57,2022-02-12_17h57.21.256,lexical_decision_task_DD_L2,2021.2.3,Win32,60.09976561,,,,,,,,,,,,1.3554,1,,,,,,,,,,,,,,,,,,,,,,,,0.032552083,-0.352864583,0,0,0,,,,,,,LLAMA,C,z,y,./images/LLAMA.png,,,,,,,,,,,,,,,,,,,,z,1,1.3554,,,,,,,,0,115,115,119,1
,,,,,,,,,,,,,,,,,612d435206d267d587b12789,57,2022-02-12_17h57.21.256,lexical_decision_task_DD_L2,2021.2.3,Win32,60.09976561,,,,,,,,,,,,0.9237,1,,,,,,,,,,,,,,,,,,,,,,,,0.032552083,-0.352864583,0,0,0,,,,,,,PEBBLE,LB,z,y,./images/PEBBLELB.png,,,,,,,,,,,,,,,,,,,,z,1,0.9237,,,,,,,,0,116,116,166,1
,,,,,,,,,,,,,,,,,612d435206d267d587b12789,57,2022-02-12_17h57.21.256,lexical_decision_task_DD_L2,2021.2.3,Win32,60.09976561,,,,,,,,,,,,1.3073,0,,,,,,,,,,,,,,,,,,,,,,,,0.032552083,-0.352864583,0,0,0,,,,,,,INFANT,LB,m,y,./images/INFANTLB.png,,,,,,,,,,,,,,,,,,,,z,0,1.3073,,,,,,,,0,117,117,76,1
,,,,,,,,,,,,,,,,,612d435206d267d587b12789,57,2022-02-12_17h57.21.256,lexical_decision_task_DD_L2,2021.2.3,Win32,60.09976561,,,,,,,,,,,,1.0538,0,,,,,,,,,,,,,,,,,,,,,,,,0.032552083,-0.352864583,0,0,0,,,,,,,GRAIN,HB,m,y,./images/GRAINHB.png,,,,,,,,,,,,,,,,,,,,z,0,1.0538,,,,,,,,0,118,118,75,1
,,,,,,,,,,,,,,,,,612d435206d267d587b12789,57,2022-02-12_17h57.21.256,lexical_decision_task_DD_L2,2021.2.3,Win32,60.09976561,,,,,,,,,,,,1.4732,1,,,,,,,,,,,,,,,,,,,,,,,,0.032552083,-0.352864583,0,0,0,,,,,,,SKIING,C,m,y,./images/SKIING.png,,,,,,,,,,,,,,,,,,,,m,1,1.4732,,,,,,,,0,119,119,17,1
,,,,,,,,,,,,,,,,,612d435206d267d587b12789,57,2022-02-12_17h57.21.256,lexical_decision_task_DD_L2,2021.2.3,Win32,60.09976561,,,,,,,,,,,,2.1382,0,,,,,,,,,,,,,,,,,,,,,,,,0.032552083,-0.352864583,0,0,0,,,,,,,CANYON,LB,m,y,./images/CANYONLB.png,,,,,,,,,,,,,,,,,,,,z,0,2.1382,,,,,,,,0,120,120,34,1
,,,,,,,,,,,,,,,,,612d435206d267d587b12789,57,2022-02-12_17h57.21.256,lexical_decision_task_DD_L2,2021.2.3,Win32,60.09976561,,,,,,,,,,,,1.1745,1,,,,,,,,,,,,,,,,,,,,,,,,0.032552083,-0.352864583,0,0,0,,,,,,,PURSE,C,m,y,./images/PURSE.png,,,,,,,,,,,,,,,,,,,,m,1,1.1745,,,,,,,,0,121,121,62,1
,,,,,,,,,,,,,,,,,612d435206d267d587b12789,57,2022-02-12_17h57.21.256,lexical_decision_task_DD_L2,2021.2.3,Win32,60.09976561,,,,,,,,,,,,0.8742,1,,,,,,,,,,,,,,,,,,,,,,,,0.032552083,-0.352864583,0,0,0,,,,,,,ARROW,HB,z,y,./images/ARROWHB.png,,,,,,,,,,,,,,,,,,,,z,1,0.8742,,,,,,,,0,122,122,153,1
,,,,,,,,,,,,,,,,,612d435206d267d587b12789,57,2022-02-12_17h57.21.256,lexical_decision_task_DD_L2,2021.2.3,Win32,60.09976561,,,,,,,,,,,,1.1097,1,,,,,,,,,,,,,,,,,,,,,,,,0.032552083,-0.352864583,0,0,0,,,,,,,MAMMAL,C,z,y,./images/MAMMAL.png,,,,,,,,,,,,,,,,,,,,z,1,1.1097,,,,,,,,0,123,123,146,1
,,,,,,,,,,,,,,,,,612d435206d267d587b12789,57,2022-02-12_17h57.21.256,lexical_decision_task_DD_L2,2021.2.3,Win32,60.09976561,,,,,,,,,,,,1.0111,0,,,,,,,,,,,,,,,,,,,,,,,,0.032552083,-0.352864583,0,0,0,,,,,,,ONION,HB,m,y,./images/ONIONHB.png,,,,,,,,,,,,,,,,,,,,z,0,1.0111,,,,,,,,0,124,124,51,1
,,,,,,,,,,,,,,,,,612d435206d267d587b12789,57,2022-02-12_17h57.21.256,lexical_decision_task_DD_L2,2021.2.3,Win32,60.09976561,,,,,,,,,,,,1.2484,1,,,,,,,,,,,,,,,,,,,,,,,,0.032552083,-0.352864583,0,0,0,space,,,,,,STORM,HB,m,y,./images/STORMHB.png,25.8712,,,,,,,,,,,,,,,,,,,m,1,1.2484,,,,,,,,0,125,125,30,1
,,,,,,,,,,,,,,,,,612d435206d267d587b12789,57,2022-02-12_17h57.21.256,lexical_decision_task_DD_L2,2021.2.3,Win32,60.09976561,,,,,,,,,,,,1.3162,0,,,,,,,,,,,,,,,,,,,,,,,,0.032552083,-0.352864583,0,0,0,,,,,,,KITTEN,HB,m,y,./images/KITTENHB.png,,,,,,,,,,,,,,,,,,,,z,0,1.3162,,,,,,,,0,126,126,45,1
,,,,,,,,,,,,,,,,,612d435206d267d587b12789,57,2022-02-12_17h57.21.256,lexical_decision_task_DD_L2,2021.2.3,Win32,60.09976561,,,,,,,,,,,,1.2073,1,,,,,,,,,,,,,,,,,,,,,,,,0.032552083,-0.352864583,0,0,0,,,,,,,DONKEY,LB,z,y,./images/DONKEYLB.png,,,,,,,,,,,,,,,,,,,,z,1,1.2073,,,,,,,,0,127,127,103,1
,,,,,,,,,,,,,,,,,612d435206d267d587b12789,57,2022-02-12_17h57.21.256,lexical_decision_task_DD_L2,2021.2.3,Win32,60.09976561,,,,,,,,,,,,0.9072,1,,,,,,,,,,,,,,,,,,,,,,,,0.032552083,-0.352864583,0,0,0,,,,,,,STRING,C,m,y,./images/STRING.png,,,,,,,,,,,,,,,,,,,,m,1,0.9072,,,,,,,,0,128,128,41,1
,,,,,,,,,,,,,,,,,612d435206d267d587b12789,57,2022-02-12_17h57.21.256,lexical_decision_task_DD_L2,2021.2.3,Win32,60.09976561,,,,,,,,,,,,0.9384,1,,,,,,,,,,,,,,,,,,,,,,,,0.032552083,-0.352864583,0,0,0,,,,,,,MOSQUE,LB,m,y,./images/MOSQUELB.png,,,,,,,,,,,,,,,,,,,,m,1,0.9384,,,,,,,,0,129,129,43,1
,,,,,,,,,,,,,,,,,612d435206d267d587b12789,57,2022-02-12_17h57.21.256,lexical_decision_task_DD_L2,2021.2.3,Win32,60.09976561,,,,,,,,,,,,0.9479,1,,,,,,,,,,,,,,,,,,,,,,,,0.032552083,-0.352864583,0,0,0,,,,,,,BUNNY,LB,z,y,./images/BUNNYLB.png,,,,,,,,,,,,,,,,,,,,z,1,0.9479,,,,,,,,0,130,130,97,1
,,,,,,,,,,,,,,,,,612d435206d267d587b12789,57,2022-02-12_17h57.21.256,lexical_decision_task_DD_L2,2021.2.3,Win32,60.09976561,,,,,,,,,,,,1.2083,1,,,,,,,,,,,,,,,,,,,,,,,,0.032552083,-0.352864583,0,0,0,,,,,,,STEAK,LB,z,y,./images/STEAKLB.png,,,,,,,,,,,,,,,,,,,,z,1,1.2083,,,,,,,,0,131,131,115,1
