key_resp.keys,instr_done_touch.x,instr_done_touch.y,instr_done_touch.leftButton,instr_done_touch.midButton,instr_done_touch.rightButton,instr_done_touch.clicked_name,instruction_pages.thisRepN,instruction_pages.thisTrialN,instruction_pages.thisN,instruction_pages.thisIndex,instruction_pages.ran,pageN,phase,instruct_text,has_image,instruct_image,participant,age,date,expName,psychopyVersion,OS,frameRate,response.keys,response.corr,response.rt,touch_resp.x,touch_resp.y,touch_resp.leftButton,touch_resp.midButton,touch_resp.rightButton,touch_resp.time,touch_resp.clicked_name,rt,corr,practrials.thisRepN,practrials.thisTrialN,practrials.thisN,practrials.thisIndex,practrials.ran,TrialID,Target,corrAns,end_of_practice_trials_pages.thisRepN,end_of_practice_trials_pages.thisTrialN,end_of_practice_trials_pages.thisN,end_of_practice_trials_pages.thisIndex,end_of_practice_trials_pages.ran,key_resp_2.keys,key_resp_2.corr,key_resp_2.rt,targ_click.x,targ_click.y,targ_click.leftButton,targ_click.midButton,targ_click.rightButton,targ_click.time,targ_click.clicked_name,break_done_touch.x,break_done_touch.y,break_done_touch.leftButton,break_done_touch.midButton,break_done_touch.rightButton,break_done_keyboard.keys,maintrials.thisRepN,maintrials.thisTrialN,maintrials.thisN,maintrials.thisIndex,maintrials.ran,string,blur,study,lex,stim_path,break_done_touch.clicked_name,mouse_2.x,mouse_2.y,mouse_2.leftButton,mouse_2.midButton,mouse_2.rightButton,mouse_2.clicked_name,slider.response,slider.rt,trials.thisRepN,trials.thisTrialN,trials.thisN,trials.thisIndex,trials.ran,test_instructions.thisRepN,test_instructions.thisTrialN,test_instructions.thisN,test_instructions.thisIndex,test_instructions.ran,key_resp.rt,key_resp_3.keys,key_resp_3.corr,test_click.x,test_click.y,test_click.leftButton,test_click.midButton,test_click.rightButton,test_click.time,test_click.clicked_name,test_phase.thisRepN,test_phase.thisTrialN,test_phase.thisN,test_phase.thisIndex,test_phase.ran
,0.036458333,-0.399739583,1,0,0,instr_done_button,0,0,0,0,1,1,instructions,"INSTRUCTIONS
At the start of each trial, look at the plus sign  (+) in the center of the screen.  This tells you that a trial is about to begin and where to look. Second, the plus sign will disappear and a string of letters will appear. Your task is to determine if the string of letters is a word or not. If the item is a word press the M key (on keyboard)  or touch the word button (phone/tablet).  If the item is not a word,  press the  Z key (on keyboard)  or touch the nonword button (on phone/tablet). 
Press the space bar or touch  continue.",0,,61fa943b5719bc09cb834ebb,70,2022-02-12_13h20.46.468,lexical_decision_task_DD_L2,2021.2.3,Win32,60.3682463,,,,,,,,,,,,,,,,,,,,,,,,,,,,,,,,,,,,,,,,,,,,,,,,,,,,,,,,,,,,,,,,,,,,,,,,,,,,,,,,,,,,,
,0.141927083,-0.407552083,1,0,0,instr_done_button,0,1,1,1,1,2,instructions,"If your device has a keyboard, press the 'Z' key for nonwords and the 'M' key for words.





Press the space bar or touch the button below to continue.",0,keyboard-example.gif,61fa943b5719bc09cb834ebb,70,2022-02-12_13h20.46.468,lexical_decision_task_DD_L2,2021.2.3,Win32,60.3682463,,,,,,,,,,,,,,,,,,,,,,,,,,,,,,,,,,,,,,,,,,,,,,,,,,,,,,,,,,,,,,,,,,,,,,,,,,,,,,,,,,,,,
,0.044270833,-0.403645833,1,0,0,instr_done_button,0,2,2,2,1,3,instructions,"If you are using a touchscreen only device, use the buttons on the screen. Do not use the mouse.





Press the space bar or touch the button below to continue.",0,touchscreen-example.gif,61fa943b5719bc09cb834ebb,70,2022-02-12_13h20.46.468,lexical_decision_task_DD_L2,2021.2.3,Win32,60.3682463,,,,,,,,,,,,,,,,,,,,,,,,,,,,,,,,,,,,,,,,,,,,,,,,,,,,,,,,,,,,,,,,,,,,,,,,,,,,,,,,,,,,,
,0.131510417,-0.412760417,1,0,0,instr_done_button,0,3,3,3,1,4,instructions,"It is very important that you respond as quickly and accurately as possible, as each letter string will only be on the screen for two seconds. If you do not respond within this time, the message 'Too slow!' will be displayed and the experiment will progress to the next letter string. The first 20 trials will be practice trials and you will receive feedback on your answers. 

Press the space bar or touch the button below to start the practice trials.",0,,61fa943b5719bc09cb834ebb,70,2022-02-12_13h20.46.468,lexical_decision_task_DD_L2,2021.2.3,Win32,60.3682463,,,,,,,,,,,,,,,,,,,,,,,,,,,,,,,,,,,,,,,,,,,,,,,,,,,,,,,,,,,,,,,,,,,,,,,,,,,,,,,,,,,,,
,,,,,,,,,,,,,,,,,61fa943b5719bc09cb834ebb,70,2022-02-12_13h20.46.468,lexical_decision_task_DD_L2,2021.2.3,Win32,60.3682463,m,1,1.3836,,,,,,,,1.3836,1,0,0,0,0,1,1001,UTOPIA,m,,,,,,,,,,,,,,,,,,,,,,,,,,,,,,,,,,,,,,,,,,,,,,,,,,,,,,,,,,,,,,,,,
,,,,,,,,,,,,,,,,,61fa943b5719bc09cb834ebb,70,2022-02-12_13h20.46.468,lexical_decision_task_DD_L2,2021.2.3,Win32,60.3682463,m,1,0.6869,,,,,,,,0.6869,1,0,1,1,4,1,1001,SQUEAK,m,,,,,,,,,,,,,,,,,,,,,,,,,,,,,,,,,,,,,,,,,,,,,,,,,,,,,,,,,,,,,,,,,
,,,,,,,,,,,,,,,,,61fa943b5719bc09cb834ebb,70,2022-02-12_13h20.46.468,lexical_decision_task_DD_L2,2021.2.3,Win32,60.3682463,z,1,0.9496,,,,,,,,0.9496,1,0,2,2,15,1,1001,WHAISE,z,,,,,,,,,,,,,,,,,,,,,,,,,,,,,,,,,,,,,,,,,,,,,,,,,,,,,,,,,,,,,,,,,
,,,,,,,,,,,,,,,,,61fa943b5719bc09cb834ebb,70,2022-02-12_13h20.46.468,lexical_decision_task_DD_L2,2021.2.3,Win32,60.3682463,m,1,0.8829,,,,,,,,0.8829,1,0,3,3,3,1,1001,MATRIX,m,,,,,,,,,,,,,,,,,,,,,,,,,,,,,,,,,,,,,,,,,,,,,,,,,,,,,,,,,,,,,,,,,
,,,,,,,,,,,,,,,,,61fa943b5719bc09cb834ebb,70,2022-02-12_13h20.46.468,lexical_decision_task_DD_L2,2021.2.3,Win32,60.3682463,m,1,0.7495,,,,,,,,0.7495,1,0,4,4,5,1,1001,OBTAIN,m,,,,,,,,,,,,,,,,,,,,,,,,,,,,,,,,,,,,,,,,,,,,,,,,,,,,,,,,,,,,,,,,,
,,,,,,,,,,,,,,,,,61fa943b5719bc09cb834ebb,70,2022-02-12_13h20.46.468,lexical_decision_task_DD_L2,2021.2.3,Win32,60.3682463,z,1,0.8832,,,,,,,,0.8832,1,0,5,5,10,1,1001,INLADE,z,,,,,,,,,,,,,,,,,,,,,,,,,,,,,,,,,,,,,,,,,,,,,,,,,,,,,,,,,,,,,,,,,
,,,,,,,,,,,,,,,,,61fa943b5719bc09cb834ebb,70,2022-02-12_13h20.46.468,lexical_decision_task_DD_L2,2021.2.3,Win32,60.3682463,m,1,0.8553,,,,,,,,0.8553,1,0,6,6,7,1,1001,VOLUME,m,,,,,,,,,,,,,,,,,,,,,,,,,,,,,,,,,,,,,,,,,,,,,,,,,,,,,,,,,,,,,,,,,
,,,,,,,,,,,,,,,,,61fa943b5719bc09cb834ebb,70,2022-02-12_13h20.46.468,lexical_decision_task_DD_L2,2021.2.3,Win32,60.3682463,z,1,0.7359,,,,,,,,0.7359,1,0,7,7,8,1,1001,ASLERT,z,,,,,,,,,,,,,,,,,,,,,,,,,,,,,,,,,,,,,,,,,,,,,,,,,,,,,,,,,,,,,,,,,
,,,,,,,,,,,,,,,,,61fa943b5719bc09cb834ebb,70,2022-02-12_13h20.46.468,lexical_decision_task_DD_L2,2021.2.3,Win32,60.3682463,z,1,0.9426,,,,,,,,0.9426,1,0,8,8,9,1,1001,FARINY,z,,,,,,,,,,,,,,,,,,,,,,,,,,,,,,,,,,,,,,,,,,,,,,,,,,,,,,,,,,,,,,,,,
,,,,,,,,,,,,,,,,,61fa943b5719bc09cb834ebb,70,2022-02-12_13h20.46.468,lexical_decision_task_DD_L2,2021.2.3,Win32,60.3682463,z,1,0.6622,,,,,,,,0.6622,1,0,9,9,11,1,1001,RASHET,z,,,,,,,,,,,,,,,,,,,,,,,,,,,,,,,,,,,,,,,,,,,,,,,,,,,,,,,,,,,,,,,,,
,,,,,,,,,,,,,,,,,61fa943b5719bc09cb834ebb,70,2022-02-12_13h20.46.468,lexical_decision_task_DD_L2,2021.2.3,Win32,60.3682463,z,1,0.6011,,,,,,,,0.6011,1,0,10,10,14,1,1001,THRALE,z,,,,,,,,,,,,,,,,,,,,,,,,,,,,,,,,,,,,,,,,,,,,,,,,,,,,,,,,,,,,,,,,,
,,,,,,,,,,,,,,,,,61fa943b5719bc09cb834ebb,70,2022-02-12_13h20.46.468,lexical_decision_task_DD_L2,2021.2.3,Win32,60.3682463,m,1,0.7398,,,,,,,,0.7398,1,0,11,11,1,1,1001,ADJUST,m,,,,,,,,,,,,,,,,,,,,,,,,,,,,,,,,,,,,,,,,,,,,,,,,,,,,,,,,,,,,,,,,,
,,,,,,,,,,,,,,,,,61fa943b5719bc09cb834ebb,70,2022-02-12_13h20.46.468,lexical_decision_task_DD_L2,2021.2.3,Win32,60.3682463,z,1,0.6496,,,,,,,,0.6496,1,0,12,12,13,1,1001,ROUPET,z,,,,,,,,,,,,,,,,,,,,,,,,,,,,,,,,,,,,,,,,,,,,,,,,,,,,,,,,,,,,,,,,,
,,,,,,,,,,,,,,,,,61fa943b5719bc09cb834ebb,70,2022-02-12_13h20.46.468,lexical_decision_task_DD_L2,2021.2.3,Win32,60.3682463,m,1,0.8763,,,,,,,,0.8763,1,0,13,13,6,1,1001,ZOMBIE,m,,,,,,,,,,,,,,,,,,,,,,,,,,,,,,,,,,,,,,,,,,,,,,,,,,,,,,,,,,,,,,,,,
,,,,,,,,,,,,,,,,,61fa943b5719bc09cb834ebb,70,2022-02-12_13h20.46.468,lexical_decision_task_DD_L2,2021.2.3,Win32,60.3682463,z,1,0.7111,,,,,,,,0.7111,1,0,14,14,12,1,1001,SPRINY,z,,,,,,,,,,,,,,,,,,,,,,,,,,,,,,,,,,,,,,,,,,,,,,,,,,,,,,,,,,,,,,,,,
,,,,,,,,,,,,,,,,,61fa943b5719bc09cb834ebb,70,2022-02-12_13h20.46.468,lexical_decision_task_DD_L2,2021.2.3,Win32,60.3682463,m,1,0.7425,,,,,,,,0.7425,1,0,15,15,2,1,1001,ALMOND,m,,,,,,,,,,,,,,,,,,,,,,,,,,,,,,,,,,,,,,,,,,,,,,,,,,,,,,,,,,,,,,,,,
,0.083333333,-0.390625,1,0,0,instr_done_button,,,,,,1,end_of_practice,"You have completed the practice trials. During the experimental trials, you will not receive feedback. 
Before you begin, please ensure that you are in a comfortable and quiet location and will not be disturbed for about 15 minutes, as we cannot use your data if you do not complete all the trials. 
 When you are ready to start the experimental trials, please press space or touch the button below.",,,61fa943b5719bc09cb834ebb,70,2022-02-12_13h20.46.468,lexical_decision_task_DD_L2,2021.2.3,Win32,60.3682463,,,,,,,,,,,,,,,,,,,,,0,0,0,0,1,,,,,,,,,,,,,,,,,,,,,,,,,,,,,,,,,,,,,,,,,,,,,,,,,,,,,,,,,,,,
,,,,,,,,,,,,,,,,,61fa943b5719bc09cb834ebb,70,2022-02-12_13h20.46.468,lexical_decision_task_DD_L2,2021.2.3,Win32,60.3682463,,,,,,,,,,,1.2264,1,,,,,,,,,,,,,,z,1,1.2264,,,,,,,,0.6640625,-0.0703125,0,0,0,,0,0,0,93,1,SMONE,C,old,z,./images/SMONE.png,,,,,,,,,,,,,,,,,,,,,,,,,,,,,,,,,,
,,,,,,,,,,,,,,,,,61fa943b5719bc09cb834ebb,70,2022-02-12_13h20.46.468,lexical_decision_task_DD_L2,2021.2.3,Win32,60.3682463,,,,,,,,,,,1.0281,0,,,,,,,,,,,,,,m,0,1.0281,,,,,,,,0.6640625,-0.0703125,0,0,0,,0,1,1,166,1,SHORY,HB,old,z,./images/SHORYHB.png,,,,,,,,,,,,,,,,,,,,,,,,,,,,,,,,,,
,,,,,,,,,,,,,,,,,61fa943b5719bc09cb834ebb,70,2022-02-12_13h20.46.468,lexical_decision_task_DD_L2,2021.2.3,Win32,60.3682463,,,,,,,,,,,1.0009,1,,,,,,,,,,,,,,m,1,1.0009,,,,,,,,0.6640625,-0.0703125,0,0,0,,0,2,2,66,1,SWEAT,HB,old,m,./images/SWEATHB.png,,,,,,,,,,,,,,,,,,,,,,,,,,,,,,,,,,
,,,,,,,,,,,,,,,,,61fa943b5719bc09cb834ebb,70,2022-02-12_13h20.46.468,lexical_decision_task_DD_L2,2021.2.3,Win32,60.3682463,,,,,,,,,,,0.5466,1,,,,,,,,,,,,,,m,1,0.5466,,,,,,,,0.6640625,-0.069010417,0,0,0,,0,3,3,77,1,COUCH,C,old,m,./images/COUCH.png,,,,,,,,,,,,,,,,,,,,,,,,,,,,,,,,,,
,,,,,,,,,,,,,,,,,61fa943b5719bc09cb834ebb,70,2022-02-12_13h20.46.468,lexical_decision_task_DD_L2,2021.2.3,Win32,60.3682463,,,,,,,,,,,1.0849,1,,,,,,,,,,,,,,z,1,1.0849,,,,,,,,0.6640625,-0.069010417,0,0,0,,0,4,4,136,1,WERVE,HB,old,z,./images/WERVEHB.png,,,,,,,,,,,,,,,,,,,,,,,,,,,,,,,,,,
,,,,,,,,,,,,,,,,,61fa943b5719bc09cb834ebb,70,2022-02-12_13h20.46.468,lexical_decision_task_DD_L2,2021.2.3,Win32,60.3682463,,,,,,,,,,,0.9524,1,,,,,,,,,,,,,,m,1,0.9524,,,,,,,,0.658854167,-0.069010417,0,0,0,,0,5,5,69,1,COOKER,HB,old,m,./images/COOKERHB.png,,,,,,,,,,,,,,,,,,,,,,,,,,,,,,,,,,
,,,,,,,,,,,,,,,,,61fa943b5719bc09cb834ebb,70,2022-02-12_13h20.46.468,lexical_decision_task_DD_L2,2021.2.3,Win32,60.3682463,,,,,,,,,,,1.0177,1,,,,,,,,,,,,,,z,1,1.0177,,,,,,,,0.662760417,-0.0703125,0,0,0,,0,6,6,109,1,BURGE,HB,old,z,./images/BURGEHB.png,,,,,,,,,,,,,,,,,,,,,,,,,,,,,,,,,,
,,,,,,,,,,,,,,,,,61fa943b5719bc09cb834ebb,70,2022-02-12_13h20.46.468,lexical_decision_task_DD_L2,2021.2.3,Win32,60.3682463,,,,,,,,,,,0.9158,1,,,,,,,,,,,,,,z,1,0.9158,,,,,,,,0.662760417,-0.0703125,0,0,0,,0,7,7,135,1,JOODY,C,old,z,./images/JOODY.png,,,,,,,,,,,,,,,,,,,,,,,,,,,,,,,,,,
,,,,,,,,,,,,,,,,,61fa943b5719bc09cb834ebb,70,2022-02-12_13h20.46.468,lexical_decision_task_DD_L2,2021.2.3,Win32,60.3682463,,,,,,,,,,,0.8479,1,,,,,,,,,,,,,,z,1,0.8479,,,,,,,,0.662760417,-0.0703125,0,0,0,,0,8,8,158,1,EGECT,LB,old,z,./images/EGECTLB.png,,,,,,,,,,,,,,,,,,,,,,,,,,,,,,,,,,
,,,,,,,,,,,,,,,,,61fa943b5719bc09cb834ebb,70,2022-02-12_13h20.46.468,lexical_decision_task_DD_L2,2021.2.3,Win32,60.3682463,,,,,,,,,,,0.8803,1,,,,,,,,,,,,,,z,1,0.8803,,,,,,,,0.662760417,-0.0703125,0,0,0,,0,9,9,92,1,PAIMS,LB,old,z,./images/PAIMSLB.png,,,,,,,,,,,,,,,,,,,,,,,,,,,,,,,,,,
,,,,,,,,,,,,,,,,,61fa943b5719bc09cb834ebb,70,2022-02-12_13h20.46.468,lexical_decision_task_DD_L2,2021.2.3,Win32,60.3682463,,,,,,,,,,,0.8837,1,,,,,,,,,,,,,,z,1,0.8837,,,,,,,,0.673177083,-0.067708333,0,0,0,,0,10,10,151,1,TINKY,HB,old,z,./images/TINKYHB.png,,,,,,,,,,,,,,,,,,,,,,,,,,,,,,,,,,
,,,,,,,,,,,,,,,,,61fa943b5719bc09cb834ebb,70,2022-02-12_13h20.46.468,lexical_decision_task_DD_L2,2021.2.3,Win32,60.3682463,,,,,,,,,,,0.7608,1,,,,,,,,,,,,,,z,1,0.7608,,,,,,,,0.673177083,-0.067708333,0,0,0,,0,11,11,138,1,PLICE,C,old,z,./images/PLICE.png,,,,,,,,,,,,,,,,,,,,,,,,,,,,,,,,,,
,,,,,,,,,,,,,,,,,61fa943b5719bc09cb834ebb,70,2022-02-12_13h20.46.468,lexical_decision_task_DD_L2,2021.2.3,Win32,60.3682463,,,,,,,,,,,0.7784,1,,,,,,,,,,,,,,z,1,0.7784,,,,,,,,0.673177083,-0.067708333,0,0,0,,0,12,12,161,1,BLAPS,LB,old,z,./images/BLAPSLB.png,,,,,,,,,,,,,,,,,,,,,,,,,,,,,,,,,,
,,,,,,,,,,,,,,,,,61fa943b5719bc09cb834ebb,70,2022-02-12_13h20.46.468,lexical_decision_task_DD_L2,2021.2.3,Win32,60.3682463,,,,,,,,,,,0.6137,1,,,,,,,,,,,,,,z,1,0.6137,,,,,,,,0.673177083,-0.067708333,0,0,0,,0,13,13,126,1,GUELS,C,old,z,./images/GUELS.png,,,,,,,,,,,,,,,,,,,,,,,,,,,,,,,,,,
,,,,,,,,,,,,,,,,,61fa943b5719bc09cb834ebb,70,2022-02-12_13h20.46.468,lexical_decision_task_DD_L2,2021.2.3,Win32,60.3682463,,,,,,,,,,,0.5678,0,,,,,,,,,,,,,,z,0,0.5678,,,,,,,,0.673177083,-0.067708333,0,0,0,,0,14,14,20,1,CRADLE,C,old,m,./images/CRADLE.png,,,,,,,,,,,,,,,,,,,,,,,,,,,,,,,,,,
,,,,,,,,,,,,,,,,,61fa943b5719bc09cb834ebb,70,2022-02-12_13h20.46.468,lexical_decision_task_DD_L2,2021.2.3,Win32,60.3682463,,,,,,,,,,,0.7816,1,,,,,,,,,,,,,,m,1,0.7816,,,,,,,,0.673177083,-0.067708333,0,0,0,,0,15,15,57,1,MOOSE,HB,old,m,./images/MOOSEHB.png,,,,,,,,,,,,,,,,,,,,,,,,,,,,,,,,,,
,,,,,,,,,,,,,,,,,61fa943b5719bc09cb834ebb,70,2022-02-12_13h20.46.468,lexical_decision_task_DD_L2,2021.2.3,Win32,60.3682463,,,,,,,,,,,0.799,1,,,,,,,,,,,,,,m,1,0.799,,,,,,,,0.677083333,-0.069010417,0,0,0,,0,16,16,17,1,SKIING,C,old,m,./images/SKIING.png,,,,,,,,,,,,,,,,,,,,,,,,,,,,,,,,,,
,,,,,,,,,,,,,,,,,61fa943b5719bc09cb834ebb,70,2022-02-12_13h20.46.468,lexical_decision_task_DD_L2,2021.2.3,Win32,60.3682463,,,,,,,,,,,0.9126,1,,,,,,,,,,,,,,m,1,0.9126,,,,,,,,0.67578125,-0.071614583,0,0,0,,0,17,17,24,1,SCREW,HB,old,m,./images/SCREWHB.png,,,,,,,,,,,,,,,,,,,,,,,,,,,,,,,,,,
,,,,,,,,,,,,,,,,,61fa943b5719bc09cb834ebb,70,2022-02-12_13h20.46.468,lexical_decision_task_DD_L2,2021.2.3,Win32,60.3682463,,,,,,,,,,,0.6861,1,,,,,,,,,,,,,,m,1,0.6861,,,,,,,,0.674479167,-0.0703125,0,0,0,,0,18,18,7,1,PAINT,LB,old,m,./images/PAINTLB.png,,,,,,,,,,,,,,,,,,,,,,,,,,,,,,,,,,
,,,,,,,,,,,,,,,,,61fa943b5719bc09cb834ebb,70,2022-02-12_13h20.46.468,lexical_decision_task_DD_L2,2021.2.3,Win32,60.3682463,,,,,,,,,,,0.7538,1,,,,,,,,,,,,,,z,1,0.7538,,,,,,,,0.671875,-0.088541667,0,0,0,,0,19,19,122,1,BLOOT,LB,old,z,./images/BLOOTLB.png,,,,,,,,,,,,,,,,,,,,,,,,,,,,,,,,,,
,,,,,,,,,,,,,,,,,61fa943b5719bc09cb834ebb,70,2022-02-12_13h20.46.468,lexical_decision_task_DD_L2,2021.2.3,Win32,60.3682463,,,,,,,,,,,0.6639,1,,,,,,,,,,,,,,z,1,0.6639,,,,,,,,0.671875,-0.088541667,0,0,0,,0,20,20,157,1,INLER,HB,old,z,./images/INLERHB.png,,,,,,,,,,,,,,,,,,,,,,,,,,,,,,,,,,
,,,,,,,,,,,,,,,,,61fa943b5719bc09cb834ebb,70,2022-02-12_13h20.46.468,lexical_decision_task_DD_L2,2021.2.3,Win32,60.3682463,,,,,,,,,,,0.846,1,,,,,,,,,,,,,,m,1,0.846,,,,,,,,0.671875,-0.088541667,0,0,0,,0,21,21,48,1,SPORT,HB,old,m,./images/SPORTHB.png,,,,,,,,,,,,,,,,,,,,,,,,,,,,,,,,,,
,,,,,,,,,,,,,,,,,61fa943b5719bc09cb834ebb,70,2022-02-12_13h20.46.468,lexical_decision_task_DD_L2,2021.2.3,Win32,60.3682463,,,,,,,,,,,0.7401,1,,,,,,,,,,,,,,m,1,0.7401,,,,,,,,0.671875,-0.088541667,0,0,0,,0,22,22,60,1,TWINS,HB,old,m,./images/TWINSHB.png,,,,,,,,,,,,,,,,,,,,,,,,,,,,,,,,,,
,,,,,,,,,,,,,,,,,61fa943b5719bc09cb834ebb,70,2022-02-12_13h20.46.468,lexical_decision_task_DD_L2,2021.2.3,Win32,60.3682463,,,,,,,,,,,0.8287,1,,,,,,,,,,,,,,m,1,0.8287,,,,,,,,0.671875,-0.088541667,0,0,0,,0,23,23,18,1,JAGUAR,HB,old,m,./images/JAGUARHB.png,,,,,,,,,,,,,,,,,,,,,,,,,,,,,,,,,,
,,,,,,,,,,,,,,,,,61fa943b5719bc09cb834ebb,70,2022-02-12_13h20.46.468,lexical_decision_task_DD_L2,2021.2.3,Win32,60.3682463,,,,,,,,,,,0.6459,1,,,,,,,,,,,,,,m,1,0.6459,,,,,,,,0.671875,-0.088541667,0,0,0,,0,24,24,51,1,ONION,HB,old,m,./images/ONIONHB.png,,,,,,,,,,,,,,,,,,,,,,,,,,,,,,,,,,
,,,,,,,,,,,,,,,,,61fa943b5719bc09cb834ebb,70,2022-02-12_13h20.46.468,lexical_decision_task_DD_L2,2021.2.3,Win32,60.3682463,,,,,,,,,,,0.6892,1,,,,,,,,,,,,,,z,1,0.6892,,,,,,,,0.671875,-0.088541667,0,0,0,,0,25,25,113,1,LINEW,LB,old,z,./images/LINEWLB.png,,,,,,,,,,,,,,,,,,,,,,,,,,,,,,,,,,
,,,,,,,,,,,,,,,,,61fa943b5719bc09cb834ebb,70,2022-02-12_13h20.46.468,lexical_decision_task_DD_L2,2021.2.3,Win32,60.3682463,,,,,,,,,,,0.7022,1,,,,,,,,,,,,,,z,1,0.7022,,,,,,,,0.671875,-0.088541667,0,0,0,,0,26,26,152,1,FRAIN,LB,old,z,./images/FRAINLB.png,,,,,,,,,,,,,,,,,,,,,,,,,,,,,,,,,,
,,,,,,,,,,,,,,,,,61fa943b5719bc09cb834ebb,70,2022-02-12_13h20.46.468,lexical_decision_task_DD_L2,2021.2.3,Win32,60.3682463,,,,,,,,,,,0.7021,1,,,,,,,,,,,,,,m,1,0.7021,,,,,,,,0.671875,-0.092447917,0,0,0,,0,27,27,83,1,JUNGLE,C,old,m,./images/JUNGLE.png,,,,,,,,,,,,,,,,,,,,,,,,,,,,,,,,,,
,,,,,,,,,,,,,,,,,61fa943b5719bc09cb834ebb,70,2022-02-12_13h20.46.468,lexical_decision_task_DD_L2,2021.2.3,Win32,60.3682463,,,,,,,,,,,0.9479,1,,,,,,,,,,,,,,m,1,0.9479,,,,,,,,0.6640625,-0.111979167,0,0,0,,0,28,28,70,1,URINE,LB,old,m,./images/URINELB.png,,,,,,,,,,,,,,,,,,,,,,,,,,,,,,,,,,
,,,,,,,,,,,,,,,,,61fa943b5719bc09cb834ebb,70,2022-02-12_13h20.46.468,lexical_decision_task_DD_L2,2021.2.3,Win32,60.3682463,,,,,,,,,,,0.6969,1,,,,,,,,,,,,,,z,1,0.6969,,,,,,,,0.669270833,-0.095052083,0,0,0,,0,29,29,105,1,MOKER,C,old,z,./images/MOKER.png,,,,,,,,,,,,,,,,,,,,,,,,,,,,,,,,,,
,,,,,,,,,,,,,,,,,61fa943b5719bc09cb834ebb,70,2022-02-12_13h20.46.468,lexical_decision_task_DD_L2,2021.2.3,Win32,60.3682463,,,,,,,,,,,0.7443,1,,,,,,,,,,,,,,z,1,0.7443,,,,,,,,0.669270833,-0.095052083,0,0,0,,0,30,30,139,1,BLEAR,HB,old,z,./images/BLEARHB.png,,,,,,,,,,,,,,,,,,,,,,,,,,,,,,,,,,
,,,,,,,,,,,,,,,,,61fa943b5719bc09cb834ebb,70,2022-02-12_13h20.46.468,lexical_decision_task_DD_L2,2021.2.3,Win32,60.3682463,,,,,,,,,,,0.5384,1,,,,,,,,,,,,,,m,1,0.5384,,,,,,,,0.669270833,-0.095052083,0,0,0,,0,31,31,26,1,SMOKER,C,old,m,./images/SMOKER.png,,,,,,,,,,,,,,,,,,,,,,,,,,,,,,,,,,
,,,,,,,,,,,,,,,,,61fa943b5719bc09cb834ebb,70,2022-02-12_13h20.46.468,lexical_decision_task_DD_L2,2021.2.3,Win32,60.3682463,,,,,,,,,,,0.8223,1,,,,,,,,,,,,,,z,1,0.8223,,,,,,,,0.669270833,-0.095052083,0,0,0,,0,32,32,160,1,VEETS,HB,old,z,./images/VEETSHB.png,,,,,,,,,,,,,,,,,,,,,,,,,,,,,,,,,,
,,,,,,,,,,,,,,,,,61fa943b5719bc09cb834ebb,70,2022-02-12_13h20.46.468,lexical_decision_task_DD_L2,2021.2.3,Win32,60.3682463,,,,,,,,,,,0.6615,1,,,,,,,,,,,,,,m,1,0.6615,,,,,,,,0.669270833,-0.095052083,0,0,0,,0,33,33,55,1,MUFFIN,LB,old,m,./images/MUFFINLB.png,,,,,,,,,,,,,,,,,,,,,,,,,,,,,,,,,,
,,,,,,,,,,,,,,,,,61fa943b5719bc09cb834ebb,70,2022-02-12_13h20.46.468,lexical_decision_task_DD_L2,2021.2.3,Win32,60.3682463,,,,,,,,,,,0.6971,1,,,,,,,,,,,,,,z,1,0.6971,,,,,,,,0.669270833,-0.095052083,0,0,0,,0,34,34,165,1,TROWN,C,old,z,./images/TROWN.png,,,,,,,,,,,,,,,,,,,,,,,,,,,,,,,,,,
,,,,,,,,,,,,,,,,,61fa943b5719bc09cb834ebb,70,2022-02-12_13h20.46.468,lexical_decision_task_DD_L2,2021.2.3,Win32,60.3682463,,,,,,,,,,,0.8003,1,,,,,,,,,,,,,,z,1,0.8003,,,,,,,,0.669270833,-0.095052083,0,0,0,,0,35,35,91,1,SHENS,HB,old,z,./images/SHENSHB.png,,,,,,,,,,,,,,,,,,,,,,,,,,,,,,,,,,
,,,,,,,,,,,,,,,,,61fa943b5719bc09cb834ebb,70,2022-02-12_13h20.46.468,lexical_decision_task_DD_L2,2021.2.3,Win32,60.3682463,,,,,,,,,,,0.6133,1,,,,,,,,,,,,,,m,1,0.6133,,,,,,,,0.669270833,-0.095052083,0,0,0,,0,36,36,44,1,LIZARD,C,old,m,./images/LIZARD.png,,,,,,,,,,,,,,,,,,,,,,,,,,,,,,,,,,
,,,,,,,,,,,,,,,,,61fa943b5719bc09cb834ebb,70,2022-02-12_13h20.46.468,lexical_decision_task_DD_L2,2021.2.3,Win32,60.3682463,,,,,,,,,,,0.7616,1,,,,,,,,,,,,,,z,1,0.7616,,,,,,,,0.669270833,-0.095052083,0,0,0,,0,37,37,143,1,MONGS,LB,old,z,./images/MONGSLB.png,,,,,,,,,,,,,,,,,,,,,,,,,,,,,,,,,,
,,,,,,,,,,,,,,,,,61fa943b5719bc09cb834ebb,70,2022-02-12_13h20.46.468,lexical_decision_task_DD_L2,2021.2.3,Win32,60.3682463,,,,,,,,,,,0.6642,1,,,,,,,,,,,,,,m,1,0.6642,,,,,,,,0.669270833,-0.095052083,0,0,0,,0,38,38,35,1,PEACH,C,old,m,./images/PEACH.png,,,,,,,,,,,,,,,,,,,,,,,,,,,,,,,,,,
,,,,,,,,,,,,,,,,,61fa943b5719bc09cb834ebb,70,2022-02-12_13h20.46.468,lexical_decision_task_DD_L2,2021.2.3,Win32,60.3682463,,,,,,,,,,,0.9618,1,,,,,,,,,,,,,,m,1,0.9618,,,,,,,,0.669270833,-0.095052083,0,0,0,,0,39,39,21,1,KIDNEY,HB,old,m,./images/KIDNEYHB.png,,,,,,,,,,,,,,,,,,,,,,,,,,,,,,,,,,
,,,,,,,,,,,,,,,,,61fa943b5719bc09cb834ebb,70,2022-02-12_13h20.46.468,lexical_decision_task_DD_L2,2021.2.3,Win32,60.3682463,,,,,,,,,,,0.6513,1,,,,,,,,,,,,,,z,1,0.6513,,,,,,,,0.669270833,-0.095052083,0,0,0,,0,40,40,167,1,ZONET,LB,old,z,./images/ZONETLB.png,,,,,,,,,,,,,,,,,,,,,,,,,,,,,,,,,,
,,,,,,,,,,,,,,,,,61fa943b5719bc09cb834ebb,70,2022-02-12_13h20.46.468,lexical_decision_task_DD_L2,2021.2.3,Win32,60.3682463,,,,,,,,,,,0.7335,0,,,,,,,,,,,,,,z,0,0.7335,,,,,,,,0.022135417,-0.40234375,1,0,0,,0,41,41,58,1,BABOON,LB,old,m,./images/BABOONLB.png,break_done_button,,,,,,,,,,,,,,,,,,,,,,,,,,,,,,,,,
,,,,,,,,,,,,,,,,,61fa943b5719bc09cb834ebb,70,2022-02-12_13h20.46.468,lexical_decision_task_DD_L2,2021.2.3,Win32,60.3682463,,,,,,,,,,,0.8269,1,,,,,,,,,,,,,,m,1,0.8269,,,,,,,,0.88671875,-0.157552083,0,0,0,,0,42,42,81,1,POODLE,HB,old,m,./images/POODLEHB.png,,,,,,,,,,,,,,,,,,,,,,,,,,,,,,,,,,
,,,,,,,,,,,,,,,,,61fa943b5719bc09cb834ebb,70,2022-02-12_13h20.46.468,lexical_decision_task_DD_L2,2021.2.3,Win32,60.3682463,,,,,,,,,,,0.6946,1,,,,,,,,,,,,,,z,1,0.6946,,,,,,,,0.888020833,-0.157552083,0,0,0,,0,43,43,103,1,FLORT,HB,old,z,./images/FLORTHB.png,,,,,,,,,,,,,,,,,,,,,,,,,,,,,,,,,,
,,,,,,,,,,,,,,,,,61fa943b5719bc09cb834ebb,70,2022-02-12_13h20.46.468,lexical_decision_task_DD_L2,2021.2.3,Win32,60.3682463,,,,,,,,,,,0.7779,1,,,,,,,,,,,,,,m,1,0.7779,,,,,,,,0.888020833,-0.157552083,0,0,0,,0,44,44,40,1,SWING,LB,old,m,./images/SWINGLB.png,,,,,,,,,,,,,,,,,,,,,,,,,,,,,,,,,,
,,,,,,,,,,,,,,,,,61fa943b5719bc09cb834ebb,70,2022-02-12_13h20.46.468,lexical_decision_task_DD_L2,2021.2.3,Win32,60.3682463,,,,,,,,,,,0.6696,1,,,,,,,,,,,,,,z,1,0.6696,,,,,,,,0.888020833,-0.157552083,0,0,0,,0,45,45,153,1,CLUPS,C,old,z,./images/CLUPS.png,,,,,,,,,,,,,,,,,,,,,,,,,,,,,,,,,,
,,,,,,,,,,,,,,,,,61fa943b5719bc09cb834ebb,70,2022-02-12_13h20.46.468,lexical_decision_task_DD_L2,2021.2.3,Win32,60.3682463,,,,,,,,,,,0.7991,1,,,,,,,,,,,,,,m,1,0.7991,,,,,,,,0.888020833,-0.157552083,0,0,0,,0,46,46,36,1,THROAT,HB,old,m,./images/THROATHB.png,,,,,,,,,,,,,,,,,,,,,,,,,,,,,,,,,,
,,,,,,,,,,,,,,,,,61fa943b5719bc09cb834ebb,70,2022-02-12_13h20.46.468,lexical_decision_task_DD_L2,2021.2.3,Win32,60.3682463,,,,,,,,,,,0.712,1,,,,,,,,,,,,,,m,1,0.712,,,,,,,,0.888020833,-0.157552083,0,0,0,,0,47,47,27,1,ATTIC,HB,old,m,./images/ATTICHB.png,,,,,,,,,,,,,,,,,,,,,,,,,,,,,,,,,,
,,,,,,,,,,,,,,,,,61fa943b5719bc09cb834ebb,70,2022-02-12_13h20.46.468,lexical_decision_task_DD_L2,2021.2.3,Win32,60.3682463,,,,,,,,,,,0.881,1,,,,,,,,,,,,,,z,1,0.881,,,,,,,,0.888020833,-0.157552083,0,0,0,,0,48,48,131,1,NACES,LB,old,z,./images/NACESLB.png,,,,,,,,,,,,,,,,,,,,,,,,,,,,,,,,,,
,,,,,,,,,,,,,,,,,61fa943b5719bc09cb834ebb,70,2022-02-12_13h20.46.468,lexical_decision_task_DD_L2,2021.2.3,Win32,60.3682463,,,,,,,,,,,1.16,1,,,,,,,,,,,,,,m,1,1.16,,,,,,,,0.888020833,-0.157552083,0,0,0,,0,49,49,42,1,FOLDER,HB,old,m,./images/FOLDERHB.png,,,,,,,,,,,,,,,,,,,,,,,,,,,,,,,,,,
,,,,,,,,,,,,,,,,,61fa943b5719bc09cb834ebb,70,2022-02-12_13h20.46.468,lexical_decision_task_DD_L2,2021.2.3,Win32,60.3682463,,,,,,,,,,,0.7087,1,,,,,,,,,,,,,,z,1,0.7087,,,,,,,,0.888020833,-0.157552083,0,0,0,,0,50,50,137,1,JOOST,LB,old,z,./images/JOOSTLB.png,,,,,,,,,,,,,,,,,,,,,,,,,,,,,,,,,,
,,,,,,,,,,,,,,,,,61fa943b5719bc09cb834ebb,70,2022-02-12_13h20.46.468,lexical_decision_task_DD_L2,2021.2.3,Win32,60.3682463,,,,,,,,,,,0.6642,1,,,,,,,,,,,,,,z,1,0.6642,,,,,,,,0.888020833,-0.157552083,0,0,0,,0,51,51,150,1,NOOLS,C,old,z,./images/NOOLS.png,,,,,,,,,,,,,,,,,,,,,,,,,,,,,,,,,,
,,,,,,,,,,,,,,,,,61fa943b5719bc09cb834ebb,70,2022-02-12_13h20.46.468,lexical_decision_task_DD_L2,2021.2.3,Win32,60.3682463,,,,,,,,,,,0.6137,1,,,,,,,,,,,,,,m,1,0.6137,,,,,,,,0.888020833,-0.157552083,0,0,0,,0,52,52,29,1,CRUMB,C,old,m,./images/CRUMB.png,,,,,,,,,,,,,,,,,,,,,,,,,,,,,,,,,,
,,,,,,,,,,,,,,,,,61fa943b5719bc09cb834ebb,70,2022-02-12_13h20.46.468,lexical_decision_task_DD_L2,2021.2.3,Win32,60.3682463,,,,,,,,,,,0.586,1,,,,,,,,,,,,,,z,1,0.586,,,,,,,,0.888020833,-0.157552083,0,0,0,,0,53,53,99,1,BACKY,C,old,z,./images/BACKY.png,,,,,,,,,,,,,,,,,,,,,,,,,,,,,,,,,,
,,,,,,,,,,,,,,,,,61fa943b5719bc09cb834ebb,70,2022-02-12_13h20.46.468,lexical_decision_task_DD_L2,2021.2.3,Win32,60.3682463,,,,,,,,,,,0.6641,1,,,,,,,,,,,,,,z,1,0.6641,,,,,,,,0.888020833,-0.157552083,0,0,0,,0,54,54,108,1,GRUET,C,old,z,./images/GRUET.png,,,,,,,,,,,,,,,,,,,,,,,,,,,,,,,,,,
,,,,,,,,,,,,,,,,,61fa943b5719bc09cb834ebb,70,2022-02-12_13h20.46.468,lexical_decision_task_DD_L2,2021.2.3,Win32,60.3682463,,,,,,,,,,,0.6792,1,,,,,,,,,,,,,,m,1,0.6792,0.888020833,-0.157552083,1,0,0,0.6169,,0.888020833,-0.157552083,1,0,0,,0,55,55,41,1,STRING,C,old,m,./images/STRING.png,,,,,,,,,,,,,,,,,,,,,,,,,,,,,,,,,,
,,,,,,,,,,,,,,,,,61fa943b5719bc09cb834ebb,70,2022-02-12_13h20.46.468,lexical_decision_task_DD_L2,2021.2.3,Win32,60.3682463,,,,,,,,,,,0.7679,1,,,,,,,,,,,,,,m,1,0.7679,,,,,,,,0.885416667,-0.157552083,0,0,0,,0,56,56,3,1,FINGER,HB,old,m,./images/FINGERHB.png,,,,,,,,,,,,,,,,,,,,,,,,,,,,,,,,,,
,,,,,,,,,,,,,,,,,61fa943b5719bc09cb834ebb,70,2022-02-12_13h20.46.468,lexical_decision_task_DD_L2,2021.2.3,Win32,60.3682463,,,,,,,,,,,0.7044,1,,,,,,,,,,,,,,m,1,0.7044,,,,,,,,0.885416667,-0.157552083,0,0,0,,0,57,57,76,1,INFANT,LB,old,m,./images/INFANTLB.png,,,,,,,,,,,,,,,,,,,,,,,,,,,,,,,,,,
,,,,,,,,,,,,,,,,,61fa943b5719bc09cb834ebb,70,2022-02-12_13h20.46.468,lexical_decision_task_DD_L2,2021.2.3,Win32,60.3682463,,,,,,,,,,,0.6886,1,,,,,,,,,,,,,,z,1,0.6886,,,,,,,,0.885416667,-0.157552083,0,0,0,,0,58,58,100,1,DRIBS,HB,old,z,./images/DRIBSHB.png,,,,,,,,,,,,,,,,,,,,,,,,,,,,,,,,,,
,,,,,,,,,,,,,,,,,61fa943b5719bc09cb834ebb,70,2022-02-12_13h20.46.468,lexical_decision_task_DD_L2,2021.2.3,Win32,60.3682463,,,,,,,,,,,0.5969,1,,,,,,,,,,,,,,z,1,0.5969,,,,,,,,0.885416667,-0.158854167,0,0,0,,0,59,59,114,1,RIKES,C,old,z,./images/RIKES.png,,,,,,,,,,,,,,,,,,,,,,,,,,,,,,,,,,
,,,,,,,,,,,,,,,,,61fa943b5719bc09cb834ebb,70,2022-02-12_13h20.46.468,lexical_decision_task_DD_L2,2021.2.3,Win32,60.3682463,,,,,,,,,,,0.7273,1,,,,,,,,,,,,,,z,1,0.7273,,,,,,,,0.885416667,-0.158854167,0,0,0,,0,60,60,86,1,AIFED,LB,old,z,./images/AIFEDLB.png,,,,,,,,,,,,,,,,,,,,,,,,,,,,,,,,,,
,,,,,,,,,,,,,,,,,61fa943b5719bc09cb834ebb,70,2022-02-12_13h20.46.468,lexical_decision_task_DD_L2,2021.2.3,Win32,60.3682463,,,,,,,,,,,0.9779,1,,,,,,,,,,,,,,z,1,0.9779,,,,,,,,0.885416667,-0.158854167,0,0,0,,0,61,61,133,1,POWDY,HB,old,z,./images/POWDYHB.png,,,,,,,,,,,,,,,,,,,,,,,,,,,,,,,,,,
,,,,,,,,,,,,,,,,,61fa943b5719bc09cb834ebb,70,2022-02-12_13h20.46.468,lexical_decision_task_DD_L2,2021.2.3,Win32,60.3682463,,,,,,,,,,,0.5486,1,,,,,,,,,,,,,,z,1,0.5486,,,,,,,,0.885416667,-0.158854167,0,0,0,,0,62,62,123,1,SEDGE,C,old,z,./images/SEDGE.png,,,,,,,,,,,,,,,,,,,,,,,,,,,,,,,,,,
,,,,,,,,,,,,,,,,,61fa943b5719bc09cb834ebb,70,2022-02-12_13h20.46.468,lexical_decision_task_DD_L2,2021.2.3,Win32,60.3682463,,,,,,,,,,,0.5565,1,,,,,,,,,,,,,,m,1,0.5565,,,,,,,,0.888020833,-0.161458333,0,0,0,,0,63,63,56,1,PACKET,C,old,m,./images/PACKET.png,,,,,,,,,,,,,,,,,,,,,,,,,,,,,,,,,,
,,,,,,,,,,,,,,,,,61fa943b5719bc09cb834ebb,70,2022-02-12_13h20.46.468,lexical_decision_task_DD_L2,2021.2.3,Win32,60.3682463,,,,,,,,,,,0.5867,1,,,,,,,,,,,,,,z,1,0.5867,,,,,,,,0.885416667,-0.184895833,0,0,0,,0,64,64,159,1,CUDDY,C,old,z,./images/CUDDY.png,,,,,,,,,,,,,,,,,,,,,,,,,,,,,,,,,,
,,,,,,,,,,,,,,,,,61fa943b5719bc09cb834ebb,70,2022-02-12_13h20.46.468,lexical_decision_task_DD_L2,2021.2.3,Win32,60.3682463,,,,,,,,,,,0.6692,1,,,,,,,,,,,,,,m,1,0.6692,,,,,,,,0.884114583,-0.177083333,0,0,0,,0,65,65,65,1,FARMER,C,old,m,./images/FARMER.png,,,,,,,,,,,,,,,,,,,,,,,,,,,,,,,,,,
,,,,,,,,,,,,,,,,,61fa943b5719bc09cb834ebb,70,2022-02-12_13h20.46.468,lexical_decision_task_DD_L2,2021.2.3,Win32,60.3682463,,,,,,,,,,,0.6806,1,,,,,,,,,,,,,,m,1,0.6806,,,,,,,,0.881510417,-0.177083333,0,0,0,,0,66,66,2,1,BEARD,C,old,m,./images/BEARD.png,,,,,,,,,,,,,,,,,,,,,,,,,,,,,,,,,,
,,,,,,,,,,,,,,,,,61fa943b5719bc09cb834ebb,70,2022-02-12_13h20.46.468,lexical_decision_task_DD_L2,2021.2.3,Win32,60.3682463,,,,,,,,,,,0.5765,1,,,,,,,,,,,,,,z,1,0.5765,,,,,,,,0.881510417,-0.177083333,0,0,0,,0,67,67,127,1,NINDY,HB,old,z,./images/NINDYHB.png,,,,,,,,,,,,,,,,,,,,,,,,,,,,,,,,,,
,,,,,,,,,,,,,,,,,61fa943b5719bc09cb834ebb,70,2022-02-12_13h20.46.468,lexical_decision_task_DD_L2,2021.2.3,Win32,60.3682463,,,,,,,,,,,0.6272,1,,,,,,,,,,,,,,m,1,0.6272,,,,,,,,0.881510417,-0.177083333,0,0,0,,0,68,68,13,1,MOTOR,LB,old,m,./images/MOTORLB.png,,,,,,,,,,,,,,,,,,,,,,,,,,,,,,,,,,
,,,,,,,,,,,,,,,,,61fa943b5719bc09cb834ebb,70,2022-02-12_13h20.46.468,lexical_decision_task_DD_L2,2021.2.3,Win32,60.3682463,,,,,,,,,,,0.6816,1,,,,,,,,,,,,,,m,1,0.6816,,,,,,,,0.881510417,-0.177083333,0,0,0,,0,69,69,6,1,SQUARE,HB,old,m,./images/SQUAREHB.png,,,,,,,,,,,,,,,,,,,,,,,,,,,,,,,,,,
,,,,,,,,,,,,,,,,,61fa943b5719bc09cb834ebb,70,2022-02-12_13h20.46.468,lexical_decision_task_DD_L2,2021.2.3,Win32,60.3682463,,,,,,,,,,,0.7311,1,,,,,,,,,,,,,,m,1,0.7311,,,,,,,,0.881510417,-0.177083333,0,0,0,,0,70,70,50,1,MALLET,C,old,m,./images/MALLET.png,,,,,,,,,,,,,,,,,,,,,,,,,,,,,,,,,,
,,,,,,,,,,,,,,,,,61fa943b5719bc09cb834ebb,70,2022-02-12_13h20.46.468,lexical_decision_task_DD_L2,2021.2.3,Win32,60.3682463,,,,,,,,,,,0.6149,1,,,,,,,,,,,,,,m,1,0.6149,,,,,,,,0.881510417,-0.177083333,0,0,0,,0,71,71,52,1,BANNER,LB,old,m,./images/BANNERLB.png,,,,,,,,,,,,,,,,,,,,,,,,,,,,,,,,,,
,,,,,,,,,,,,,,,,,61fa943b5719bc09cb834ebb,70,2022-02-12_13h20.46.468,lexical_decision_task_DD_L2,2021.2.3,Win32,60.3682463,,,,,,,,,,,0.6278,1,,,,,,,,,,,,,,m,1,0.6278,,,,,,,,0.8828125,-0.177083333,0,0,0,,0,72,72,49,1,DRUMS,LB,old,m,./images/DRUMSLB.png,,,,,,,,,,,,,,,,,,,,,,,,,,,,,,,,,,
,,,,,,,,,,,,,,,,,61fa943b5719bc09cb834ebb,70,2022-02-12_13h20.46.468,lexical_decision_task_DD_L2,2021.2.3,Win32,60.3682463,,,,,,,,,,,0.6967,1,,,,,,,,,,,,,,z,1,0.6967,,,,,,,,0.8828125,-0.177083333,0,0,0,,0,73,73,102,1,DULLE,C,old,z,./images/DULLE.png,,,,,,,,,,,,,,,,,,,,,,,,,,,,,,,,,,
,,,,,,,,,,,,,,,,,61fa943b5719bc09cb834ebb,70,2022-02-12_13h20.46.468,lexical_decision_task_DD_L2,2021.2.3,Win32,60.3682463,,,,,,,,,,,0.6014,1,,,,,,,,,,,,,,m,1,0.6014,,,,,,,,0.8828125,-0.177083333,0,0,0,,0,74,74,67,1,SAILOR,LB,old,m,./images/SAILORLB.png,,,,,,,,,,,,,,,,,,,,,,,,,,,,,,,,,,
,,,,,,,,,,,,,,,,,61fa943b5719bc09cb834ebb,70,2022-02-12_13h20.46.468,lexical_decision_task_DD_L2,2021.2.3,Win32,60.3682463,,,,,,,,,,,0.5838,1,,,,,,,,,,,,,,m,1,0.5838,,,,,,,,0.8828125,-0.177083333,0,0,0,,0,75,75,64,1,JELLY,LB,old,m,./images/JELLYLB.png,,,,,,,,,,,,,,,,,,,,,,,,,,,,,,,,,,
,,,,,,,,,,,,,,,,,61fa943b5719bc09cb834ebb,70,2022-02-12_13h20.46.468,lexical_decision_task_DD_L2,2021.2.3,Win32,60.3682463,,,,,,,,,,,0.678,1,,,,,,,,,,,,,,z,1,0.678,,,,,,,,0.8828125,-0.177083333,0,0,0,,0,76,76,115,1,MAWNS,HB,old,z,./images/MAWNSHB.png,,,,,,,,,,,,,,,,,,,,,,,,,,,,,,,,,,
,,,,,,,,,,,,,,,,,61fa943b5719bc09cb834ebb,70,2022-02-12_13h20.46.468,lexical_decision_task_DD_L2,2021.2.3,Win32,60.3682463,,,,,,,,,,,0.6647,1,,,,,,,,,,,,,,z,1,0.6647,,,,,,,,0.8828125,-0.177083333,0,0,0,,0,77,77,96,1,KEAMS,C,old,z,./images/KEAMS.png,,,,,,,,,,,,,,,,,,,,,,,,,,,,,,,,,,
,,,,,,,,,,,,,,,,,61fa943b5719bc09cb834ebb,70,2022-02-12_13h20.46.468,lexical_decision_task_DD_L2,2021.2.3,Win32,60.3682463,,,,,,,,,,,0.6609,1,,,,,,,,,,,,,,m,1,0.6609,,,,,,,,0.8828125,-0.177083333,0,0,0,,0,78,78,12,1,SHORE,HB,old,m,./images/SHOREHB.png,,,,,,,,,,,,,,,,,,,,,,,,,,,,,,,,,,
,,,,,,,,,,,,,,,,,61fa943b5719bc09cb834ebb,70,2022-02-12_13h20.46.468,lexical_decision_task_DD_L2,2021.2.3,Win32,60.3682463,,,,,,,,,,,0.7219,1,,,,,,,,,,,,,,m,1,0.7219,,,,,,,,0.884114583,-0.177083333,0,0,0,,0,79,79,25,1,WRIST,LB,old,m,./images/WRISTLB.png,,,,,,,,,,,,,,,,,,,,,,,,,,,,,,,,,,
,,,,,,,,,,,,,,,,,61fa943b5719bc09cb834ebb,70,2022-02-12_13h20.46.468,lexical_decision_task_DD_L2,2021.2.3,Win32,60.3682463,,,,,,,,,,,0.6775,1,,,,,,,,,,,,,,z,1,0.6775,,,,,,,,0.884114583,-0.177083333,0,0,0,,0,80,80,119,1,PAFER,LB,old,z,./images/PAFERLB.png,,,,,,,,,,,,,,,,,,,,,,,,,,,,,,,,,,
,,,,,,,,,,,,,,,,,61fa943b5719bc09cb834ebb,70,2022-02-12_13h20.46.468,lexical_decision_task_DD_L2,2021.2.3,Win32,60.3682463,,,,,,,,,,,0.7449,1,,,,,,,,,,,,,,z,1,0.7449,,,,,,,,0.884114583,-0.177083333,0,0,0,,0,81,81,97,1,CHIDS,HB,old,z,./images/CHIDSHB.png,,,,,,,,,,,,,,,,,,,,,,,,,,,,,,,,,,
,,,,,,,,,,,,,,,,,61fa943b5719bc09cb834ebb,70,2022-02-12_13h20.46.468,lexical_decision_task_DD_L2,2021.2.3,Win32,60.3682463,,,,,,,,,,,0.9749,1,,,,,,,,,,,,,,m,1,0.9749,,,,,,,,0.884114583,-0.177083333,0,0,0,,0,82,82,9,1,RHINO,HB,old,m,./images/RHINOHB.png,,,,,,,,,,,,,,,,,,,,,,,,,,,,,,,,,,
,,,,,,,,,,,,,,,,,61fa943b5719bc09cb834ebb,70,2022-02-12_13h20.46.468,lexical_decision_task_DD_L2,2021.2.3,Win32,60.3682463,,,,,,,,,,,0.6125,1,,,,,,,,,,,,,,z,1,0.6125,,,,,,,,0.061197917,-0.395833333,1,0,0,,0,83,83,148,1,JOMS,HB,old,z,./images/JOMSHB.png,break_done_button,,,,,,,,,,,,,,,,,,,,,,,,,,,,,,,,,
,,,,,,,,,,,,,,,,,61fa943b5719bc09cb834ebb,70,2022-02-12_13h20.46.468,lexical_decision_task_DD_L2,2021.2.3,Win32,60.3682463,,,,,,,,,,,0.6489,1,,,,,,,,,,,,,,m,1,0.6489,,,,,,,,0.888020833,-0.029947917,0,0,0,,0,84,84,45,1,KITTEN,HB,old,m,./images/KITTENHB.png,,,,,,,,,,,,,,,,,,,,,,,,,,,,,,,,,,
,,,,,,,,,,,,,,,,,61fa943b5719bc09cb834ebb,70,2022-02-12_13h20.46.468,lexical_decision_task_DD_L2,2021.2.3,Win32,60.3682463,,,,,,,,,,,0.6806,1,,,,,,,,,,,,,,z,1,0.6806,,,,,,,,0.888020833,-0.04296875,0,0,0,,0,85,85,145,1,LAMEL,HB,old,z,./images/LAMELHB.png,,,,,,,,,,,,,,,,,,,,,,,,,,,,,,,,,,
,,,,,,,,,,,,,,,,,61fa943b5719bc09cb834ebb,70,2022-02-12_13h20.46.468,lexical_decision_task_DD_L2,2021.2.3,Win32,60.3682463,,,,,,,,,,,0.5637,1,,,,,,,,,,,,,,z,1,0.5637,,,,,,,,0.888020833,-0.029947917,0,0,0,,0,86,86,147,1,ZOLES,C,old,z,./images/ZOLES.png,,,,,,,,,,,,,,,,,,,,,,,,,,,,,,,,,,
,,,,,,,,,,,,,,,,,61fa943b5719bc09cb834ebb,70,2022-02-12_13h20.46.468,lexical_decision_task_DD_L2,2021.2.3,Win32,60.3682463,,,,,,,,,,,0.7616,1,,,,,,,,,,,,,,z,1,0.7616,,,,,,,,0.838541667,-0.063802083,0,0,0,,0,87,87,125,1,MOOKY,LB,old,z,./images/MOOKYLB.png,,,,,,,,,,,,,,,,,,,,,,,,,,,,,,,,,,
,,,,,,,,,,,,,,,,,61fa943b5719bc09cb834ebb,70,2022-02-12_13h20.46.468,lexical_decision_task_DD_L2,2021.2.3,Win32,60.3682463,,,,,,,,,,,0.5977,1,,,,,,,,,,,,,,m,1,0.5977,,,,,,,,0.838541667,-0.063802083,0,0,0,,0,88,88,82,1,SUNSET,LB,old,m,./images/SUNSETLB.png,,,,,,,,,,,,,,,,,,,,,,,,,,,,,,,,,,
,,,,,,,,,,,,,,,,,61fa943b5719bc09cb834ebb,70,2022-02-12_13h20.46.468,lexical_decision_task_DD_L2,2021.2.3,Win32,60.3682463,,,,,,,,,,,0.5974,1,,,,,,,,,,,,,,z,1,0.5974,,,,,,,,0.838541667,-0.063802083,0,0,0,,0,89,89,141,1,PLEET,C,old,z,./images/PLEET.png,,,,,,,,,,,,,,,,,,,,,,,,,,,,,,,,,,
,,,,,,,,,,,,,,,,,61fa943b5719bc09cb834ebb,70,2022-02-12_13h20.46.468,lexical_decision_task_DD_L2,2021.2.3,Win32,60.3682463,,,,,,,,,,,0.6787,1,,,,,,,,,,,,,,z,1,0.6787,,,,,,,,0.838541667,-0.063802083,0,0,0,,0,90,90,89,1,DRIEK,LB,old,z,./images/DRIEKLB.png,,,,,,,,,,,,,,,,,,,,,,,,,,,,,,,,,,
,,,,,,,,,,,,,,,,,61fa943b5719bc09cb834ebb,70,2022-02-12_13h20.46.468,lexical_decision_task_DD_L2,2021.2.3,Win32,60.3682463,,,,,,,,,,,0.6479,1,,,,,,,,,,,,,,m,1,0.6479,,,,,,,,0.838541667,-0.063802083,0,0,0,,0,91,91,62,1,PURSE,C,old,m,./images/PURSE.png,,,,,,,,,,,,,,,,,,,,,,,,,,,,,,,,,,
,,,,,,,,,,,,,,,,,61fa943b5719bc09cb834ebb,70,2022-02-12_13h20.46.468,lexical_decision_task_DD_L2,2021.2.3,Win32,60.3682463,,,,,,,,,,,0.6446,1,,,,,,,,,,,,,,m,1,0.6446,,,,,,,,0.838541667,-0.063802083,0,0,0,,0,92,92,19,1,DOUGH,LB,old,m,./images/DOUGHLB.png,,,,,,,,,,,,,,,,,,,,,,,,,,,,,,,,,,
,,,,,,,,,,,,,,,,,61fa943b5719bc09cb834ebb,70,2022-02-12_13h20.46.468,lexical_decision_task_DD_L2,2021.2.3,Win32,60.3682463,,,,,,,,,,,0.8328,1,,,,,,,,,,,,,,z,1,0.8328,,,,,,,,0.838541667,-0.063802083,0,0,0,,0,93,93,118,1,BAVEL,HB,old,z,./images/BAVELHB.png,,,,,,,,,,,,,,,,,,,,,,,,,,,,,,,,,,
,,,,,,,,,,,,,,,,,61fa943b5719bc09cb834ebb,70,2022-02-12_13h20.46.468,lexical_decision_task_DD_L2,2021.2.3,Win32,60.3682463,,,,,,,,,,,0.6181,1,,,,,,,,,,,,,,m,1,0.6181,,,,,,,,0.838541667,-0.063802083,0,0,0,,0,94,94,80,1,WEASEL,C,old,m,./images/WEASEL.png,,,,,,,,,,,,,,,,,,,,,,,,,,,,,,,,,,
,,,,,,,,,,,,,,,,,61fa943b5719bc09cb834ebb,70,2022-02-12_13h20.46.468,lexical_decision_task_DD_L2,2021.2.3,Win32,60.3682463,,,,,,,,,,,0.7114,1,,,,,,,,,,,,,,m,1,0.7114,,,,,,,,0.838541667,-0.063802083,0,0,0,,0,95,95,73,1,SNACK,LB,old,m,./images/SNACKLB.png,,,,,,,,,,,,,,,,,,,,,,,,,,,,,,,,,,
,,,,,,,,,,,,,,,,,61fa943b5719bc09cb834ebb,70,2022-02-12_13h20.46.468,lexical_decision_task_DD_L2,2021.2.3,Win32,60.3682463,,,,,,,,,,,0.6317,1,,,,,,,,,,,,,,m,1,0.6317,,,,,,,,0.838541667,-0.063802083,0,0,0,,0,96,96,53,1,CARPET,C,old,m,./images/CARPET.png,,,,,,,,,,,,,,,,,,,,,,,,,,,,,,,,,,
,,,,,,,,,,,,,,,,,61fa943b5719bc09cb834ebb,70,2022-02-12_13h20.46.468,lexical_decision_task_DD_L2,2021.2.3,Win32,60.3682463,,,,,,,,,,,0.6083,0,,,,,,,,,,,,,,z,0,0.6083,,,,,,,,0.838541667,-0.063802083,0,0,0,,0,97,97,59,1,BURIAL,C,old,m,./images/BURIAL.png,,,,,,,,,,,,,,,,,,,,,,,,,,,,,,,,,,
,,,,,,,,,,,,,,,,,61fa943b5719bc09cb834ebb,70,2022-02-12_13h20.46.468,lexical_decision_task_DD_L2,2021.2.3,Win32,60.3682463,,,,,,,,,,,0.8813,1,,,,,,,,,,,,,,z,1,0.8813,,,,,,,,0.838541667,-0.063802083,0,0,0,,0,98,98,111,1,HOSSE,C,old,z,./images/HOSSE.png,,,,,,,,,,,,,,,,,,,,,,,,,,,,,,,,,,
,,,,,,,,,,,,,,,,,61fa943b5719bc09cb834ebb,70,2022-02-12_13h20.46.468,lexical_decision_task_DD_L2,2021.2.3,Win32,60.3682463,,,,,,,,,,,0.6284,1,,,,,,,,,,,,,,m,1,0.6284,,,,,,,,0.838541667,-0.063802083,0,0,0,,0,99,99,11,1,BONNET,C,old,m,./images/BONNET.png,,,,,,,,,,,,,,,,,,,,,,,,,,,,,,,,,,
,,,,,,,,,,,,,,,,,61fa943b5719bc09cb834ebb,70,2022-02-12_13h20.46.468,lexical_decision_task_DD_L2,2021.2.3,Win32,60.3682463,,,,,,,,,,,0.9045,1,,,,,,,,,,,,,,z,1,0.9045,,,,,,,,0.838541667,-0.063802083,0,0,0,,0,100,100,104,1,GITTY,LB,old,z,./images/GITTYLB.png,,,,,,,,,,,,,,,,,,,,,,,,,,,,,,,,,,
,,,,,,,,,,,,,,,,,61fa943b5719bc09cb834ebb,70,2022-02-12_13h20.46.468,lexical_decision_task_DD_L2,2021.2.3,Win32,60.3682463,,,,,,,,,,,0.7851,1,,,,,,,,,,,,,,m,1,0.7851,,,,,,,,0.838541667,-0.063802083,0,0,0,,0,101,101,74,1,CEMENT,C,old,m,./images/CEMENT.png,,,,,,,,,,,,,,,,,,,,,,,,,,,,,,,,,,
,,,,,,,,,,,,,,,,,61fa943b5719bc09cb834ebb,70,2022-02-12_13h20.46.468,lexical_decision_task_DD_L2,2021.2.3,Win32,60.3682463,,,,,,,,,,,0.6599,1,,,,,,,,,,,,,,m,1,0.6599,,,,,,,,0.8359375,-0.0625,0,0,0,,0,102,102,4,1,MUSCLE,LB,old,m,./images/MUSCLELB.png,,,,,,,,,,,,,,,,,,,,,,,,,,,,,,,,,,
,,,,,,,,,,,,,,,,,61fa943b5719bc09cb834ebb,70,2022-02-12_13h20.46.468,lexical_decision_task_DD_L2,2021.2.3,Win32,60.3682463,,,,,,,,,,,0.6253,1,,,,,,,,,,,,,,z,1,0.6253,,,,,,,,0.834635417,-0.061197917,0,0,0,,0,103,103,90,1,NEAST,C,old,z,./images/NEAST.png,,,,,,,,,,,,,,,,,,,,,,,,,,,,,,,,,,
,,,,,,,,,,,,,,,,,61fa943b5719bc09cb834ebb,70,2022-02-12_13h20.46.468,lexical_decision_task_DD_L2,2021.2.3,Win32,60.3682463,,,,,,,,,,,0.9272,1,,,,,,,,,,,,,,z,1,0.9272,,,,,,,,0.834635417,-0.061197917,0,0,0,,0,104,104,88,1,GLUSH,HB,old,z,./images/GLUSHHB.png,,,,,,,,,,,,,,,,,,,,,,,,,,,,,,,,,,
,,,,,,,,,,,,,,,,,61fa943b5719bc09cb834ebb,70,2022-02-12_13h20.46.468,lexical_decision_task_DD_L2,2021.2.3,Win32,60.3682463,,,,,,,,,,,0.8284,1,,,,,,,,,,,,,,z,1,0.8284,,,,,,,,0.834635417,-0.061197917,0,0,0,,0,105,105,95,1,HANTY,LB,old,z,./images/HANTYLB.png,,,,,,,,,,,,,,,,,,,,,,,,,,,,,,,,,,
,,,,,,,,,,,,,,,,,61fa943b5719bc09cb834ebb,70,2022-02-12_13h20.46.468,lexical_decision_task_DD_L2,2021.2.3,Win32,60.3682463,,,,,,,,,,,0.718,1,,,,,,,,,,,,,,z,1,0.718,,,,,,,,0.834635417,-0.061197917,0,0,0,,0,106,106,98,1,BAMPS,LB,old,z,./images/BAMPSLB.png,,,,,,,,,,,,,,,,,,,,,,,,,,,,,,,,,,
,,,,,,,,,,,,,,,,,61fa943b5719bc09cb834ebb,70,2022-02-12_13h20.46.468,lexical_decision_task_DD_L2,2021.2.3,Win32,60.3682463,,,,,,,,,,,0.6389,1,,,,,,,,,,,,,,z,1,0.6389,,,,,,,,0.834635417,-0.061197917,0,0,0,,0,107,107,124,1,TUNCH,HB,old,z,./images/TUNCHHB.png,,,,,,,,,,,,,,,,,,,,,,,,,,,,,,,,,,
,,,,,,,,,,,,,,,,,61fa943b5719bc09cb834ebb,70,2022-02-12_13h20.46.468,lexical_decision_task_DD_L2,2021.2.3,Win32,60.3682463,,,,,,,,,,,0.5259,1,,,,,,,,,,,,,,m,1,0.5259,,,,,,,,0.834635417,-0.061197917,0,0,0,,0,108,108,32,1,BARREL,C,old,m,./images/BARREL.png,,,,,,,,,,,,,,,,,,,,,,,,,,,,,,,,,,
,,,,,,,,,,,,,,,,,61fa943b5719bc09cb834ebb,70,2022-02-12_13h20.46.468,lexical_decision_task_DD_L2,2021.2.3,Win32,60.3682463,,,,,,,,,,,0.8809,1,,,,,,,,,,,,,,m,1,0.8809,,,,,,,,0.841145833,-0.0703125,0,0,0,,0,109,109,28,1,FALCON,LB,old,m,./images/FALCONLB.png,,,,,,,,,,,,,,,,,,,,,,,,,,,,,,,,,,
,,,,,,,,,,,,,,,,,61fa943b5719bc09cb834ebb,70,2022-02-12_13h20.46.468,lexical_decision_task_DD_L2,2021.2.3,Win32,60.3682463,,,,,,,,,,,0.578,1,,,,,,,,,,,,,,z,1,0.578,,,,,,,,0.837239583,-0.071614583,0,0,0,,0,110,110,94,1,BLANS,HB,old,z,./images/BLANSHB.png,,,,,,,,,,,,,,,,,,,,,,,,,,,,,,,,,,
,,,,,,,,,,,,,,,,,61fa943b5719bc09cb834ebb,70,2022-02-12_13h20.46.468,lexical_decision_task_DD_L2,2021.2.3,Win32,60.3682463,,,,,,,,,,,0.5046,1,,,,,,,,,,,,,,m,1,0.5046,,,,,,,,0.837239583,-0.071614583,0,0,0,,0,111,111,14,1,PICKLE,C,old,m,./images/PICKLE.png,,,,,,,,,,,,,,,,,,,,,,,,,,,,,,,,,,
,,,,,,,,,,,,,,,,,61fa943b5719bc09cb834ebb,70,2022-02-12_13h20.46.468,lexical_decision_task_DD_L2,2021.2.3,Win32,60.3682463,,,,,,,,,,,0.6274,1,,,,,,,,,,,,,,m,1,0.6274,,,,,,,,0.837239583,-0.071614583,0,0,0,,0,112,112,34,1,CANYON,LB,old,m,./images/CANYONLB.png,,,,,,,,,,,,,,,,,,,,,,,,,,,,,,,,,,
,,,,,,,,,,,,,,,,,61fa943b5719bc09cb834ebb,70,2022-02-12_13h20.46.468,lexical_decision_task_DD_L2,2021.2.3,Win32,60.3682463,,,,,,,,,,,0.6804,1,,,,,,,,,,,,,,m,1,0.6804,,,,,,,,0.837239583,-0.071614583,0,0,0,,0,113,113,23,1,WALRUS,C,old,m,./images/WALRUS.png,,,,,,,,,,,,,,,,,,,,,,,,,,,,,,,,,,
,,,,,,,,,,,,,,,,,61fa943b5719bc09cb834ebb,70,2022-02-12_13h20.46.468,lexical_decision_task_DD_L2,2021.2.3,Win32,60.3682463,,,,,,,,,,,0.6479,1,,,,,,,,,,,,,,z,1,0.6479,,,,,,,,0.837239583,-0.071614583,0,0,0,,0,114,114,129,1,PRANS,C,old,z,./images/PRANS.png,,,,,,,,,,,,,,,,,,,,,,,,,,,,,,,,,,
,,,,,,,,,,,,,,,,,61fa943b5719bc09cb834ebb,70,2022-02-12_13h20.46.468,lexical_decision_task_DD_L2,2021.2.3,Win32,60.3682463,,,,,,,,,,,0.6434,1,,,,,,,,,,,,,,z,1,0.6434,,,,,,,,0.837239583,-0.071614583,0,0,0,,0,115,115,142,1,PLASK,HB,old,z,./images/PLASKHB.png,,,,,,,,,,,,,,,,,,,,,,,,,,,,,,,,,,
,,,,,,,,,,,,,,,,,61fa943b5719bc09cb834ebb,70,2022-02-12_13h20.46.468,lexical_decision_task_DD_L2,2021.2.3,Win32,60.3682463,,,,,,,,,,,0.6306,1,,,,,,,,,,,,,,z,1,0.6306,,,,,,,,0.837239583,-0.071614583,0,0,0,,0,116,116,117,1,STEEG,C,old,z,./images/STEEG.png,,,,,,,,,,,,,,,,,,,,,,,,,,,,,,,,,,
,,,,,,,,,,,,,,,,,61fa943b5719bc09cb834ebb,70,2022-02-12_13h20.46.468,lexical_decision_task_DD_L2,2021.2.3,Win32,60.3682463,,,,,,,,,,,0.6105,0,,,,,,,,,,,,,,m,0,0.6105,,,,,,,,0.837239583,-0.071614583,0,0,0,,0,117,117,164,1,SGREW,LB,old,z,./images/SGREWLB.png,,,,,,,,,,,,,,,,,,,,,,,,,,,,,,,,,,
,,,,,,,,,,,,,,,,,61fa943b5719bc09cb834ebb,70,2022-02-12_13h20.46.468,lexical_decision_task_DD_L2,2021.2.3,Win32,60.3682463,,,,,,,,,,,0.5825,1,,,,,,,,,,,,,,m,1,0.5825,,,,,,,,0.837239583,-0.071614583,0,0,0,,0,118,118,61,1,CANDLE,LB,old,m,./images/CANDLELB.png,,,,,,,,,,,,,,,,,,,,,,,,,,,,,,,,,,
,,,,,,,,,,,,,,,,,61fa943b5719bc09cb834ebb,70,2022-02-12_13h20.46.468,lexical_decision_task_DD_L2,2021.2.3,Win32,60.3682463,,,,,,,,,,,0.6136,0,,,,,,,,,,,,,,z,0,0.6136,,,,,,,,0.837239583,-0.071614583,0,0,0,,0,119,119,31,1,QUILL,LB,old,m,./images/QUILLLB.png,,,,,,,,,,,,,,,,,,,,,,,,,,,,,,,,,,
,,,,,,,,,,,,,,,,,61fa943b5719bc09cb834ebb,70,2022-02-12_13h20.46.468,lexical_decision_task_DD_L2,2021.2.3,Win32,60.3682463,,,,,,,,,,,0.5774,1,,,,,,,,,,,,,,m,1,0.5774,,,,,,,,0.837239583,-0.071614583,0,0,0,,0,120,120,10,1,BELLY,LB,old,m,./images/BELLYLB.png,,,,,,,,,,,,,,,,,,,,,,,,,,,,,,,,,,
,,,,,,,,,,,,,,,,,61fa943b5719bc09cb834ebb,70,2022-02-12_13h20.46.468,lexical_decision_task_DD_L2,2021.2.3,Win32,60.3682463,,,,,,,,,,,0.551,1,,,,,,,,,,,,,,m,1,0.551,,,,,,,,0.833333333,-0.071614583,0,0,0,,0,121,121,38,1,LADDER,C,old,m,./images/LADDER.png,,,,,,,,,,,,,,,,,,,,,,,,,,,,,,,,,,
,,,,,,,,,,,,,,,,,61fa943b5719bc09cb834ebb,70,2022-02-12_13h20.46.468,lexical_decision_task_DD_L2,2021.2.3,Win32,60.3682463,,,,,,,,,,,0.7669,1,,,,,,,,,,,,,,m,1,0.7669,,,,,,,,0.834635417,-0.063802083,0,0,0,,0,122,122,72,1,NOOSE,HB,old,m,./images/NOOSEHB.png,,,,,,,,,,,,,,,,,,,,,,,,,,,,,,,,,,
,,,,,,,,,,,,,,,,,61fa943b5719bc09cb834ebb,70,2022-02-12_13h20.46.468,lexical_decision_task_DD_L2,2021.2.3,Win32,60.3682463,,,,,,,,,,,0.7609,1,,,,,,,,,,,,,,m,1,0.7609,,,,,,,,0.833333333,-0.049479167,0,0,0,,0,123,123,16,1,PENCE,LB,old,m,./images/PENCELB.png,,,,,,,,,,,,,,,,,,,,,,,,,,,,,,,,,,
,,,,,,,,,,,,,,,,,61fa943b5719bc09cb834ebb,70,2022-02-12_13h20.46.468,lexical_decision_task_DD_L2,2021.2.3,Win32,60.3682463,,,,,,,,,,,0.6481,1,,,,,,,,,,,,,,m,1,0.6481,,,,,,,,0.833333333,-0.049479167,0,0,0,,0,124,124,47,1,BERRY,C,old,m,./images/BERRY.png,,,,,,,,,,,,,,,,,,,,,,,,,,,,,,,,,,
,,,,,,,,,,,,,,,,,61fa943b5719bc09cb834ebb,70,2022-02-12_13h20.46.468,lexical_decision_task_DD_L2,2021.2.3,Win32,60.3682463,,,,,,,,,,,0.5298,1,,,,,,,,,,,,,,m,1,0.5298,,,,,,,,0.018229167,-0.38671875,1,0,0,,0,125,125,46,1,PEARL,LB,old,m,./images/PEARLLB.png,break_done_button,,,,,,,,,,,,,,,,,,,,,,,,,,,,,,,,,
,,,,,,,,,,,,,,,,,61fa943b5719bc09cb834ebb,70,2022-02-12_13h20.46.468,lexical_decision_task_DD_L2,2021.2.3,Win32,60.3682463,,,,,,,,,,,0.6104,1,,,,,,,,,,,,,,m,1,0.6104,,,,,,,,0.647135417,0.010416667,0,0,0,,0,126,126,63,1,MIRROR,HB,old,m,./images/MIRRORHB.png,,,,,,,,,,,,,,,,,,,,,,,,,,,,,,,,,,
,,,,,,,,,,,,,,,,,61fa943b5719bc09cb834ebb,70,2022-02-12_13h20.46.468,lexical_decision_task_DD_L2,2021.2.3,Win32,60.3682463,,,,,,,,,,,0.5311,1,,,,,,,,,,,,,,m,1,0.5311,,,,,,,,0.631510417,0.029947917,0,0,0,,0,127,127,71,1,PIMPLE,C,old,m,./images/PIMPLE.png,,,,,,,,,,,,,,,,,,,,,,,,,,,,,,,,,,
,,,,,,,,,,,,,,,,,61fa943b5719bc09cb834ebb,70,2022-02-12_13h20.46.468,lexical_decision_task_DD_L2,2021.2.3,Win32,60.3682463,,,,,,,,,,,0.5437,0,,,,,,,,,,,,,,m,0,0.5437,,,,,,,,0.6328125,0.028645833,0,0,0,,0,128,128,146,1,MOOST,LB,old,z,./images/MOOSTLB.png,,,,,,,,,,,,,,,,,,,,,,,,,,,,,,,,,,
,,,,,,,,,,,,,,,,,61fa943b5719bc09cb834ebb,70,2022-02-12_13h20.46.468,lexical_decision_task_DD_L2,2021.2.3,Win32,60.3682463,,,,,,,,,,,0.7103,1,,,,,,,,,,,,,,z,1,0.7103,,,,,,,,0.635416667,0.029947917,0,0,0,,0,129,129,163,1,GAMBA,HB,old,z,./images/GAMBAHB.png,,,,,,,,,,,,,,,,,,,,,,,,,,,,,,,,,,
,,,,,,,,,,,,,,,,,61fa943b5719bc09cb834ebb,70,2022-02-12_13h20.46.468,lexical_decision_task_DD_L2,2021.2.3,Win32,60.3682463,,,,,,,,,,,0.779,1,,,,,,,,,,,,,,z,1,0.779,,,,,,,,0.635416667,0.024739583,0,0,0,,0,130,130,101,1,GLEET,LB,old,z,./images/GLEETLB.png,,,,,,,,,,,,,,,,,,,,,,,,,,,,,,,,,,
,,,,,,,,,,,,,,,,,61fa943b5719bc09cb834ebb,70,2022-02-12_13h20.46.468,lexical_decision_task_DD_L2,2021.2.3,Win32,60.3682463,,,,,,,,,,,0.7609,1,,,,,,,,,,,,,,z,1,0.7609,,,,,,,,0.635416667,0.029947917,0,0,0,,0,131,131,110,1,CRUNK,LB,old,z,./images/CRUNKLB.png,,,,,,,,,,,,,,,,,,,,,,,,,,,,,,,,,,
,,,,,,,,,,,,,,,,,61fa943b5719bc09cb834ebb,70,2022-02-12_13h20.46.468,lexical_decision_task_DD_L2,2021.2.3,Win32,60.3682463,,,,,,,,,,,0.6106,1,,,,,,,,,,,,,,z,1,0.6106,,,,,,,,0.635416667,0.029947917,0,0,0,,0,132,132,154,1,THINT,HB,old,z,./images/THINTHB.png,,,,,,,,,,,,,,,,,,,,,,,,,,,,,,,,,,
,,,,,,,,,,,,,,,,,61fa943b5719bc09cb834ebb,70,2022-02-12_13h20.46.468,lexical_decision_task_DD_L2,2021.2.3,Win32,60.3682463,,,,,,,,,,,0.5994,1,,,,,,,,,,,,,,z,1,0.5994,,,,,,,,0.635416667,0.029947917,0,0,0,,0,133,133,134,1,TROSS,LB,old,z,./images/TROSSLB.png,,,,,,,,,,,,,,,,,,,,,,,,,,,,,,,,,,
,,,,,,,,,,,,,,,,,61fa943b5719bc09cb834ebb,70,2022-02-12_13h20.46.468,lexical_decision_task_DD_L2,2021.2.3,Win32,60.3682463,,,,,,,,,,,0.7616,1,,,,,,,,,,,,,,m,1,0.7616,,,,,,,,0.635416667,0.029947917,0,0,0,,0,134,134,75,1,GRAIN,HB,old,m,./images/GRAINHB.png,,,,,,,,,,,,,,,,,,,,,,,,,,,,,,,,,,
,,,,,,,,,,,,,,,,,61fa943b5719bc09cb834ebb,70,2022-02-12_13h20.46.468,lexical_decision_task_DD_L2,2021.2.3,Win32,60.3682463,,,,,,,,,,,0.7319,1,,,,,,,,,,,,,,z,1,0.7319,,,,,,,,0.63671875,0.028645833,0,0,0,,0,135,135,106,1,CLUMS,HB,old,z,./images/CLUMSHB.png,,,,,,,,,,,,,,,,,,,,,,,,,,,,,,,,,,
,,,,,,,,,,,,,,,,,61fa943b5719bc09cb834ebb,70,2022-02-12_13h20.46.468,lexical_decision_task_DD_L2,2021.2.3,Win32,60.3682463,,,,,,,,,,,0.5803,0,,,,,,,,,,,,,,z,0,0.5803,,,,,,,,0.63671875,0.028645833,0,0,0,,0,136,136,8,1,TULIP,C,old,m,./images/TULIP.png,,,,,,,,,,,,,,,,,,,,,,,,,,,,,,,,,,
,,,,,,,,,,,,,,,,,61fa943b5719bc09cb834ebb,70,2022-02-12_13h20.46.468,lexical_decision_task_DD_L2,2021.2.3,Win32,60.3682463,,,,,,,,,,,0.8601,1,,,,,,,,,,,,,,m,1,0.8601,,,,,,,,0.63671875,0.028645833,0,0,0,,0,137,137,15,1,GREASE,HB,old,m,./images/GREASEHB.png,,,,,,,,,,,,,,,,,,,,,,,,,,,,,,,,,,
,,,,,,,,,,,,,,,,,61fa943b5719bc09cb834ebb,70,2022-02-12_13h20.46.468,lexical_decision_task_DD_L2,2021.2.3,Win32,60.3682463,,,,,,,,,,,0.5809,1,,,,,,,,,,,,,,z,1,0.5809,,,,,,,,0.63671875,0.028645833,0,0,0,,0,138,138,84,1,HAXES,C,old,z,./images/HAXES.png,,,,,,,,,,,,,,,,,,,,,,,,,,,,,,,,,,
,,,,,,,,,,,,,,,,,61fa943b5719bc09cb834ebb,70,2022-02-12_13h20.46.468,lexical_decision_task_DD_L2,2021.2.3,Win32,60.3682463,,,,,,,,,,,0.6007,1,,,,,,,,,,,,,,z,1,0.6007,,,,,,,,0.638020833,0.02734375,0,0,0,,0,139,139,112,1,MYING,HB,old,z,./images/MYINGHB.png,,,,,,,,,,,,,,,,,,,,,,,,,,,,,,,,,,
,,,,,,,,,,,,,,,,,61fa943b5719bc09cb834ebb,70,2022-02-12_13h20.46.468,lexical_decision_task_DD_L2,2021.2.3,Win32,60.3682463,,,,,,,,,,,0.7266,1,,,,,,,,,,,,,,m,1,0.7266,,,,,,,,0.638020833,0.02734375,0,0,0,,0,140,140,22,1,MELON,LB,old,m,./images/MELONLB.png,,,,,,,,,,,,,,,,,,,,,,,,,,,,,,,,,,
,,,,,,,,,,,,,,,,,61fa943b5719bc09cb834ebb,70,2022-02-12_13h20.46.468,lexical_decision_task_DD_L2,2021.2.3,Win32,60.3682463,,,,,,,,,,,0.8006,1,,,,,,,,,,,,,,m,1,0.8006,,,,,,,,0.638020833,0.02734375,0,0,0,,0,141,141,78,1,LITTER,HB,old,m,./images/LITTERHB.png,,,,,,,,,,,,,,,,,,,,,,,,,,,,,,,,,,
,,,,,,,,,,,,,,,,,61fa943b5719bc09cb834ebb,70,2022-02-12_13h20.46.468,lexical_decision_task_DD_L2,2021.2.3,Win32,60.3682463,,,,,,,,,,,0.7017,1,,,,,,,,,,,,,,m,1,0.7017,,,,,,,,0.638020833,0.02734375,0,0,0,,0,142,142,1,1,PLANK,LB,old,m,./images/PLANKLB.png,,,,,,,,,,,,,,,,,,,,,,,,,,,,,,,,,,
,,,,,,,,,,,,,,,,,61fa943b5719bc09cb834ebb,70,2022-02-12_13h20.46.468,lexical_decision_task_DD_L2,2021.2.3,Win32,60.3682463,,,,,,,,,,,0.646,1,,,,,,,,,,,,,,m,1,0.646,,,,,,,,0.638020833,0.02734375,0,0,0,,0,143,143,5,1,PASTA,C,old,m,./images/PASTA.png,,,,,,,,,,,,,,,,,,,,,,,,,,,,,,,,,,
,,,,,,,,,,,,,,,,,61fa943b5719bc09cb834ebb,70,2022-02-12_13h20.46.468,lexical_decision_task_DD_L2,2021.2.3,Win32,60.3682463,,,,,,,,,,,0.5644,1,,,,,,,,,,,,,,z,1,0.5644,,,,,,,,0.638020833,0.02734375,0,0,0,,0,144,144,156,1,HIXES,C,old,z,./images/HIXES.png,,,,,,,,,,,,,,,,,,,,,,,,,,,,,,,,,,
,,,,,,,,,,,,,,,,,61fa943b5719bc09cb834ebb,70,2022-02-12_13h20.46.468,lexical_decision_task_DD_L2,2021.2.3,Win32,60.3682463,,,,,,,,,,,0.7504,1,,,,,,,,,,,,,,z,1,0.7504,,,,,,,,0.638020833,0.02734375,0,0,0,,0,145,145,116,1,BALGY,LB,old,z,./images/BALGYLB.png,,,,,,,,,,,,,,,,,,,,,,,,,,,,,,,,,,
,,,,,,,,,,,,,,,,,61fa943b5719bc09cb834ebb,70,2022-02-12_13h20.46.468,lexical_decision_task_DD_L2,2021.2.3,Win32,60.3682463,,,,,,,,,,,0.7647,1,,,,,,,,,,,,,,z,1,0.7647,,,,,,,,0.638020833,0.026041667,0,0,0,,0,146,146,107,1,FASKS,LB,old,z,./images/FASKSLB.png,,,,,,,,,,,,,,,,,,,,,,,,,,,,,,,,,,
,,,,,,,,,,,,,,,,,61fa943b5719bc09cb834ebb,70,2022-02-12_13h20.46.468,lexical_decision_task_DD_L2,2021.2.3,Win32,60.3682463,,,,,,,,,,,0.7131,1,,,,,,,,,,,,,,z,1,0.7131,,,,,,,,0.638020833,0.026041667,0,0,0,,0,147,147,132,1,SCIFF,C,old,z,./images/SCIFF.png,,,,,,,,,,,,,,,,,,,,,,,,,,,,,,,,,,
,,,,,,,,,,,,,,,,,61fa943b5719bc09cb834ebb,70,2022-02-12_13h20.46.468,lexical_decision_task_DD_L2,2021.2.3,Win32,60.3682463,,,,,,,,,,,0.6314,1,,,,,,,,,,,,,,m,1,0.6314,,,,,,,,0.638020833,0.026041667,0,0,0,,0,148,148,30,1,STORM,HB,old,m,./images/STORMHB.png,,,,,,,,,,,,,,,,,,,,,,,,,,,,,,,,,,
,,,,,,,,,,,,,,,,,61fa943b5719bc09cb834ebb,70,2022-02-12_13h20.46.468,lexical_decision_task_DD_L2,2021.2.3,Win32,60.3682463,,,,,,,,,,,0.5947,1,,,,,,,,,,,,,,m,1,0.5947,,,,,,,,0.639322917,0.024739583,0,0,0,,0,149,149,37,1,BIRTH,LB,old,m,./images/BIRTHLB.png,,,,,,,,,,,,,,,,,,,,,,,,,,,,,,,,,,
,,,,,,,,,,,,,,,,,61fa943b5719bc09cb834ebb,70,2022-02-12_13h20.46.468,lexical_decision_task_DD_L2,2021.2.3,Win32,60.3682463,,,,,,,,,,,0.5513,1,,,,,,,,,,,,,,z,1,0.5513,,,,,,,,0.639322917,0.024739583,0,0,0,,0,150,150,162,1,LEICH,C,old,z,./images/LEICH.png,,,,,,,,,,,,,,,,,,,,,,,,,,,,,,,,,,
,,,,,,,,,,,,,,,,,61fa943b5719bc09cb834ebb,70,2022-02-12_13h20.46.468,lexical_decision_task_DD_L2,2021.2.3,Win32,60.3682463,,,,,,,,,,,0.783,1,,,,,,,,,,,,,,z,1,0.783,,,,,,,,0.639322917,0.024739583,0,0,0,,0,151,151,128,1,GRIFT,LB,old,z,./images/GRIFTLB.png,,,,,,,,,,,,,,,,,,,,,,,,,,,,,,,,,,
,,,,,,,,,,,,,,,,,61fa943b5719bc09cb834ebb,70,2022-02-12_13h20.46.468,lexical_decision_task_DD_L2,2021.2.3,Win32,60.3682463,,,,,,,,,,,0.5524,1,,,,,,,,,,,,,,z,1,0.5524,,,,,,,,0.639322917,0.016927083,0,0,0,,0,152,152,120,1,RINED,C,old,z,./images/RINED.png,,,,,,,,,,,,,,,,,,,,,,,,,,,,,,,,,,
,,,,,,,,,,,,,,,,,61fa943b5719bc09cb834ebb,70,2022-02-12_13h20.46.468,lexical_decision_task_DD_L2,2021.2.3,Win32,60.3682463,,,,,,,,,,,0.6086,1,,,,,,,,,,,,,,z,1,0.6086,,,,,,,,0.639322917,0.016927083,0,0,0,,0,153,153,87,1,TRING,C,old,z,./images/TRING.png,,,,,,,,,,,,,,,,,,,,,,,,,,,,,,,,,,
,,,,,,,,,,,,,,,,,61fa943b5719bc09cb834ebb,70,2022-02-12_13h20.46.468,lexical_decision_task_DD_L2,2021.2.3,Win32,60.3682463,,,,,,,,,,,0.8113,1,,,,,,,,,,,,,,m,1,0.8113,,,,,,,,0.639322917,0.016927083,0,0,0,,0,154,154,0,1,TOMATO,HB,old,m,./images/TOMATOHB.png,,,,,,,,,,,,,,,,,,,,,,,,,,,,,,,,,,
,,,,,,,,,,,,,,,,,61fa943b5719bc09cb834ebb,70,2022-02-12_13h20.46.468,lexical_decision_task_DD_L2,2021.2.3,Win32,60.3682463,,,,,,,,,,,0.6477,1,,,,,,,,,,,,,,z,1,0.6477,,,,,,,,0.640625,0.015625,0,0,0,,0,155,155,155,1,CANGY,LB,old,z,./images/CANGYLB.png,,,,,,,,,,,,,,,,,,,,,,,,,,,,,,,,,,
,,,,,,,,,,,,,,,,,61fa943b5719bc09cb834ebb,70,2022-02-12_13h20.46.468,lexical_decision_task_DD_L2,2021.2.3,Win32,60.3682463,,,,,,,,,,,0.5943,1,,,,,,,,,,,,,,z,1,0.5943,,,,,,,,0.640625,0.015625,0,0,0,,0,156,156,130,1,CRILL,HB,old,z,./images/CRILLHB.png,,,,,,,,,,,,,,,,,,,,,,,,,,,,,,,,,,
,,,,,,,,,,,,,,,,,61fa943b5719bc09cb834ebb,70,2022-02-12_13h20.46.468,lexical_decision_task_DD_L2,2021.2.3,Win32,60.3682463,,,,,,,,,,,0.7287,1,,,,,,,,,,,,,,z,1,0.7287,,,,,,,,0.640625,0.015625,0,0,0,,0,157,157,149,1,VEASE,LB,old,z,./images/VEASELB.png,,,,,,,,,,,,,,,,,,,,,,,,,,,,,,,,,,
,,,,,,,,,,,,,,,,,61fa943b5719bc09cb834ebb,70,2022-02-12_13h20.46.468,lexical_decision_task_DD_L2,2021.2.3,Win32,60.3682463,,,,,,,,,,,0.7606,0,,,,,,,,,,,,,,z,0,0.7606,,,,,,,,0.640625,0.015625,0,0,0,,0,158,158,33,1,MAGGOT,HB,old,m,./images/MAGGOTHB.png,,,,,,,,,,,,,,,,,,,,,,,,,,,,,,,,,,
,,,,,,,,,,,,,,,,,61fa943b5719bc09cb834ebb,70,2022-02-12_13h20.46.468,lexical_decision_task_DD_L2,2021.2.3,Win32,60.3682463,,,,,,,,,,,0.6011,1,,,,,,,,,,,,,,z,1,0.6011,,,,,,,,0.640625,0.015625,0,0,0,,0,159,159,121,1,CEERS,HB,old,z,./images/CEERSHB.png,,,,,,,,,,,,,,,,,,,,,,,,,,,,,,,,,,
,,,,,,,,,,,,,,,,,61fa943b5719bc09cb834ebb,70,2022-02-12_13h20.46.468,lexical_decision_task_DD_L2,2021.2.3,Win32,60.3682463,,,,,,,,,,,0.5451,1,,,,,,,,,,,,,,z,1,0.5451,,,,,,,,0.640625,0.015625,0,0,0,,0,160,160,85,1,CHULK,HB,old,z,./images/CHULKHB.png,,,,,,,,,,,,,,,,,,,,,,,,,,,,,,,,,,
,,,,,,,,,,,,,,,,,61fa943b5719bc09cb834ebb,70,2022-02-12_13h20.46.468,lexical_decision_task_DD_L2,2021.2.3,Win32,60.3682463,,,,,,,,,,,0.7232,1,,,,,,,,,,,,,,m,1,0.7232,,,,,,,,0.640625,0.015625,0,0,0,,0,161,161,39,1,SHELF,HB,old,m,./images/SHELFHB.png,,,,,,,,,,,,,,,,,,,,,,,,,,,,,,,,,,
,,,,,,,,,,,,,,,,,61fa943b5719bc09cb834ebb,70,2022-02-12_13h20.46.468,lexical_decision_task_DD_L2,2021.2.3,Win32,60.3682463,,,,,,,,,,,0.5211,1,,,,,,,,,,,,,,m,1,0.5211,,,,,,,,0.640625,0.015625,0,0,0,,0,162,162,79,1,CRUST,LB,old,m,./images/CRUSTLB.png,,,,,,,,,,,,,,,,,,,,,,,,,,,,,,,,,,
,,,,,,,,,,,,,,,,,61fa943b5719bc09cb834ebb,70,2022-02-12_13h20.46.468,lexical_decision_task_DD_L2,2021.2.3,Win32,60.3682463,,,,,,,,,,,0.7943,0,,,,,,,,,,,,,,z,0,0.7943,,,,,,,,0.640625,0.015625,0,0,0,,0,163,163,43,1,MOSQUE,LB,old,m,./images/MOSQUELB.png,,,,,,,,,,,,,,,,,,,,,,,,,,,,,,,,,,
,,,,,,,,,,,,,,,,,61fa943b5719bc09cb834ebb,70,2022-02-12_13h20.46.468,lexical_decision_task_DD_L2,2021.2.3,Win32,60.3682463,,,,,,,,,,,0.7309,0,,,,,,,,,,,,,,z,0,0.7309,,,,,,,,0.640625,0.013020833,0,0,0,,0,164,164,54,1,TRIPOD,HB,old,m,./images/TRIPODHB.png,,,,,,,,,,,,,,,,,,,,,,,,,,,,,,,,,,
,,,,,,,,,,,,,,,,,61fa943b5719bc09cb834ebb,70,2022-02-12_13h20.46.468,lexical_decision_task_DD_L2,2021.2.3,Win32,60.3682463,,,,,,,,,,,0.6243,1,,,,,,,,,,,,,,m,1,0.6243,,,,,,,,0.640625,0.013020833,0,0,0,,0,165,165,68,1,TORCH,C,old,m,./images/TORCH.png,,,,,,,,,,,,,,,,,,,,,,,,,,,,,,,,,,
,,,,,,,,,,,,,,,,,61fa943b5719bc09cb834ebb,70,2022-02-12_13h20.46.468,lexical_decision_task_DD_L2,2021.2.3,Win32,60.3682463,,,,,,,,,,,0.7465,1,,,,,,,,,,,,,,z,1,0.7465,,,,,,,,0.63671875,0.014322917,0,0,0,,0,166,166,140,1,DOVET,LB,old,z,./images/DOVETLB.png,,,,,,,,,,,,,,,,,,,,,,,,,,,,,,,,,,
,,,,,,,,,,,,,,,,,61fa943b5719bc09cb834ebb,70,2022-02-12_13h20.46.468,lexical_decision_task_DD_L2,2021.2.3,Win32,60.3682463,,,,,,,,,,,0.653,1,,,,,,,,,,,,,,z,1,0.653,,,,,,,,0.63671875,0.014322917,0,0,0,,0,167,167,144,1,NAIRY,C,old,z,./images/NAIRY.png,,,,,,,,,,,,,,,,,,,,,,,,,,,,,,,,,,
,,,,,,,,,,,,,,,,,61fa943b5719bc09cb834ebb,70,2022-02-12_13h20.46.468,lexical_decision_task_DD_L2,2021.2.3,Win32,60.3682463,,,,,,,,,,,,,,,,,,,,,,,,,,,,,,,,,,,,,,,,,,,,,,,,How likely will it be that you will recognize the words presented very blurred on a scale of 0 (not likely) to 100 (most likely)?,,,,,-0.002604167,-0.3984375,1,0,0,jol_adv,4,11.0363,0,0,0,2,1,,,,,,,,,,,,,,,,,,,,
,,,,,,,,,,,,,,,,,61fa943b5719bc09cb834ebb,70,2022-02-12_13h20.46.468,lexical_decision_task_DD_L2,2021.2.3,Win32,60.3682463,,,,,,,,,,,,,,,,,,,,,,,,,,,,,,,,,,,,,,,,,,,,,,,,How likely will it be that you will recognize the words presented clearly on a scale of 0 (not likely) to 100 (most likely)?,,,,,,,,,,,3,6.9695,0,1,1,0,1,,,,,,,,,,,,,,,,,,,,
,,,,,,,,,,,,,,,,,61fa943b5719bc09cb834ebb,70,2022-02-12_13h20.46.468,lexical_decision_task_DD_L2,2021.2.3,Win32,60.3682463,,,,,,,,,,,,,,,,,,,,,,,,,,,,,,,,,,,,,,,,,,,,,,,,How likely will it be that you will recognize the words presented slighly blurred on a scale of 0 (not likely) to 100 (most likely)?,,,,,,,,,,,2,9.6494,0,2,2,1,1,,,,,,,,,,,,,,,,,,,,
,0,-0.360677083,1,0,0,instr_done_button,,,,,,1,test,"In the next phase you will be presented with the words from the the first phase. Your job is to decide whether you remember seeing the word or not. If you remember seeing the word press ""old"" or type ""m"". If you do not remember seeing the word press ""new"" or type ""z"". Please press the space bar or click on continue to begin. ",,,61fa943b5719bc09cb834ebb,70,2022-02-12_13h20.46.468,lexical_decision_task_DD_L2,2021.2.3,Win32,60.3682463,,,,,,,,,,,,,,,,,,,,,,,,,,,,,,,,,,,,,,,,,,,,,,,,,,,,,,,,,,,,,,,,,,0,0,0,0,1,,,,,,,,,,,,,,,
,0.052083333,-0.444010417,1,0,0,instr_done_button,,,,,,1,test,"In the next phase you will be presented with the words from the the first phase. Your job is to decide whether you remember seeing the word or not. If you remember seeing the word press ""old"" or type ""m"". If you do not remember seeing the word press ""new"" or type ""z"". Please press the space bar or click on continue to begin. ",,,61fa943b5719bc09cb834ebb,70,2022-02-12_13h20.46.468,lexical_decision_task_DD_L2,2021.2.3,Win32,60.3682463,,,,,,,,,,,,,,,,,,,,,,,,,,,,,,,,,,,,,,,,,,,,,,,,,,,,,,,,,,,,,,,,,,1,0,1,0,1,,,,,,,,,,,,,,,
,0.053385417,-0.412760417,1,0,0,instr_done_button,,,,,,1,test,"In the next phase you will be presented with the words from the the first phase. Your job is to decide whether you remember seeing the word or not. If you remember seeing the word press ""old"" or type ""m"". If you do not remember seeing the word press ""new"" or type ""z"". Please press the space bar or click on continue to begin. ",,,61fa943b5719bc09cb834ebb,70,2022-02-12_13h20.46.468,lexical_decision_task_DD_L2,2021.2.3,Win32,60.3682463,,,,,,,,,,,,,,,,,,,,,,,,,,,,,,,,,,,,,,,,,,,,,,,,,,,,,,,,,,,,,,,,,,2,0,2,0,1,,,,,,,,,,,,,,,
,0.00390625,-0.40234375,1,0,0,instr_done_button,,,,,,1,test,"In the next phase you will be presented with the words from the the first phase. Your job is to decide whether you remember seeing the word or not. If you remember seeing the word press ""old"" or type ""m"". If you do not remember seeing the word press ""new"" or type ""z"". Please press the space bar or click on continue to begin. ",,,61fa943b5719bc09cb834ebb,70,2022-02-12_13h20.46.468,lexical_decision_task_DD_L2,2021.2.3,Win32,60.3682463,,,,,,,,,,,,,,,,,,,,,,,,,,,,,,,,,,,,,,,,,,,,,,,,,,,,,,,,,,,,,,,,,,3,0,3,0,1,,,,,,,,,,,,,,,
space,0.56640625,-0.305989583,0,0,0,,,,,,,1,test,"In the next phase you will be presented with the words from the the first phase. Your job is to decide whether you remember seeing the word or not. If you remember seeing the word press ""old"" or type ""m"". If you do not remember seeing the word press ""new"" or type ""z"". Please press the space bar or click on continue to begin. ",,,61fa943b5719bc09cb834ebb,70,2022-02-12_13h20.46.468,lexical_decision_task_DD_L2,2021.2.3,Win32,60.3682463,,,,,,,,,,,,,,,,,,,,,,,,,,,,,,,,,,,,,,,,,,,,,,,,,,,,,,,,,,,,,,,,,,4,0,4,0,1,0.8775,,,,,,,,,,,,,,
,,,,,,,,,,,,,,,,,61fa943b5719bc09cb834ebb,70,2022-02-12_13h20.46.468,lexical_decision_task_DD_L2,2021.2.3,Win32,60.3682463,,,,,,,,,,,3.2147,0,,,,,,,,,,,,,,,,,,,,,,,,0.368489583,-0.333333333,1,0,0,,,,,,,RULER,LB,z,y,./images/RULERLB.png,,,,,,,,,,,,,,,,,,,,,,0,0.368489583,-0.333333333,1,0,0,3.2147,button_right_test,0,0,0,163,1
,,,,,,,,,,,,,,,,,61fa943b5719bc09cb834ebb,70,2022-02-12_13h20.46.468,lexical_decision_task_DD_L2,2021.2.3,Win32,60.3682463,,,,,,,,,,,1.1335,1,,,,,,,,,,,,,,,,,,,,,,,,0.346354167,-0.33203125,1,0,0,,,,,,,CANYON,LB,m,y,./images/CANYONLB.png,,,,,,,,,,,,,,,,,,,,,,0,0.346354167,-0.33203125,1,0,0,1.1335,button_right_test,0,1,1,34,1
,,,,,,,,,,,,,,,,,61fa943b5719bc09cb834ebb,70,2022-02-12_13h20.46.468,lexical_decision_task_DD_L2,2021.2.3,Win32,60.3682463,,,,,,,,,,,0.9849,1,,,,,,,,,,,,,,,,,,,,,,,,0.342447917,-0.330729167,1,0,0,,,,,,,PAINT,LB,m,y,./images/PAINTLB.png,,,,,,,,,,,,,,,,,,,,,,0,0.342447917,-0.330729167,1,0,0,0.9849,button_right_test,0,2,2,7,1
,,,,,,,,,,,,,,,,,61fa943b5719bc09cb834ebb,70,2022-02-12_13h20.46.468,lexical_decision_task_DD_L2,2021.2.3,Win32,60.3682463,,,,,,,,,,,1.2996,1,,,,,,,,,,,,,,,,,,,,,,,,-0.337239583,-0.317708333,1,0,0,,,,,,,JUMPER,C,z,y,./images/JUMPER.png,,,,,,,,,,,,,,,,,,,,,,0,-0.337239583,-0.317708333,1,0,0,1.2996,button_left_test,0,3,3,158,1
,,,,,,,,,,,,,,,,,61fa943b5719bc09cb834ebb,70,2022-02-12_13h20.46.468,lexical_decision_task_DD_L2,2021.2.3,Win32,60.3682463,,,,,,,,,,,0.9644,1,,,,,,,,,,,,,,,,,,,,,,,,-0.337239583,-0.317708333,1,0,0,,,,,,,FERRY,HB,z,y,./images/FERRYHB.png,,,,,,,,,,,,,,,,,,,,,,0,-0.337239583,-0.317708333,1,0,0,0.9644,button_left_test,0,4,4,141,1
,,,,,,,,,,,,,,,,,61fa943b5719bc09cb834ebb,70,2022-02-12_13h20.46.468,lexical_decision_task_DD_L2,2021.2.3,Win32,60.3682463,,,,,,,,,,,1.0315,1,,,,,,,,,,,,,,,,,,,,,,,,-0.337239583,-0.317708333,1,0,0,,,,,,,LLAMA,C,z,y,./images/LLAMA.png,,,,,,,,,,,,,,,,,,,,,,0,-0.337239583,-0.317708333,1,0,0,1.0315,button_left_test,0,5,5,119,1
,,,,,,,,,,,,,,,,,61fa943b5719bc09cb834ebb,70,2022-02-12_13h20.46.468,lexical_decision_task_DD_L2,2021.2.3,Win32,60.3682463,,,,,,,,,,,0.9659,1,,,,,,,,,,,,,,,,,,,,,,,,-0.337239583,-0.317708333,1,0,0,,,,,,,CLOTH,C,z,y,./images/CLOTH.png,,,,,,,,,,,,,,,,,,,,,,0,-0.337239583,-0.317708333,1,0,0,0.9659,button_left_test,0,6,6,107,1
,,,,,,,,,,,,,,,,,61fa943b5719bc09cb834ebb,70,2022-02-12_13h20.46.468,lexical_decision_task_DD_L2,2021.2.3,Win32,60.3682463,,,,,,,,,,,1.1977,1,,,,,,,,,,,,,,,,,,,,,,,,0.348958333,-0.286458333,1,0,0,,,,,,,PENCE,LB,m,y,./images/PENCELB.png,,,,,,,,,,,,,,,,,,,,,,0,0.348958333,-0.286458333,1,0,0,1.1977,button_right_test,0,7,7,16,1
,,,,,,,,,,,,,,,,,61fa943b5719bc09cb834ebb,70,2022-02-12_13h20.46.468,lexical_decision_task_DD_L2,2021.2.3,Win32,60.3682463,,,,,,,,,,,0.6481,1,,,,,,,,,,,,,,,,,,,,,,,,0.348958333,-0.286458333,1,0,0,,,,,,,SQUARE,HB,m,y,./images/SQUAREHB.png,,,,,,,,,,,,,,,,,,,,,,0,0.348958333,-0.286458333,1,0,0,0.6481,button_right_test,0,8,8,6,1
,,,,,,,,,,,,,,,,,61fa943b5719bc09cb834ebb,70,2022-02-12_13h20.46.468,lexical_decision_task_DD_L2,2021.2.3,Win32,60.3682463,,,,,,,,,,,0.733,1,,,,,,,,,,,,,,,,,,,,,,,,0.348958333,-0.286458333,1,0,0,,,,,,,BARREL,C,m,y,./images/BARREL.png,,,,,,,,,,,,,,,,,,,,,,0,0.348958333,-0.286458333,1,0,0,0.733,button_right_test,0,9,9,32,1
,,,,,,,,,,,,,,,,,61fa943b5719bc09cb834ebb,70,2022-02-12_13h20.46.468,lexical_decision_task_DD_L2,2021.2.3,Win32,60.3682463,,,,,,,,,,,0.8,0,,,,,,,,,,,,,,,,,,,,,,,,0.348958333,-0.286458333,1,0,0,,,,,,,BOILER,HB,z,y,./images/BOILERHB.png,,,,,,,,,,,,,,,,,,,,,,0,0.348958333,-0.286458333,1,0,0,0.8,button_right_test,0,10,10,120,1
,,,,,,,,,,,,,,,,,61fa943b5719bc09cb834ebb,70,2022-02-12_13h20.46.468,lexical_decision_task_DD_L2,2021.2.3,Win32,60.3682463,,,,,,,,,,,1.7472,1,,,,,,,,,,,,,,,,,,,,,,,,-0.338541667,-0.342447917,1,0,0,,,,,,,MIDGET,LB,z,y,./images/MIDGETLB.png,,,,,,,,,,,,,,,,,,,,,,0,-0.338541667,-0.342447917,1,0,0,1.7472,button_left_test,0,11,11,160,1
,,,,,,,,,,,,,,,,,61fa943b5719bc09cb834ebb,70,2022-02-12_13h20.46.468,lexical_decision_task_DD_L2,2021.2.3,Win32,60.3682463,,,,,,,,,,,1.564,1,,,,,,,,,,,,,,,,,,,,,,,,0.2890625,-0.30859375,1,0,0,,,,,,,PURSE,C,m,y,./images/PURSE.png,,,,,,,,,,,,,,,,,,,,,,0,0.2890625,-0.30859375,1,0,0,1.564,button_right_test,0,12,12,62,1
,,,,,,,,,,,,,,,,,61fa943b5719bc09cb834ebb,70,2022-02-12_13h20.46.468,lexical_decision_task_DD_L2,2021.2.3,Win32,60.3682463,,,,,,,,,,,1.0512,0,,,,,,,,,,,,,,,,,,,,,,,,0.2890625,-0.30859375,1,0,0,,,,,,,BAKER,HB,z,y,./images/BAKERHB.png,,,,,,,,,,,,,,,,,,,,,,0,0.2890625,-0.30859375,1,0,0,1.0512,button_right_test,0,13,13,147,1
,,,,,,,,,,,,,,,,,61fa943b5719bc09cb834ebb,70,2022-02-12_13h20.46.468,lexical_decision_task_DD_L2,2021.2.3,Win32,60.3682463,,,,,,,,,,,1.2146,1,,,,,,,,,,,,,,,,,,,,,,,,-0.35546875,-0.291666667,1,0,0,,,,,,,ENGINE,C,z,y,./images/ENGINE.png,,,,,,,,,,,,,,,,,,,,,,0,-0.35546875,-0.291666667,1,0,0,1.2146,button_left_test,0,14,14,122,1
,,,,,,,,,,,,,,,,,61fa943b5719bc09cb834ebb,70,2022-02-12_13h20.46.468,lexical_decision_task_DD_L2,2021.2.3,Win32,60.3682463,,,,,,,,,,,1.45,1,,,,,,,,,,,,,,,,,,,,,,,,0.364583333,-0.328125,1,0,0,,,,,,,SHELF,HB,m,y,./images/SHELFHB.png,,,,,,,,,,,,,,,,,,,,,,0,0.364583333,-0.328125,1,0,0,1.45,button_right_test,0,15,15,39,1
,,,,,,,,,,,,,,,,,61fa943b5719bc09cb834ebb,70,2022-02-12_13h20.46.468,lexical_decision_task_DD_L2,2021.2.3,Win32,60.3682463,,,,,,,,,,,1.4153,0,,,,,,,,,,,,,,,,,,,,,,,,0.364583333,-0.328125,1,0,0,,,,,,,CRATER,HB,z,y,./images/CRATERHB.png,,,,,,,,,,,,,,,,,,,,,,0,0.364583333,-0.328125,1,0,0,1.4153,button_right_test,0,16,16,87,1
,,,,,,,,,,,,,,,,,61fa943b5719bc09cb834ebb,70,2022-02-12_13h20.46.468,lexical_decision_task_DD_L2,2021.2.3,Win32,60.3682463,,,,,,,,,,,1.2162,0,,,,,,,,,,,,,,,,,,,,,,,,-0.31640625,-0.317708333,1,0,0,,,,,,,ATTIC,HB,m,y,./images/ATTICHB.png,,,,,,,,,,,,,,,,,,,,,,0,-0.31640625,-0.317708333,1,0,0,1.2162,button_left_test,0,17,17,27,1
,,,,,,,,,,,,,,,,,61fa943b5719bc09cb834ebb,70,2022-02-12_13h20.46.468,lexical_decision_task_DD_L2,2021.2.3,Win32,60.3682463,,,,,,,,,,,3.6809,1,,,,,,,,,,,,,,,,,,,,,,,,0.3359375,-0.311197917,1,0,0,,,,,,,SHORE,HB,m,y,./images/SHOREHB.png,,,,,,,,,,,,,,,,,,,,,,0,0.3359375,-0.311197917,1,0,0,3.6809,button_right_test,0,18,18,12,1
,,,,,,,,,,,,,,,,,61fa943b5719bc09cb834ebb,70,2022-02-12_13h20.46.468,lexical_decision_task_DD_L2,2021.2.3,Win32,60.3682463,,,,,,,,,,,0.6975,0,,,,,,,,,,,,,,,,,,,,,,,,0.337239583,-0.311197917,1,0,0,,,,,,,POSTER,C,z,y,./images/POSTER.png,,,,,,,,,,,,,,,,,,,,,,0,0.337239583,-0.311197917,1,0,0,0.6975,button_right_test,0,19,19,137,1
,,,,,,,,,,,,,,,,,61fa943b5719bc09cb834ebb,70,2022-02-12_13h20.46.468,lexical_decision_task_DD_L2,2021.2.3,Win32,60.3682463,,,,,,,,,,,0.7979,1,,,,,,,,,,,,,,,,,,,,,,,,0.337239583,-0.311197917,1,0,0,,,,,,,DRUMS,LB,m,y,./images/DRUMSLB.png,,,,,,,,,,,,,,,,,,,,,,0,0.337239583,-0.311197917,1,0,0,0.7979,button_right_test,0,20,20,49,1
,,,,,,,,,,,,,,,,,61fa943b5719bc09cb834ebb,70,2022-02-12_13h20.46.468,lexical_decision_task_DD_L2,2021.2.3,Win32,60.3682463,,,,,,,,,,,0.7143,1,,,,,,,,,,,,,,,,,,,,,,,,0.337239583,-0.311197917,1,0,0,,,,,,,JUNGLE,C,m,y,./images/JUNGLE.png,,,,,,,,,,,,,,,,,,,,,,0,0.337239583,-0.311197917,1,0,0,0.7143,button_right_test,0,21,21,83,1
,,,,,,,,,,,,,,,,,61fa943b5719bc09cb834ebb,70,2022-02-12_13h20.46.468,lexical_decision_task_DD_L2,2021.2.3,Win32,60.3682463,,,,,,,,,,,1.8012,1,,,,,,,,,,,,,,,,,,,,,,,,-0.3671875,-0.298177083,1,0,0,,,,,,,BANANA,LB,z,y,./images/BANANALB.png,,,,,,,,,,,,,,,,,,,,,,0,-0.3671875,-0.298177083,1,0,0,1.8012,button_left_test,0,22,22,154,1
,,,,,,,,,,,,,,,,,61fa943b5719bc09cb834ebb,70,2022-02-12_13h20.46.468,lexical_decision_task_DD_L2,2021.2.3,Win32,60.3682463,,,,,,,,,,,0.9644,1,,,,,,,,,,,,,,,,,,,,,,,,-0.3671875,-0.298177083,1,0,0,,,,,,,WAGON,LB,z,y,./images/WAGONLB.png,,,,,,,,,,,,,,,,,,,,,,0,-0.3671875,-0.298177083,1,0,0,0.9644,button_left_test,0,23,23,91,1
,,,,,,,,,,,,,,,,,61fa943b5719bc09cb834ebb,70,2022-02-12_13h20.46.468,lexical_decision_task_DD_L2,2021.2.3,Win32,60.3682463,,,,,,,,,,,1.1308,0,,,,,,,,,,,,,,,,,,,,,,,,0.286458333,-0.329427083,1,0,0,,,,,,,SAUCE,HB,z,y,./images/SAUCEHB.png,,,,,,,,,,,,,,,,,,,,,,0,0.286458333,-0.329427083,1,0,0,1.1308,button_right_test,0,24,24,135,1
,,,,,,,,,,,,,,,,,61fa943b5719bc09cb834ebb,70,2022-02-12_13h20.46.468,lexical_decision_task_DD_L2,2021.2.3,Win32,60.3682463,,,,,,,,,,,0.8472,1,,,,,,,,,,,,,,,,,,,,,,,,0.287760417,-0.329427083,1,0,0,,,,,,,SWING,LB,m,y,./images/SWINGLB.png,,,,,,,,,,,,,,,,,,,,,,0,0.287760417,-0.329427083,1,0,0,0.8472,button_right_test,0,25,25,40,1
,,,,,,,,,,,,,,,,,61fa943b5719bc09cb834ebb,70,2022-02-12_13h20.46.468,lexical_decision_task_DD_L2,2021.2.3,Win32,60.3682463,,,,,,,,,,,1.1342,1,,,,,,,,,,,,,,,,,,,,,,,,-0.368489583,-0.337239583,1,0,0,,,,,,,ARROW,HB,z,y,./images/ARROWHB.png,,,,,,,,,,,,,,,,,,,,,,0,-0.368489583,-0.337239583,1,0,0,1.1342,button_left_test,0,26,26,153,1
,,,,,,,,,,,,,,,,,61fa943b5719bc09cb834ebb,70,2022-02-12_13h20.46.468,lexical_decision_task_DD_L2,2021.2.3,Win32,60.3682463,,,,,,,,,,,0.7647,1,,,,,,,,,,,,,,,,,,,,,,,,-0.368489583,-0.337239583,1,0,0,,,,,,,GARDEN,LB,z,y,./images/GARDENLB.png,,,,,,,,,,,,,,,,,,,,,,0,-0.368489583,-0.337239583,1,0,0,0.7647,button_left_test,0,27,27,94,1
,,,,,,,,,,,,,,,,,61fa943b5719bc09cb834ebb,70,2022-02-12_13h20.46.468,lexical_decision_task_DD_L2,2021.2.3,Win32,60.3682463,,,,,,,,,,,0.7807,1,,,,,,,,,,,,,,,,,,,,,,,,-0.368489583,-0.337239583,1,0,0,,,,,,,STOVE,C,z,y,./images/STOVE.png,,,,,,,,,,,,,,,,,,,,,,0,-0.368489583,-0.337239583,1,0,0,0.7807,button_left_test,0,28,28,86,1
,,,,,,,,,,,,,,,,,61fa943b5719bc09cb834ebb,70,2022-02-12_13h20.46.468,lexical_decision_task_DD_L2,2021.2.3,Win32,60.3682463,,,,,,,,,,,1.0646,1,,,,,,,,,,,,,,,,,,,,,,,,0.282552083,-0.341145833,1,0,0,,,,,,,WRIST,LB,m,y,./images/WRISTLB.png,,,,,,,,,,,,,,,,,,,,,,0,0.282552083,-0.341145833,1,0,0,1.0646,button_right_test,0,29,29,25,1
,,,,,,,,,,,,,,,,,61fa943b5719bc09cb834ebb,70,2022-02-12_13h20.46.468,lexical_decision_task_DD_L2,2021.2.3,Win32,60.3682463,,,,,,,,,,,0.7502,0,,,,,,,,,,,,,,,,,,,,,,,,0.282552083,-0.341145833,1,0,0,,,,,,,FLASK,HB,z,y,./images/FLASKHB.png,,,,,,,,,,,,,,,,,,,,,,0,0.282552083,-0.341145833,1,0,0,0.7502,button_right_test,0,30,30,156,1
,,,,,,,,,,,,,,,,,61fa943b5719bc09cb834ebb,70,2022-02-12_13h20.46.468,lexical_decision_task_DD_L2,2021.2.3,Win32,60.3682463,,,,,,,,,,,0.7646,1,,,,,,,,,,,,,,,,,,,,,,,,0.282552083,-0.341145833,1,0,0,,,,,,,MOSQUE,LB,m,y,./images/MOSQUELB.png,,,,,,,,,,,,,,,,,,,,,,0,0.282552083,-0.341145833,1,0,0,0.7646,button_right_test,0,31,31,43,1
,,,,,,,,,,,,,,,,,61fa943b5719bc09cb834ebb,70,2022-02-12_13h20.46.468,lexical_decision_task_DD_L2,2021.2.3,Win32,60.3682463,,,,,,,,,,,0.714,0,,,,,,,,,,,,,,,,,,,,,,,,0.282552083,-0.341145833,1,0,0,,,,,,,DRILL,HB,z,y,./images/DRILLHB.png,,,,,,,,,,,,,,,,,,,,,,0,0.282552083,-0.341145833,1,0,0,0.714,button_right_test,0,32,32,165,1
,,,,,,,,,,,,,,,,,61fa943b5719bc09cb834ebb,70,2022-02-12_13h20.46.468,lexical_decision_task_DD_L2,2021.2.3,Win32,60.3682463,,,,,,,,,,,1.1976,0,,,,,,,,,,,,,,,,,,,,,,,,-0.283854167,-0.3125,1,0,0,,,,,,,KIDNEY,HB,m,y,./images/KIDNEYHB.png,,,,,,,,,,,,,,,,,,,,,,0,-0.283854167,-0.3125,1,0,0,1.1976,button_left_test,0,33,33,21,1
,,,,,,,,,,,,,,,,,61fa943b5719bc09cb834ebb,70,2022-02-12_13h20.46.468,lexical_decision_task_DD_L2,2021.2.3,Win32,60.3682463,,,,,,,,,,,1.2642,1,,,,,,,,,,,,,,,,,,,,,,,,0.352864583,-0.305989583,1,0,0,,,,,,,PASTA,C,m,y,./images/PASTA.png,,,,,,,,,,,,,,,,,,,,,,0,0.352864583,-0.305989583,1,0,0,1.2642,button_right_test,0,34,34,5,1
,,,,,,,,,,,,,,,,,61fa943b5719bc09cb834ebb,70,2022-02-12_13h20.46.468,lexical_decision_task_DD_L2,2021.2.3,Win32,60.3682463,,,,,,,,,,,1.2342,1,,,,,,,,,,,,,,,,,,,,,,,,-0.223958333,-0.29296875,1,0,0,,,,,,,GRANNY,C,z,y,./images/GRANNY.png,,,,,,,,,,,,,,,,,,,,,,0,-0.223958333,-0.29296875,1,0,0,1.2342,button_left_test,0,35,35,104,1
,,,,,,,,,,,,,,,,,61fa943b5719bc09cb834ebb,70,2022-02-12_13h20.46.468,lexical_decision_task_DD_L2,2021.2.3,Win32,60.3682463,,,,,,,,,,,0.9146,1,,,,,,,,,,,,,,,,,,,,,,,,-0.223958333,-0.29296875,1,0,0,,,,,,,SNAKE,LB,z,y,./images/SNAKELB.png,,,,,,,,,,,,,,,,,,,,,,0,-0.223958333,-0.29296875,1,0,0,0.9146,button_left_test,0,36,36,124,1
,,,,,,,,,,,,,,,,,61fa943b5719bc09cb834ebb,70,2022-02-12_13h20.46.468,lexical_decision_task_DD_L2,2021.2.3,Win32,60.3682463,,,,,,,,,,,0.998,0,,,,,,,,,,,,,,,,,,,,,,,,-0.223958333,-0.29296875,1,0,0,,,,,,,TRIPOD,HB,m,y,./images/TRIPODHB.png,,,,,,,,,,,,,,,,,,,,,,0,-0.223958333,-0.29296875,1,0,0,0.998,button_left_test,0,37,37,54,1
,,,,,,,,,,,,,,,,,61fa943b5719bc09cb834ebb,70,2022-02-12_13h20.46.468,lexical_decision_task_DD_L2,2021.2.3,Win32,60.3682463,,,,,,,,,,,0.9479,0,,,,,,,,,,,,,,,,,,,,,,,,-0.223958333,-0.29296875,1,0,0,,,,,,,THROAT,HB,m,y,./images/THROATHB.png,,,,,,,,,,,,,,,,,,,,,,0,-0.223958333,-0.29296875,1,0,0,0.9479,button_left_test,0,38,38,36,1
,,,,,,,,,,,,,,,,,61fa943b5719bc09cb834ebb,70,2022-02-12_13h20.46.468,lexical_decision_task_DD_L2,2021.2.3,Win32,60.3682463,,,,,,,,,,,1.3669,1,,,,,,,,,,,,,,,,,,,,,,,,0.209635417,-0.259114583,1,0,0,,,,,,,JELLY,LB,m,y,./images/JELLYLB.png,,,,,,,,,,,,,,,,,,,,,,0,0.209635417,-0.259114583,1,0,0,1.3669,button_right_test,0,39,39,64,1
,,,,,,,,,,,,,,,,,61fa943b5719bc09cb834ebb,70,2022-02-12_13h20.46.468,lexical_decision_task_DD_L2,2021.2.3,Win32,60.3682463,,,,,,,,,,,0.764,1,,,,,,,,,,,,,,,,,,,,,,,,0.296875,-0.234375,1,0,0,,,,,,,GREASE,HB,m,y,./images/GREASEHB.png,,,,,,,,,,,,,,,,,,,,,,0,0.296875,-0.234375,1,0,0,0.764,button_right_test,0,40,40,15,1
,,,,,,,,,,,,,,,,,61fa943b5719bc09cb834ebb,70,2022-02-12_13h20.46.468,lexical_decision_task_DD_L2,2021.2.3,Win32,60.3682463,,,,,,,,,,,1.1978,1,,,,,,,,,,,,,,,,,,,,,,,,0.022135417,-0.38671875,1,0,0,,,,,,,PISTOL,C,z,y,./images/PISTOL.png,break_done_button,,,,,,,,,,,,,,,,,,,,,0,-0.514322917,-0.2890625,1,0,0,1.1978,button_left_test,0,41,41,113,1
,,,,,,,,,,,,,,,,,61fa943b5719bc09cb834ebb,70,2022-02-12_13h20.46.468,lexical_decision_task_DD_L2,2021.2.3,Win32,60.3682463,,,,,,,,,,,2.0299,1,,,,,,,,,,,,,,,,,,,,,,,,-0.423177083,-0.252604167,1,0,0,,,,,,,WHISKY,C,z,y,./images/WHISKY.png,,,,,,,,,,,,,,,,,,,,,,0,-0.423177083,-0.252604167,1,0,0,2.0299,button_left_test,0,42,42,167,1
,,,,,,,,,,,,,,,,,61fa943b5719bc09cb834ebb,70,2022-02-12_13h20.46.468,lexical_decision_task_DD_L2,2021.2.3,Win32,60.3682463,,,,,,,,,,,0.6675,1,,,,,,,,,,,,,,,,,,,,,,,,-0.411458333,-0.25390625,1,0,0,,,,,,,RAZOR,LB,z,y,./images/RAZORLB.png,,,,,,,,,,,,,,,,,,,,,,0,-0.411458333,-0.25390625,1,0,0,0.6675,button_left_test,0,43,43,118,1
,,,,,,,,,,,,,,,,,61fa943b5719bc09cb834ebb,70,2022-02-12_13h20.46.468,lexical_decision_task_DD_L2,2021.2.3,Win32,60.3682463,,,,,,,,,,,0.7158,1,,,,,,,,,,,,,,,,,,,,,,,,-0.41015625,-0.268229167,1,0,0,,,,,,,BRUSH,C,z,y,./images/BRUSH.png,,,,,,,,,,,,,,,,,,,,,,0,-0.41015625,-0.268229167,1,0,0,0.7158,button_left_test,0,44,44,143,1
,,,,,,,,,,,,,,,,,61fa943b5719bc09cb834ebb,70,2022-02-12_13h20.46.468,lexical_decision_task_DD_L2,2021.2.3,Win32,60.3682463,,,,,,,,,,,2.6476,0,,,,,,,,,,,,,,,,,,,,,,,,0.421875,-0.26171875,1,0,0,,,,,,,STATUE,HB,z,y,./images/STATUEHB.png,,,,,,,,,,,,,,,,,,,,,,0,0.421875,-0.26171875,1,0,0,2.6476,button_right_test,0,45,45,150,1
,,,,,,,,,,,,,,,,,61fa943b5719bc09cb834ebb,70,2022-02-12_13h20.46.468,lexical_decision_task_DD_L2,2021.2.3,Win32,60.3682463,,,,,,,,,,,0.7143,1,,,,,,,,,,,,,,,,,,,,,,,,0.421875,-0.26171875,1,0,0,,,,,,,TOMATO,HB,m,y,./images/TOMATOHB.png,,,,,,,,,,,,,,,,,,,,,,0,0.421875,-0.26171875,1,0,0,0.7143,button_right_test,0,46,46,0,1
,,,,,,,,,,,,,,,,,61fa943b5719bc09cb834ebb,70,2022-02-12_13h20.46.468,lexical_decision_task_DD_L2,2021.2.3,Win32,60.3682463,,,,,,,,,,,0.7646,1,,,,,,,,,,,,,,,,,,,,,,,,0.412760417,-0.2890625,1,0,0,,,,,,,MALLET,C,m,y,./images/MALLET.png,,,,,,,,,,,,,,,,,,,,,,0,0.412760417,-0.2890625,1,0,0,0.7646,button_right_test,0,47,47,50,1
,,,,,,,,,,,,,,,,,61fa943b5719bc09cb834ebb,70,2022-02-12_13h20.46.468,lexical_decision_task_DD_L2,2021.2.3,Win32,60.3682463,,,,,,,,,,,0.6644,1,,,,,,,,,,,,,,,,,,,,,,,,0.412760417,-0.2890625,1,0,0,,,,,,,BELLY,LB,m,y,./images/BELLYLB.png,,,,,,,,,,,,,,,,,,,,,,0,0.412760417,-0.2890625,1,0,0,0.6644,button_right_test,0,48,48,10,1
,,,,,,,,,,,,,,,,,61fa943b5719bc09cb834ebb,70,2022-02-12_13h20.46.468,lexical_decision_task_DD_L2,2021.2.3,Win32,60.3682463,,,,,,,,,,,0.6645,1,,,,,,,,,,,,,,,,,,,,,,,,0.412760417,-0.2890625,1,0,0,,,,,,,TWINS,HB,m,y,./images/TWINSHB.png,,,,,,,,,,,,,,,,,,,,,,0,0.412760417,-0.2890625,1,0,0,0.6645,button_right_test,0,49,49,60,1
,,,,,,,,,,,,,,,,,61fa943b5719bc09cb834ebb,70,2022-02-12_13h20.46.468,lexical_decision_task_DD_L2,2021.2.3,Win32,60.3682463,,,,,,,,,,,0.9306,0,,,,,,,,,,,,,,,,,,,,,,,,0.412760417,-0.2890625,1,0,0,,,,,,,CLOWN,LB,z,y,./images/CLOWNLB.png,,,,,,,,,,,,,,,,,,,,,,0,0.412760417,-0.2890625,1,0,0,0.9306,button_right_test,0,50,50,106,1
,,,,,,,,,,,,,,,,,61fa943b5719bc09cb834ebb,70,2022-02-12_13h20.46.468,lexical_decision_task_DD_L2,2021.2.3,Win32,60.3682463,,,,,,,,,,,0.7478,1,,,,,,,,,,,,,,,,,,,,,,,,0.412760417,-0.2890625,1,0,0,,,,,,,CRUST,LB,m,y,./images/CRUSTLB.png,,,,,,,,,,,,,,,,,,,,,,0,0.412760417,-0.2890625,1,0,0,0.7478,button_right_test,0,51,51,79,1
,,,,,,,,,,,,,,,,,61fa943b5719bc09cb834ebb,70,2022-02-12_13h20.46.468,lexical_decision_task_DD_L2,2021.2.3,Win32,60.3682463,,,,,,,,,,,0.8474,1,,,,,,,,,,,,,,,,,,,,,,,,0.412760417,-0.2890625,1,0,0,,,,,,,FOLDER,HB,m,y,./images/FOLDERHB.png,,,,,,,,,,,,,,,,,,,,,,0,0.412760417,-0.2890625,1,0,0,0.8474,button_right_test,0,52,52,42,1
,,,,,,,,,,,,,,,,,61fa943b5719bc09cb834ebb,70,2022-02-12_13h20.46.468,lexical_decision_task_DD_L2,2021.2.3,Win32,60.3682463,,,,,,,,,,,1.2144,1,,,,,,,,,,,,,,,,,,,,,,,,-0.244791667,-0.330729167,1,0,0,,,,,,,LAGOON,C,z,y,./images/LAGOON.png,,,,,,,,,,,,,,,,,,,,,,0,-0.244791667,-0.330729167,1,0,0,1.2144,button_left_test,0,53,53,131,1
,,,,,,,,,,,,,,,,,61fa943b5719bc09cb834ebb,70,2022-02-12_13h20.46.468,lexical_decision_task_DD_L2,2021.2.3,Win32,60.3682463,,,,,,,,,,,1.3023,0,,,,,,,,,,,,,,,,,,,,,,,,-0.27734375,-0.313802083,1,0,0,,,,,,,BONNET,C,m,y,./images/BONNET.png,,,,,,,,,,,,,,,,,,,,,,0,-0.27734375,-0.313802083,1,0,0,1.3023,button_left_test,0,54,54,11,1
,,,,,,,,,,,,,,,,,61fa943b5719bc09cb834ebb,70,2022-02-12_13h20.46.468,lexical_decision_task_DD_L2,2021.2.3,Win32,60.3682463,,,,,,,,,,,0.7476,1,,,,,,,,,,,,,,,,,,,,,,,,-0.27734375,-0.313802083,1,0,0,,,,,,,BLOKE,HB,z,y,./images/BLOKEHB.png,,,,,,,,,,,,,,,,,,,,,,0,-0.27734375,-0.313802083,1,0,0,0.7476,button_left_test,0,55,55,96,1
,,,,,,,,,,,,,,,,,61fa943b5719bc09cb834ebb,70,2022-02-12_13h20.46.468,lexical_decision_task_DD_L2,2021.2.3,Win32,60.3682463,,,,,,,,,,,1.0478,1,,,,,,,,,,,,,,,,,,,,,,,,-0.27734375,-0.313802083,1,0,0,,,,,,,TIGER,LB,z,y,./images/TIGERLB.png,,,,,,,,,,,,,,,,,,,,,,0,-0.27734375,-0.313802083,1,0,0,1.0478,button_left_test,0,56,56,121,1
,,,,,,,,,,,,,,,,,61fa943b5719bc09cb834ebb,70,2022-02-12_13h20.46.468,lexical_decision_task_DD_L2,2021.2.3,Win32,60.3682463,,,,,,,,,,,1.2816,0,,,,,,,,,,,,,,,,,,,,,,,,0.416666667,-0.263020833,1,0,0,,,,,,,CHALK,LB,z,y,./images/CHALKLB.png,,,,,,,,,,,,,,,,,,,,,,0,0.416666667,-0.263020833,1,0,0,1.2816,button_right_test,0,57,57,109,1
,,,,,,,,,,,,,,,,,61fa943b5719bc09cb834ebb,70,2022-02-12_13h20.46.468,lexical_decision_task_DD_L2,2021.2.3,Win32,60.3682463,,,,,,,,,,,1.2804,1,,,,,,,,,,,,,,,,,,,,,,,,-0.462239583,-0.251302083,1,0,0,,,,,,,VALLEY,C,z,y,./images/VALLEY.png,,,,,,,,,,,,,,,,,,,,,,0,-0.462239583,-0.251302083,1,0,0,1.2804,button_left_test,0,58,58,152,1
,,,,,,,,,,,,,,,,,61fa943b5719bc09cb834ebb,70,2022-02-12_13h20.46.468,lexical_decision_task_DD_L2,2021.2.3,Win32,60.3682463,,,,,,,,,,,0.7318,0,,,,,,,,,,,,,,,,,,,,,,,,-0.462239583,-0.251302083,1,0,0,,,,,,,SAILOR,LB,m,y,./images/SAILORLB.png,,,,,,,,,,,,,,,,,,,,,,0,-0.462239583,-0.251302083,1,0,0,0.7318,button_left_test,0,59,59,67,1
,,,,,,,,,,,,,,,,,61fa943b5719bc09cb834ebb,70,2022-02-12_13h20.46.468,lexical_decision_task_DD_L2,2021.2.3,Win32,60.3682463,,,,,,,,,,,0.6978,1,,,,,,,,,,,,,,,,,,,,,,,,-0.462239583,-0.251302083,1,0,0,,,,,,,ALLEY,LB,z,y,./images/ALLEYLB.png,,,,,,,,,,,,,,,,,,,,,,0,-0.462239583,-0.251302083,1,0,0,0.6978,button_left_test,0,60,60,139,1
,,,,,,,,,,,,,,,,,61fa943b5719bc09cb834ebb,70,2022-02-12_13h20.46.468,lexical_decision_task_DD_L2,2021.2.3,Win32,60.3682463,,,,,,,,,,,0.731,0,,,,,,,,,,,,,,,,,,,,,,,,-0.462239583,-0.251302083,1,0,0,,,,,,,COOKER,HB,m,y,./images/COOKERHB.png,,,,,,,,,,,,,,,,,,,,,,0,-0.462239583,-0.251302083,1,0,0,0.731,button_left_test,0,61,61,69,1
,,,,,,,,,,,,,,,,,61fa943b5719bc09cb834ebb,70,2022-02-12_13h20.46.468,lexical_decision_task_DD_L2,2021.2.3,Win32,60.3682463,,,,,,,,,,,1.3474,1,,,,,,,,,,,,,,,,,,,,,,,,0.342447917,-0.27734375,1,0,0,,,,,,,CANDLE,LB,m,y,./images/CANDLELB.png,,,,,,,,,,,,,,,,,,,,,,0,0.342447917,-0.27734375,1,0,0,1.3474,button_right_test,0,62,62,61,1
,,,,,,,,,,,,,,,,,61fa943b5719bc09cb834ebb,70,2022-02-12_13h20.46.468,lexical_decision_task_DD_L2,2021.2.3,Win32,60.3682463,,,,,,,,,,,1.3146,1,,,,,,,,,,,,,,,,,,,,,,,,-0.3046875,-0.279947917,1,0,0,,,,,,,PEBBLE,LB,z,y,./images/PEBBLELB.png,,,,,,,,,,,,,,,,,,,,,,0,-0.3046875,-0.279947917,1,0,0,1.3146,button_left_test,0,63,63,166,1
,,,,,,,,,,,,,,,,,61fa943b5719bc09cb834ebb,70,2022-02-12_13h20.46.468,lexical_decision_task_DD_L2,2021.2.3,Win32,60.3682463,,,,,,,,,,,1.0349,1,,,,,,,,,,,,,,,,,,,,,,,,-0.3046875,-0.279947917,1,0,0,,,,,,,DANCER,HB,z,y,./images/DANCERHB.png,,,,,,,,,,,,,,,,,,,,,,0,-0.3046875,-0.279947917,1,0,0,1.0349,button_left_test,0,64,64,105,1
,,,,,,,,,,,,,,,,,61fa943b5719bc09cb834ebb,70,2022-02-12_13h20.46.468,lexical_decision_task_DD_L2,2021.2.3,Win32,60.3682463,,,,,,,,,,,0.9807,0,,,,,,,,,,,,,,,,,,,,,,,,-0.3046875,-0.279947917,1,0,0,,,,,,,BURIAL,C,m,y,./images/BURIAL.png,,,,,,,,,,,,,,,,,,,,,,0,-0.3046875,-0.279947917,1,0,0,0.9807,button_left_test,0,65,65,59,1
,,,,,,,,,,,,,,,,,61fa943b5719bc09cb834ebb,70,2022-02-12_13h20.46.468,lexical_decision_task_DD_L2,2021.2.3,Win32,60.3682463,,,,,,,,,,,0.7975,0,,,,,,,,,,,,,,,,,,,,,,,,-0.3046875,-0.279947917,1,0,0,,,,,,,CEMENT,C,m,y,./images/CEMENT.png,,,,,,,,,,,,,,,,,,,,,,0,-0.3046875,-0.279947917,1,0,0,0.7975,button_left_test,0,66,66,74,1
,,,,,,,,,,,,,,,,,61fa943b5719bc09cb834ebb,70,2022-02-12_13h20.46.468,lexical_decision_task_DD_L2,2021.2.3,Win32,60.3682463,,,,,,,,,,,0.6664,1,,,,,,,,,,,,,,,,,,,,,,,,-0.3046875,-0.279947917,1,0,0,,,,,,,SAUNA,HB,z,y,./images/SAUNAHB.png,,,,,,,,,,,,,,,,,,,,,,0,-0.3046875,-0.279947917,1,0,0,0.6664,button_left_test,0,67,67,117,1
,,,,,,,,,,,,,,,,,61fa943b5719bc09cb834ebb,70,2022-02-12_13h20.46.468,lexical_decision_task_DD_L2,2021.2.3,Win32,60.3682463,,,,,,,,,,,1.3672,1,,,,,,,,,,,,,,,,,,,,,,,,0.3984375,-0.305989583,1,0,0,,,,,,,BERRY,C,m,y,./images/BERRY.png,,,,,,,,,,,,,,,,,,,,,,0,0.3984375,-0.305989583,1,0,0,1.3672,button_right_test,0,68,68,47,1
,,,,,,,,,,,,,,,,,61fa943b5719bc09cb834ebb,70,2022-02-12_13h20.46.468,lexical_decision_task_DD_L2,2021.2.3,Win32,60.3682463,,,,,,,,,,,0.7319,1,,,,,,,,,,,,,,,,,,,,,,,,0.3984375,-0.305989583,1,0,0,,,,,,,FARMER,C,m,y,./images/FARMER.png,,,,,,,,,,,,,,,,,,,,,,0,0.3984375,-0.305989583,1,0,0,0.7319,button_right_test,0,69,69,65,1
,,,,,,,,,,,,,,,,,61fa943b5719bc09cb834ebb,70,2022-02-12_13h20.46.468,lexical_decision_task_DD_L2,2021.2.3,Win32,60.3682463,,,,,,,,,,,1.4356,1,,,,,,,,,,,,,,,,,,,,,,,,-0.286458333,-0.299479167,1,0,0,,,,,,,PLANET,C,z,y,./images/PLANET.png,,,,,,,,,,,,,,,,,,,,,,0,-0.286458333,-0.299479167,1,0,0,1.4356,button_left_test,0,70,70,164,1
,,,,,,,,,,,,,,,,,61fa943b5719bc09cb834ebb,70,2022-02-12_13h20.46.468,lexical_decision_task_DD_L2,2021.2.3,Win32,60.3682463,,,,,,,,,,,0.931,1,,,,,,,,,,,,,,,,,,,,,,,,-0.286458333,-0.299479167,1,0,0,,,,,,,CANOE,LB,z,y,./images/CANOELB.png,,,,,,,,,,,,,,,,,,,,,,0,-0.286458333,-0.299479167,1,0,0,0.931,button_left_test,0,71,71,142,1
,,,,,,,,,,,,,,,,,61fa943b5719bc09cb834ebb,70,2022-02-12_13h20.46.468,lexical_decision_task_DD_L2,2021.2.3,Win32,60.3682463,,,,,,,,,,,1.2158,1,,,,,,,,,,,,,,,,,,,,,,,,0.311197917,-0.286458333,1,0,0,,,,,,,BEARD,C,m,y,./images/BEARD.png,,,,,,,,,,,,,,,,,,,,,,0,0.311197917,-0.286458333,1,0,0,1.2158,button_right_test,0,72,72,2,1
,,,,,,,,,,,,,,,,,61fa943b5719bc09cb834ebb,70,2022-02-12_13h20.46.468,lexical_decision_task_DD_L2,2021.2.3,Win32,60.3682463,,,,,,,,,,,0.7811,1,,,,,,,,,,,,,,,,,,,,,,,,0.311197917,-0.286458333,1,0,0,,,,,,,BANNER,LB,m,y,./images/BANNERLB.png,,,,,,,,,,,,,,,,,,,,,,0,0.311197917,-0.286458333,1,0,0,0.7811,button_right_test,0,73,73,52,1
,,,,,,,,,,,,,,,,,61fa943b5719bc09cb834ebb,70,2022-02-12_13h20.46.468,lexical_decision_task_DD_L2,2021.2.3,Win32,60.3682463,,,,,,,,,,,0.9476,1,,,,,,,,,,,,,,,,,,,,,,,,0.311197917,-0.286458333,1,0,0,,,,,,,INFANT,LB,m,y,./images/INFANTLB.png,,,,,,,,,,,,,,,,,,,,,,0,0.311197917,-0.286458333,1,0,0,0.9476,button_right_test,0,74,74,76,1
,,,,,,,,,,,,,,,,,61fa943b5719bc09cb834ebb,70,2022-02-12_13h20.46.468,lexical_decision_task_DD_L2,2021.2.3,Win32,60.3682463,,,,,,,,,,,1.4982,1,,,,,,,,,,,,,,,,,,,,,,,,0.311197917,-0.286458333,1,0,0,,,,,,,SUNSET,LB,m,y,./images/SUNSETLB.png,,,,,,,,,,,,,,,,,,,,,,0,0.311197917,-0.286458333,1,0,0,1.4982,button_right_test,0,75,75,82,1
,,,,,,,,,,,,,,,,,61fa943b5719bc09cb834ebb,70,2022-02-12_13h20.46.468,lexical_decision_task_DD_L2,2021.2.3,Win32,60.3682463,,,,,,,,,,,0.7647,1,,,,,,,,,,,,,,,,,,,,,,,,0.311197917,-0.286458333,1,0,0,,,,,,,MUFFIN,LB,m,y,./images/MUFFINLB.png,,,,,,,,,,,,,,,,,,,,,,0,0.311197917,-0.286458333,1,0,0,0.7647,button_right_test,0,76,76,55,1
,,,,,,,,,,,,,,,,,61fa943b5719bc09cb834ebb,70,2022-02-12_13h20.46.468,lexical_decision_task_DD_L2,2021.2.3,Win32,60.3682463,,,,,,,,,,,0.8839,1,,,,,,,,,,,,,,,,,,,,,,,,0.311197917,-0.286458333,1,0,0,,,,,,,TULIP,C,m,y,./images/TULIP.png,,,,,,,,,,,,,,,,,,,,,,0,0.311197917,-0.286458333,1,0,0,0.8839,button_right_test,0,77,77,8,1
,,,,,,,,,,,,,,,,,61fa943b5719bc09cb834ebb,70,2022-02-12_13h20.46.468,lexical_decision_task_DD_L2,2021.2.3,Win32,60.3682463,,,,,,,,,,,0.9643,0,,,,,,,,,,,,,,,,,,,,,,,,0.311197917,-0.286458333,1,0,0,,,,,,,PILOT,C,z,y,./images/PILOT.png,,,,,,,,,,,,,,,,,,,,,,0,0.311197917,-0.286458333,1,0,0,0.9643,button_right_test,0,78,78,134,1
,,,,,,,,,,,,,,,,,61fa943b5719bc09cb834ebb,70,2022-02-12_13h20.46.468,lexical_decision_task_DD_L2,2021.2.3,Win32,60.3682463,,,,,,,,,,,0.7808,1,,,,,,,,,,,,,,,,,,,,,,,,0.311197917,-0.286458333,1,0,0,,,,,,,MOOSE,HB,m,y,./images/MOOSEHB.png,,,,,,,,,,,,,,,,,,,,,,0,0.311197917,-0.286458333,1,0,0,0.7808,button_right_test,0,79,79,57,1
,,,,,,,,,,,,,,,,,61fa943b5719bc09cb834ebb,70,2022-02-12_13h20.46.468,lexical_decision_task_DD_L2,2021.2.3,Win32,60.3682463,,,,,,,,,,,1.7808,1,,,,,,,,,,,,,,,,,,,,,,,,-0.272135417,-0.282552083,1,0,0,,,,,,,BUBBLE,C,z,y,./images/BUBBLE.png,,,,,,,,,,,,,,,,,,,,,,0,-0.272135417,-0.282552083,1,0,0,1.7808,button_left_test,0,80,80,155,1
,,,,,,,,,,,,,,,,,61fa943b5719bc09cb834ebb,70,2022-02-12_13h20.46.468,lexical_decision_task_DD_L2,2021.2.3,Win32,60.3682463,,,,,,,,,,,0.8308,1,,,,,,,,,,,,,,,,,,,,,,,,-0.272135417,-0.282552083,1,0,0,,,,,,,MAMMAL,C,z,y,./images/MAMMAL.png,,,,,,,,,,,,,,,,,,,,,,0,-0.272135417,-0.282552083,1,0,0,0.8308,button_left_test,0,81,81,146,1
,,,,,,,,,,,,,,,,,61fa943b5719bc09cb834ebb,70,2022-02-12_13h20.46.468,lexical_decision_task_DD_L2,2021.2.3,Win32,60.3682463,,,,,,,,,,,0.8144,1,,,,,,,,,,,,,,,,,,,,,,,,-0.272135417,-0.282552083,1,0,0,,,,,,,MUMMY,LB,z,y,./images/MUMMYLB.png,,,,,,,,,,,,,,,,,,,,,,0,-0.272135417,-0.282552083,1,0,0,0.8144,button_left_test,0,82,82,130,1
,,,,,,,,,,,,,,,,,61fa943b5719bc09cb834ebb,70,2022-02-12_13h20.46.468,lexical_decision_task_DD_L2,2021.2.3,Win32,60.3682463,,,,,,,,,,,0.8813,1,,,,,,,,,,,,,,,,,,,,,,,,0.028645833,-0.408854167,1,0,0,,,,,,,STEAK,LB,z,y,./images/STEAKLB.png,break_done_button,,,,,,,,,,,,,,,,,,,,,0,-0.272135417,-0.282552083,1,0,0,0.8813,button_left_test,0,83,83,115,1
,,,,,,,,,,,,,,,,,61fa943b5719bc09cb834ebb,70,2022-02-12_13h20.46.468,lexical_decision_task_DD_L2,2021.2.3,Win32,60.3682463,,,,,,,,,,,1.1308,1,,,,,,,,,,,,,,,,,,,,,,,,-0.322916667,-0.311197917,1,0,0,,,,,,,HOCKEY,C,z,y,./images/HOCKEY.png,,,,,,,,,,,,,,,,,,,,,,0,-0.322916667,-0.311197917,1,0,0,1.1308,button_left_test,0,84,84,116,1
,,,,,,,,,,,,,,,,,61fa943b5719bc09cb834ebb,70,2022-02-12_13h20.46.468,lexical_decision_task_DD_L2,2021.2.3,Win32,60.3682463,,,,,,,,,,,0.7477,1,,,,,,,,,,,,,,,,,,,,,,,,-0.322916667,-0.311197917,1,0,0,,,,,,,DESERT,LB,z,y,./images/DESERTLB.png,,,,,,,,,,,,,,,,,,,,,,0,-0.322916667,-0.311197917,1,0,0,0.7477,button_left_test,0,85,85,136,1
,,,,,,,,,,,,,,,,,61fa943b5719bc09cb834ebb,70,2022-02-12_13h20.46.468,lexical_decision_task_DD_L2,2021.2.3,Win32,60.3682463,,,,,,,,,,,0.9977,1,,,,,,,,,,,,,,,,,,,,,,,,-0.322916667,-0.311197917,1,0,0,,,,,,,SHIELD,HB,z,y,./images/SHIELDHB.png,,,,,,,,,,,,,,,,,,,,,,0,-0.322916667,-0.311197917,1,0,0,0.9977,button_left_test,0,86,86,132,1
,,,,,,,,,,,,,,,,,61fa943b5719bc09cb834ebb,70,2022-02-12_13h20.46.468,lexical_decision_task_DD_L2,2021.2.3,Win32,60.3682463,,,,,,,,,,,1.114,0,,,,,,,,,,,,,,,,,,,,,,,,0.345052083,-0.32421875,1,0,0,,,,,,,CHERRY,HB,z,y,./images/CHERRYHB.png,,,,,,,,,,,,,,,,,,,,,,0,0.345052083,-0.32421875,1,0,0,1.114,button_right_test,0,87,87,138,1
,,,,,,,,,,,,,,,,,61fa943b5719bc09cb834ebb,70,2022-02-12_13h20.46.468,lexical_decision_task_DD_L2,2021.2.3,Win32,60.3682463,,,,,,,,,,,0.6811,0,,,,,,,,,,,,,,,,,,,,,,,,0.345052083,-0.32421875,1,0,0,,,,,,,BAMBOO,C,z,y,./images/BAMBOO.png,,,,,,,,,,,,,,,,,,,,,,0,0.345052083,-0.32421875,1,0,0,0.6811,button_right_test,0,88,88,89,1
,,,,,,,,,,,,,,,,,61fa943b5719bc09cb834ebb,70,2022-02-12_13h20.46.468,lexical_decision_task_DD_L2,2021.2.3,Win32,60.3682463,,,,,,,,,,,1.5809,0,,,,,,,,,,,,,,,,,,,,,,,,-0.28515625,-0.282552083,1,0,0,,,,,,,SKIING,C,m,y,./images/SKIING.png,,,,,,,,,,,,,,,,,,,,,,0,-0.28515625,-0.282552083,1,0,0,1.5809,button_left_test,0,89,89,17,1
,,,,,,,,,,,,,,,,,61fa943b5719bc09cb834ebb,70,2022-02-12_13h20.46.468,lexical_decision_task_DD_L2,2021.2.3,Win32,60.3682463,,,,,,,,,,,0.7306,1,,,,,,,,,,,,,,,,,,,,,,,,-0.28515625,-0.282552083,1,0,0,,,,,,,WALNUT,HB,z,y,./images/WALNUTHB.png,,,,,,,,,,,,,,,,,,,,,,0,-0.28515625,-0.282552083,1,0,0,0.7306,button_left_test,0,90,90,84,1
,,,,,,,,,,,,,,,,,61fa943b5719bc09cb834ebb,70,2022-02-12_13h20.46.468,lexical_decision_task_DD_L2,2021.2.3,Win32,60.3682463,,,,,,,,,,,1.181,1,,,,,,,,,,,,,,,,,,,,,,,,0.518229167,-0.298177083,1,0,0,,,,,,,PICKLE,C,m,y,./images/PICKLE.png,,,,,,,,,,,,,,,,,,,,,,0,0.518229167,-0.298177083,1,0,0,1.181,button_right_test,0,91,91,14,1
,,,,,,,,,,,,,,,,,61fa943b5719bc09cb834ebb,70,2022-02-12_13h20.46.468,lexical_decision_task_DD_L2,2021.2.3,Win32,60.3682463,,,,,,,,,,,1.3153,0,,,,,,,,,,,,,,,,,,,,,,,,-0.25,-0.2890625,1,0,0,,,,,,,ONION,HB,m,y,./images/ONIONHB.png,,,,,,,,,,,,,,,,,,,,,,0,-0.25,-0.2890625,1,0,0,1.3153,button_left_test,0,92,92,51,1
,,,,,,,,,,,,,,,,,61fa943b5719bc09cb834ebb,70,2022-02-12_13h20.46.468,lexical_decision_task_DD_L2,2021.2.3,Win32,60.3682463,,,,,,,,,,,1.2476,0,,,,,,,,,,,,,,,,,,,,,,,,0.299479167,-0.260416667,1,0,0,,,,,,,COLLAR,HB,z,y,./images/COLLARHB.png,,,,,,,,,,,,,,,,,,,,,,0,0.299479167,-0.260416667,1,0,0,1.2476,button_right_test,0,93,93,99,1
,,,,,,,,,,,,,,,,,61fa943b5719bc09cb834ebb,70,2022-02-12_13h20.46.468,lexical_decision_task_DD_L2,2021.2.3,Win32,60.3682463,,,,,,,,,,,0.6816,1,,,,,,,,,,,,,,,,,,,,,,,,0.299479167,-0.260416667,1,0,0,,,,,,,PEARL,LB,m,y,./images/PEARLLB.png,,,,,,,,,,,,,,,,,,,,,,0,0.299479167,-0.260416667,1,0,0,0.6816,button_right_test,0,94,94,46,1
,,,,,,,,,,,,,,,,,61fa943b5719bc09cb834ebb,70,2022-02-12_13h20.46.468,lexical_decision_task_DD_L2,2021.2.3,Win32,60.3682463,,,,,,,,,,,0.7309,1,,,,,,,,,,,,,,,,,,,,,,,,0.299479167,-0.260416667,1,0,0,,,,,,,WALRUS,C,m,y,./images/WALRUS.png,,,,,,,,,,,,,,,,,,,,,,0,0.299479167,-0.260416667,1,0,0,0.7309,button_right_test,0,95,95,23,1
,,,,,,,,,,,,,,,,,61fa943b5719bc09cb834ebb,70,2022-02-12_13h20.46.468,lexical_decision_task_DD_L2,2021.2.3,Win32,60.3682463,,,,,,,,,,,0.7482,1,,,,,,,,,,,,,,,,,,,,,,,,0.299479167,-0.260416667,1,0,0,,,,,,,TORCH,C,m,y,./images/TORCH.png,,,,,,,,,,,,,,,,,,,,,,0,0.299479167,-0.260416667,1,0,0,0.7482,button_right_test,0,96,96,68,1
,,,,,,,,,,,,,,,,,61fa943b5719bc09cb834ebb,70,2022-02-12_13h20.46.468,lexical_decision_task_DD_L2,2021.2.3,Win32,60.3682463,,,,,,,,,,,1.8473,1,,,,,,,,,,,,,,,,,,,,,,,,-0.4296875,-0.270833333,1,0,0,,,,,,,DIVER,HB,z,y,./images/DIVERHB.png,,,,,,,,,,,,,,,,,,,,,,0,-0.4296875,-0.270833333,1,0,0,1.8473,button_left_test,0,97,97,93,1
,,,,,,,,,,,,,,,,,61fa943b5719bc09cb834ebb,70,2022-02-12_13h20.46.468,lexical_decision_task_DD_L2,2021.2.3,Win32,60.3682463,,,,,,,,,,,1.1171,1,,,,,,,,,,,,,,,,,,,,,,,,0.345052083,-0.29296875,1,0,0,,,,,,,PEACH,C,m,y,./images/PEACH.png,,,,,,,,,,,,,,,,,,,,,,0,0.345052083,-0.29296875,1,0,0,1.1171,button_right_test,0,98,98,35,1
,,,,,,,,,,,,,,,,,61fa943b5719bc09cb834ebb,70,2022-02-12_13h20.46.468,lexical_decision_task_DD_L2,2021.2.3,Win32,60.3682463,,,,,,,,,,,1.4645,1,,,,,,,,,,,,,,,,,,,,,,,,-0.25,-0.31640625,1,0,0,,,,,,,HAMMER,HB,z,y,./images/HAMMERHB.png,,,,,,,,,,,,,,,,,,,,,,0,-0.25,-0.31640625,1,0,0,1.4645,button_left_test,0,99,99,159,1
,,,,,,,,,,,,,,,,,61fa943b5719bc09cb834ebb,70,2022-02-12_13h20.46.468,lexical_decision_task_DD_L2,2021.2.3,Win32,60.3682463,,,,,,,,,,,0.9485,1,,,,,,,,,,,,,,,,,,,,,,,,-0.25,-0.31640625,1,0,0,,,,,,,BUTTER,HB,z,y,./images/BUTTERHB.png,,,,,,,,,,,,,,,,,,,,,,0,-0.25,-0.31640625,1,0,0,0.9485,button_left_test,0,100,100,111,1
,,,,,,,,,,,,,,,,,61fa943b5719bc09cb834ebb,70,2022-02-12_13h20.46.468,lexical_decision_task_DD_L2,2021.2.3,Win32,60.3682463,,,,,,,,,,,0.8801,1,,,,,,,,,,,,,,,,,,,,,,,,-0.25,-0.31640625,1,0,0,,,,,,,CHAIN,HB,z,y,./images/CHAINHB.png,,,,,,,,,,,,,,,,,,,,,,0,-0.25,-0.31640625,1,0,0,0.8801,button_left_test,0,101,101,126,1
,,,,,,,,,,,,,,,,,61fa943b5719bc09cb834ebb,70,2022-02-12_13h20.46.468,lexical_decision_task_DD_L2,2021.2.3,Win32,60.3682463,,,,,,,,,,,0.6807,1,,,,,,,,,,,,,,,,,,,,,,,,-0.25,-0.31640625,1,0,0,,,,,,,SPINE,C,z,y,./images/SPINE.png,,,,,,,,,,,,,,,,,,,,,,0,-0.25,-0.31640625,1,0,0,0.6807,button_left_test,0,102,102,149,1
,,,,,,,,,,,,,,,,,61fa943b5719bc09cb834ebb,70,2022-02-12_13h20.46.468,lexical_decision_task_DD_L2,2021.2.3,Win32,60.3682463,,,,,,,,,,,1.3145,0,,,,,,,,,,,,,,,,,,,,,,,,0.33984375,-0.30859375,1,0,0,,,,,,,BUNNY,LB,z,y,./images/BUNNYLB.png,,,,,,,,,,,,,,,,,,,,,,0,0.33984375,-0.30859375,1,0,0,1.3145,button_right_test,0,103,103,97,1
,,,,,,,,,,,,,,,,,61fa943b5719bc09cb834ebb,70,2022-02-12_13h20.46.468,lexical_decision_task_DD_L2,2021.2.3,Win32,60.3682463,,,,,,,,,,,1.3979,1,,,,,,,,,,,,,,,,,,,,,,,,-0.3359375,-0.276041667,1,0,0,,,,,,,SLOPE,HB,z,y,./images/SLOPEHB.png,,,,,,,,,,,,,,,,,,,,,,0,-0.3359375,-0.276041667,1,0,0,1.3979,button_left_test,0,104,104,114,1
,,,,,,,,,,,,,,,,,61fa943b5719bc09cb834ebb,70,2022-02-12_13h20.46.468,lexical_decision_task_DD_L2,2021.2.3,Win32,60.3682463,,,,,,,,,,,0.8301,1,,,,,,,,,,,,,,,,,,,,,,,,-0.3359375,-0.2734375,1,0,0,,,,,,,FLESH,HB,z,y,./images/FLESHHB.png,,,,,,,,,,,,,,,,,,,,,,0,-0.3359375,-0.2734375,1,0,0,0.8301,button_left_test,0,105,105,108,1
,,,,,,,,,,,,,,,,,61fa943b5719bc09cb834ebb,70,2022-02-12_13h20.46.468,lexical_decision_task_DD_L2,2021.2.3,Win32,60.3682463,,,,,,,,,,,1.1977,1,,,,,,,,,,,,,,,,,,,,,,,,0.330729167,-0.28515625,1,0,0,,,,,,,MOTOR,LB,m,y,./images/MOTORLB.png,,,,,,,,,,,,,,,,,,,,,,0,0.330729167,-0.28515625,1,0,0,1.1977,button_right_test,0,106,106,13,1
,,,,,,,,,,,,,,,,,61fa943b5719bc09cb834ebb,70,2022-02-12_13h20.46.468,lexical_decision_task_DD_L2,2021.2.3,Win32,60.3682463,,,,,,,,,,,1.4006,1,,,,,,,,,,,,,,,,,,,,,,,,0.408854167,-0.23046875,1,0,0,,,,,,,CRUMB,C,m,y,./images/CRUMB.png,,,,,,,,,,,,,,,,,,,,,,0,0.408854167,-0.23046875,1,0,0,1.4006,button_right_test,0,107,107,29,1
,,,,,,,,,,,,,,,,,61fa943b5719bc09cb834ebb,70,2022-02-12_13h20.46.468,lexical_decision_task_DD_L2,2021.2.3,Win32,60.3682463,,,,,,,,,,,0.7811,1,,,,,,,,,,,,,,,,,,,,,,,,0.403645833,-0.231770833,1,0,0,,,,,,,SMOKER,C,m,y,./images/SMOKER.png,,,,,,,,,,,,,,,,,,,,,,0,0.403645833,-0.231770833,1,0,0,0.7811,button_right_test,0,108,108,26,1
,,,,,,,,,,,,,,,,,61fa943b5719bc09cb834ebb,70,2022-02-12_13h20.46.468,lexical_decision_task_DD_L2,2021.2.3,Win32,60.3682463,,,,,,,,,,,1.2837,1,,,,,,,,,,,,,,,,,,,,,,,,-0.377604167,-0.294270833,1,0,0,,,,,,,BOXER,LB,z,y,./images/BOXERLB.png,,,,,,,,,,,,,,,,,,,,,,0,-0.377604167,-0.294270833,1,0,0,1.2837,button_left_test,0,109,109,88,1
,,,,,,,,,,,,,,,,,61fa943b5719bc09cb834ebb,70,2022-02-12_13h20.46.468,lexical_decision_task_DD_L2,2021.2.3,Win32,60.3682463,,,,,,,,,,,0.8145,0,,,,,,,,,,,,,,,,,,,,,,,,-0.377604167,-0.294270833,1,0,0,,,,,,,LITTER,HB,m,y,./images/LITTERHB.png,,,,,,,,,,,,,,,,,,,,,,0,-0.377604167,-0.294270833,1,0,0,0.8145,button_left_test,0,110,110,78,1
,,,,,,,,,,,,,,,,,61fa943b5719bc09cb834ebb,70,2022-02-12_13h20.46.468,lexical_decision_task_DD_L2,2021.2.3,Win32,60.3682463,,,,,,,,,,,1.6977,0,,,,,,,,,,,,,,,,,,,,,,,,0.287760417,-0.287760417,1,0,0,,,,,,,BASKET,C,z,y,./images/BASKET.png,,,,,,,,,,,,,,,,,,,,,,0,0.287760417,-0.287760417,1,0,0,1.6977,button_right_test,0,111,111,128,1
,,,,,,,,,,,,,,,,,61fa943b5719bc09cb834ebb,70,2022-02-12_13h20.46.468,lexical_decision_task_DD_L2,2021.2.3,Win32,60.3682463,,,,,,,,,,,0.698,1,,,,,,,,,,,,,,,,,,,,,,,,0.287760417,-0.287760417,1,0,0,,,,,,,WEASEL,C,m,y,./images/WEASEL.png,,,,,,,,,,,,,,,,,,,,,,0,0.287760417,-0.287760417,1,0,0,0.698,button_right_test,0,112,112,80,1
,,,,,,,,,,,,,,,,,61fa943b5719bc09cb834ebb,70,2022-02-12_13h20.46.468,lexical_decision_task_DD_L2,2021.2.3,Win32,60.3682463,,,,,,,,,,,0.7449,1,,,,,,,,,,,,,,,,,,,,,,,,0.287760417,-0.287760417,1,0,0,,,,,,,PLANK,LB,m,y,./images/PLANKLB.png,,,,,,,,,,,,,,,,,,,,,,0,0.287760417,-0.287760417,1,0,0,0.7449,button_right_test,0,113,113,1,1
,,,,,,,,,,,,,,,,,61fa943b5719bc09cb834ebb,70,2022-02-12_13h20.46.468,lexical_decision_task_DD_L2,2021.2.3,Win32,60.3682463,,,,,,,,,,,1.3812,1,,,,,,,,,,,,,,,,,,,,,,,,-0.350260417,-0.278645833,1,0,0,,,,,,,CURRY,HB,z,y,./images/CURRYHB.png,,,,,,,,,,,,,,,,,,,,,,0,-0.350260417,-0.278645833,1,0,0,1.3812,button_left_test,0,114,114,144,1
,,,,,,,,,,,,,,,,,61fa943b5719bc09cb834ebb,70,2022-02-12_13h20.46.468,lexical_decision_task_DD_L2,2021.2.3,Win32,60.3682463,,,,,,,,,,,0.8659,0,,,,,,,,,,,,,,,,,,,,,,,,-0.350260417,-0.278645833,1,0,0,,,,,,,BIRTH,LB,m,y,./images/BIRTHLB.png,,,,,,,,,,,,,,,,,,,,,,0,-0.350260417,-0.278645833,1,0,0,0.8659,button_left_test,0,115,115,37,1
,,,,,,,,,,,,,,,,,61fa943b5719bc09cb834ebb,70,2022-02-12_13h20.46.468,lexical_decision_task_DD_L2,2021.2.3,Win32,60.3682463,,,,,,,,,,,0.8641,1,,,,,,,,,,,,,,,,,,,,,,,,-0.350260417,-0.278645833,1,0,0,,,,,,,GRAPE,LB,z,y,./images/GRAPELB.png,,,,,,,,,,,,,,,,,,,,,,0,-0.350260417,-0.278645833,1,0,0,0.8641,button_left_test,0,116,116,100,1
,,,,,,,,,,,,,,,,,61fa943b5719bc09cb834ebb,70,2022-02-12_13h20.46.468,lexical_decision_task_DD_L2,2021.2.3,Win32,60.3682463,,,,,,,,,,,0.7485,1,,,,,,,,,,,,,,,,,,,,,,,,-0.350260417,-0.278645833,1,0,0,,,,,,,CLIFF,C,z,y,./images/CLIFF.png,,,,,,,,,,,,,,,,,,,,,,0,-0.350260417,-0.278645833,1,0,0,0.7485,button_left_test,0,117,117,92,1
