key_resp.keys,instr_done_touch.x,instr_done_touch.y,instr_done_touch.leftButton,instr_done_touch.midButton,instr_done_touch.rightButton,instr_done_touch.clicked_name,instruction_pages.thisRepN,instruction_pages.thisTrialN,instruction_pages.thisN,instruction_pages.thisIndex,instruction_pages.ran,pageN,phase,instruct_text,has_image,instruct_image,participant,age,date,expName,psychopyVersion,OS,frameRate,response.keys,response.corr,touch_resp.x,touch_resp.y,touch_resp.leftButton,touch_resp.midButton,touch_resp.rightButton,touch_resp.time,touch_resp.clicked_name,rt,corr,practrials.thisRepN,practrials.thisTrialN,practrials.thisN,practrials.thisIndex,practrials.ran,TrialID,Target,corrAns,end_of_practice_trials_pages.thisRepN,end_of_practice_trials_pages.thisTrialN,end_of_practice_trials_pages.thisN,end_of_practice_trials_pages.thisIndex,end_of_practice_trials_pages.ran,key_resp_2.keys,key_resp_2.corr,targ_click.x,targ_click.y,targ_click.leftButton,targ_click.midButton,targ_click.rightButton,targ_click.time,targ_click.clicked_name,break_done_touch.x,break_done_touch.y,break_done_touch.leftButton,break_done_touch.midButton,break_done_touch.rightButton,break_done_keyboard.keys,maintrials.thisRepN,maintrials.thisTrialN,maintrials.thisN,maintrials.thisIndex,maintrials.ran,string,blur,study,lex,stim_path,break_done_touch.clicked_name,mouse_2.x,mouse_2.y,mouse_2.leftButton,mouse_2.midButton,mouse_2.rightButton,mouse_2.clicked_name,slider.response,slider.rt,trials.thisRepN,trials.thisTrialN,trials.thisN,trials.thisIndex,trials.ran,test_instructions.thisRepN,test_instructions.thisTrialN,test_instructions.thisN,test_instructions.thisIndex,test_instructions.ran,key_resp_3.keys,key_resp_3.corr,test_click.x,test_click.y,test_click.leftButton,test_click.midButton,test_click.rightButton,test_click.time,test_click.clicked_name,test_phase.thisRepN,test_phase.thisTrialN,test_phase.thisN,test_phase.thisIndex,test_phase.ran
,0.098979592,-0.408673469,1,0,0,instr_done_button,0,0,0,0,1,1,instructions,"INSTRUCTIONS
At the start of each trial, look at the plus sign  (+) in the center of the screen.  This tells you that a trial is about to begin and where to look. Second, the plus sign will disappear and a string of letters will appear. Your task is to determine if the string of letters is a word or not. If the item is a word press the M key (on keyboard)  or touch the word button (phone/tablet).  If the item is not a word,  press the  Z key (on keyboard)  or touch the nonword button (on phone/tablet). 
Press the space bar or touch  continue.",0,,5c31f92c23f1c60001a6a3e8,26,2022-02-12_17h28.04.579,lexical_decision_task_DD,2021.2.3,iPhone,62.5,,,,,,,,,,,,,,,,,,,,,,,,,,,,,,,,,,,,,,,,,,,,,,,,,,,,,,,,,,,,,,,,,,,,,,,,,,,,,,,,,,
,0.112244898,-0.409693878,1,0,0,instr_done_button,0,1,1,1,1,2,instructions,"If your device has a keyboard, press the 'Z' key for nonwords and the 'M' key for words.





Press the space bar or touch the button below to continue.",0,keyboard-example.gif,5c31f92c23f1c60001a6a3e8,26,2022-02-12_17h28.04.579,lexical_decision_task_DD,2021.2.3,iPhone,62.5,,,,,,,,,,,,,,,,,,,,,,,,,,,,,,,,,,,,,,,,,,,,,,,,,,,,,,,,,,,,,,,,,,,,,,,,,,,,,,,,,,
,0.115306122,-0.422959184,1,0,0,instr_done_button,0,2,2,2,1,3,instructions,"If you are using a touchscreen only device, use the buttons on the screen. Do not use the mouse.





Press the space bar or touch the button below to continue.",0,touchscreen-example.gif,5c31f92c23f1c60001a6a3e8,26,2022-02-12_17h28.04.579,lexical_decision_task_DD,2021.2.3,iPhone,62.5,,,,,,,,,,,,,,,,,,,,,,,,,,,,,,,,,,,,,,,,,,,,,,,,,,,,,,,,,,,,,,,,,,,,,,,,,,,,,,,,,,
,0.05,-0.419897959,1,0,0,instr_done_button,0,3,3,3,1,4,instructions,"It is very important that you respond as quickly and accurately as possible, as each letter string will only be on the screen for two seconds. If you do not respond within this time, the message 'Too slow!' will be displayed and the experiment will progress to the next letter string. The first 20 trials will be practice trials and you will receive feedback on your answers. 

Press the space bar or touch the button below to start the practice trials.",0,,5c31f92c23f1c60001a6a3e8,26,2022-02-12_17h28.04.579,lexical_decision_task_DD,2021.2.3,iPhone,62.5,,,,,,,,,,,,,,,,,,,,,,,,,,,,,,,,,,,,,,,,,,,,,,,,,,,,,,,,,,,,,,,,,,,,,,,,,,,,,,,,,,
,,,,,,,,,,,,,,,,,5c31f92c23f1c60001a6a3e8,26,2022-02-12_17h28.04.579,lexical_decision_task_DD,2021.2.3,iPhone,62.5,,0,0.359183673,-0.312755102,1,0,0,0.935,button_right,0.935,1,0,0,0,5,1,1001,OBTAIN,m,,,,,,,,,,,,,,,,,,,,,,,,,,,,,,,,,,,,,,,,,,,,,,,,,,,,,,,,,,,,,,,
,,,,,,,,,,,,,,,,,5c31f92c23f1c60001a6a3e8,26,2022-02-12_17h28.04.579,lexical_decision_task_DD,2021.2.3,iPhone,62.5,,0,-0.351020408,-0.292346939,1,0,0,1.078,button_left,1.078,1,0,1,1,11,1,1001,RASHET,z,,,,,,,,,,,,,,,,,,,,,,,,,,,,,,,,,,,,,,,,,,,,,,,,,,,,,,,,,,,,,,,
,,,,,,,,,,,,,,,,,5c31f92c23f1c60001a6a3e8,26,2022-02-12_17h28.04.579,lexical_decision_task_DD,2021.2.3,iPhone,62.5,,0,-0.355102041,-0.329081633,1,0,0,1.135,button_left,1.135,1,0,2,2,10,1,1001,INLADE,z,,,,,,,,,,,,,,,,,,,,,,,,,,,,,,,,,,,,,,,,,,,,,,,,,,,,,,,,,,,,,,,
,,,,,,,,,,,,,,,,,5c31f92c23f1c60001a6a3e8,26,2022-02-12_17h28.04.579,lexical_decision_task_DD,2021.2.3,iPhone,62.5,,0,0.405102041,-0.333163265,1,0,0,0.808,button_right,0.808,1,0,3,3,3,1,1001,MATRIX,m,,,,,,,,,,,,,,,,,,,,,,,,,,,,,,,,,,,,,,,,,,,,,,,,,,,,,,,,,,,,,,,
,,,,,,,,,,,,,,,,,5c31f92c23f1c60001a6a3e8,26,2022-02-12_17h28.04.579,lexical_decision_task_DD,2021.2.3,iPhone,62.5,,0,-0.375510204,-0.330102041,1,0,0,1.022,button_left,1.022,1,0,4,4,8,1,1001,ASLERT,z,,,,,,,,,,,,,,,,,,,,,,,,,,,,,,,,,,,,,,,,,,,,,,,,,,,,,,,,,,,,,,,
,,,,,,,,,,,,,,,,,5c31f92c23f1c60001a6a3e8,26,2022-02-12_17h28.04.579,lexical_decision_task_DD,2021.2.3,iPhone,62.5,,0,-0.383673469,-0.329081633,1,0,0,0.906,button_left,0.906,1,0,5,5,9,1,1001,FARINY,z,,,,,,,,,,,,,,,,,,,,,,,,,,,,,,,,,,,,,,,,,,,,,,,,,,,,,,,,,,,,,,,
,,,,,,,,,,,,,,,,,5c31f92c23f1c60001a6a3e8,26,2022-02-12_17h28.04.579,lexical_decision_task_DD,2021.2.3,iPhone,62.5,,0,0.42244898,-0.317857143,1,0,0,0.577,button_right,0.577,1,0,6,6,4,1,1001,SQUEAK,m,,,,,,,,,,,,,,,,,,,,,,,,,,,,,,,,,,,,,,,,,,,,,,,,,,,,,,,,,,,,,,,
,,,,,,,,,,,,,,,,,5c31f92c23f1c60001a6a3e8,26,2022-02-12_17h28.04.579,lexical_decision_task_DD,2021.2.3,iPhone,62.5,,0,-0.403061224,-0.327040816,1,0,0,0.963,button_left,0.963,1,0,7,7,15,1,1001,WHAISE,z,,,,,,,,,,,,,,,,,,,,,,,,,,,,,,,,,,,,,,,,,,,,,,,,,,,,,,,,,,,,,,,
,,,,,,,,,,,,,,,,,5c31f92c23f1c60001a6a3e8,26,2022-02-12_17h28.04.579,lexical_decision_task_DD,2021.2.3,iPhone,62.5,,0,-0.397959184,-0.333163265,1,0,0,0.762,button_left,0.762,1,0,8,8,14,1,1001,THRALE,z,,,,,,,,,,,,,,,,,,,,,,,,,,,,,,,,,,,,,,,,,,,,,,,,,,,,,,,,,,,,,,,
,,,,,,,,,,,,,,,,,5c31f92c23f1c60001a6a3e8,26,2022-02-12_17h28.04.579,lexical_decision_task_DD,2021.2.3,iPhone,62.5,,0,0.410204082,-0.317857143,1,0,0,0.853,button_right,0.853,1,0,9,9,1,1,1001,ADJUST,m,,,,,,,,,,,,,,,,,,,,,,,,,,,,,,,,,,,,,,,,,,,,,,,,,,,,,,,,,,,,,,,
,,,,,,,,,,,,,,,,,5c31f92c23f1c60001a6a3e8,26,2022-02-12_17h28.04.579,lexical_decision_task_DD,2021.2.3,iPhone,62.5,,0,0.445918367,-0.316836735,1,0,0,0.767,button_right,0.767,1,0,10,10,0,1,1001,UTOPIA,m,,,,,,,,,,,,,,,,,,,,,,,,,,,,,,,,,,,,,,,,,,,,,,,,,,,,,,,,,,,,,,,
,,,,,,,,,,,,,,,,,5c31f92c23f1c60001a6a3e8,26,2022-02-12_17h28.04.579,lexical_decision_task_DD,2021.2.3,iPhone,62.5,,0,0.443877551,-0.316836735,1,0,0,0.756,button_right,0.756,1,0,11,11,6,1,1001,ZOMBIE,m,,,,,,,,,,,,,,,,,,,,,,,,,,,,,,,,,,,,,,,,,,,,,,,,,,,,,,,,,,,,,,,
,,,,,,,,,,,,,,,,,5c31f92c23f1c60001a6a3e8,26,2022-02-12_17h28.04.579,lexical_decision_task_DD,2021.2.3,iPhone,62.5,,0,-0.415306122,-0.334183673,1,0,0,1.109,button_left,1.109,1,0,12,12,12,1,1001,SPRINY,z,,,,,,,,,,,,,,,,,,,,,,,,,,,,,,,,,,,,,,,,,,,,,,,,,,,,,,,,,,,,,,,
,,,,,,,,,,,,,,,,,5c31f92c23f1c60001a6a3e8,26,2022-02-12_17h28.04.579,lexical_decision_task_DD,2021.2.3,iPhone,62.5,,0,0.466326531,-0.312755102,1,0,0,0.687,button_right,0.687,1,0,13,13,7,1,1001,VOLUME,m,,,,,,,,,,,,,,,,,,,,,,,,,,,,,,,,,,,,,,,,,,,,,,,,,,,,,,,,,,,,,,,
,,,,,,,,,,,,,,,,,5c31f92c23f1c60001a6a3e8,26,2022-02-12_17h28.04.579,lexical_decision_task_DD,2021.2.3,iPhone,62.5,,0,0.462244898,-0.317857143,1,0,0,0.916,button_right,0.916,1,0,14,14,2,1,1001,ALMOND,m,,,,,,,,,,,,,,,,,,,,,,,,,,,,,,,,,,,,,,,,,,,,,,,,,,,,,,,,,,,,,,,
,,,,,,,,,,,,,,,,,5c31f92c23f1c60001a6a3e8,26,2022-02-12_17h28.04.579,lexical_decision_task_DD,2021.2.3,iPhone,62.5,,0,-0.355102041,-0.343367347,1,0,0,0.996,button_left,0.996,1,0,15,15,13,1,1001,ROUPET,z,,,,,,,,,,,,,,,,,,,,,,,,,,,,,,,,,,,,,,,,,,,,,,,,,,,,,,,,,,,,,,,
,0.131632653,-0.417857143,1,0,0,instr_done_button,,,,,,1,end_of_practice,"You have completed the practice trials. During the experimental trials, you will not receive feedback. 
Before you begin, please ensure that you are in a comfortable and quiet location and will not be disturbed for about 15 minutes, as we cannot use your data if you do not complete all the trials. 
 When you are ready to start the experimental trials, please press space or touch the button below.",,,5c31f92c23f1c60001a6a3e8,26,2022-02-12_17h28.04.579,lexical_decision_task_DD,2021.2.3,iPhone,62.5,,,,,,,,,,,,,,,,,,,,0,0,0,0,1,,,,,,,,,,,,,,,,,,,,,,,,,,,,,,,,,,,,,,,,,,,,,,,,,,,,,,,,,,
,,,,,,,,,,,,,,,,,5c31f92c23f1c60001a6a3e8,26,2022-02-12_17h28.04.579,lexical_decision_task_DD,2021.2.3,iPhone,62.5,,,,,,,,,,0.922,1,,,,,,,,,,,,,,,0,0.419387755,-0.308673469,1,0,0,0.922,button_right_main,0.419387755,-0.308673469,1,0,0,,0,0,0,74,1,CEMENT,LB,old,m,./images/CEMENTLB.png,,,,,,,,,,,,,,,,,,,,,,,,,,,,,,,,,
,,,,,,,,,,,,,,,,,5c31f92c23f1c60001a6a3e8,26,2022-02-12_17h28.04.579,lexical_decision_task_DD,2021.2.3,iPhone,62.5,,,,,,,,,,0.591,1,,,,,,,,,,,,,,,0,0.409183673,-0.330102041,1,0,0,0.591,button_right_main,0.409183673,-0.330102041,1,0,0,,0,1,1,36,1,THROAT,C,old,m,./images/THROAT.png,,,,,,,,,,,,,,,,,,,,,,,,,,,,,,,,,
,,,,,,,,,,,,,,,,,5c31f92c23f1c60001a6a3e8,26,2022-02-12_17h28.04.579,lexical_decision_task_DD,2021.2.3,iPhone,62.5,,,,,,,,,,0.867,1,,,,,,,,,,,,,,,0,-0.37244898,-0.321938776,1,0,0,0.867,button_left_main,-0.37244898,-0.321938776,1,0,0,,0,2,2,130,1,CRILL,HB,old,z,./images/CRILLHB.png,,,,,,,,,,,,,,,,,,,,,,,,,,,,,,,,,
,,,,,,,,,,,,,,,,,5c31f92c23f1c60001a6a3e8,26,2022-02-12_17h28.04.579,lexical_decision_task_DD,2021.2.3,iPhone,62.5,,,,,,,,,,1.107,1,,,,,,,,,,,,,,,0,-0.398979592,-0.329081633,1,0,0,1.107,button_left_main,-0.398979592,-0.329081633,1,0,0,,0,3,3,163,1,GAMBA,HB,old,z,./images/GAMBAHB.png,,,,,,,,,,,,,,,,,,,,,,,,,,,,,,,,,
,,,,,,,,,,,,,,,,,5c31f92c23f1c60001a6a3e8,26,2022-02-12_17h28.04.579,lexical_decision_task_DD,2021.2.3,iPhone,62.5,,,,,,,,,,1.084,1,,,,,,,,,,,,,,,0,-0.380612245,-0.333163265,1,0,0,1.084,button_left_main,-0.380612245,-0.333163265,1,0,0,,0,4,4,112,1,MYING,HB,old,z,./images/MYINGHB.png,,,,,,,,,,,,,,,,,,,,,,,,,,,,,,,,,
,,,,,,,,,,,,,,,,,5c31f92c23f1c60001a6a3e8,26,2022-02-12_17h28.04.579,lexical_decision_task_DD,2021.2.3,iPhone,62.5,,,,,,,,,,0.858,1,,,,,,,,,,,,,,,0,-0.375510204,-0.334183673,1,0,0,0.858,button_left_main,-0.375510204,-0.334183673,1,0,0,,0,5,5,87,1,TRING,C,old,z,./images/TRING.png,,,,,,,,,,,,,,,,,,,,,,,,,,,,,,,,,
,,,,,,,,,,,,,,,,,5c31f92c23f1c60001a6a3e8,26,2022-02-12_17h28.04.579,lexical_decision_task_DD,2021.2.3,iPhone,62.5,,,,,,,,,,1.442,1,,,,,,,,,,,,,,,0,-0.379591837,-0.312755102,1,0,0,1.442,button_left_main,-0.379591837,-0.312755102,1,0,0,,0,6,6,160,1,VEETS,HB,old,z,./images/VEETSHB.png,,,,,,,,,,,,,,,,,,,,,,,,,,,,,,,,,
,,,,,,,,,,,,,,,,,5c31f92c23f1c60001a6a3e8,26,2022-02-12_17h28.04.579,lexical_decision_task_DD,2021.2.3,iPhone,62.5,,,,,,,,,,1.022,1,,,,,,,,,,,,,,,0,-0.384693878,-0.329081633,1,0,0,1.022,button_left_main,-0.384693878,-0.329081633,1,0,0,,0,7,7,139,1,BLEAR,HB,old,z,./images/BLEARHB.png,,,,,,,,,,,,,,,,,,,,,,,,,,,,,,,,,
,,,,,,,,,,,,,,,,,5c31f92c23f1c60001a6a3e8,26,2022-02-12_17h28.04.579,lexical_decision_task_DD,2021.2.3,iPhone,62.5,,,,,,,,,,0.691,1,,,,,,,,,,,,,,,0,0.403061224,-0.334183673,1,0,0,0.691,button_right_main,0.403061224,-0.334183673,1,0,0,,0,8,8,34,1,CANYON,HB,old,m,./images/CANYONHB.png,,,,,,,,,,,,,,,,,,,,,,,,,,,,,,,,,
,,,,,,,,,,,,,,,,,5c31f92c23f1c60001a6a3e8,26,2022-02-12_17h28.04.579,lexical_decision_task_DD,2021.2.3,iPhone,62.5,,,,,,,,,,0.719,1,,,,,,,,,,,,,,,0,0.444897959,-0.321938776,1,0,0,0.719,button_right_main,0.444897959,-0.321938776,1,0,0,,0,9,9,13,1,MOTOR,HB,old,m,./images/MOTORHB.png,,,,,,,,,,,,,,,,,,,,,,,,,,,,,,,,,
,,,,,,,,,,,,,,,,,5c31f92c23f1c60001a6a3e8,26,2022-02-12_17h28.04.579,lexical_decision_task_DD,2021.2.3,iPhone,62.5,,,,,,,,,,0.856,1,,,,,,,,,,,,,,,0,-0.440816327,-0.327040816,1,0,0,0.856,button_left_main,-0.440816327,-0.327040816,1,0,0,,0,10,10,150,1,NOOLS,C,old,z,./images/NOOLS.png,,,,,,,,,,,,,,,,,,,,,,,,,,,,,,,,,
,,,,,,,,,,,,,,,,,5c31f92c23f1c60001a6a3e8,26,2022-02-12_17h28.04.579,lexical_decision_task_DD,2021.2.3,iPhone,62.5,,,,,,,,,,0.652,1,,,,,,,,,,,,,,,0,0.416326531,-0.329081633,1,0,0,0.652,button_right_main,0.416326531,-0.329081633,1,0,0,,0,11,11,65,1,FARMER,LB,old,m,./images/FARMERLB.png,,,,,,,,,,,,,,,,,,,,,,,,,,,,,,,,,
,,,,,,,,,,,,,,,,,5c31f92c23f1c60001a6a3e8,26,2022-02-12_17h28.04.579,lexical_decision_task_DD,2021.2.3,iPhone,62.5,,,,,,,,,,1.443,0,,,,,,,,,,,,,,,0,0.459183673,-0.333163265,1,0,0,1.443,button_right_main,0.459183673,-0.333163265,1,0,0,,0,12,12,94,1,BLANS,HB,old,z,./images/BLANSHB.png,,,,,,,,,,,,,,,,,,,,,,,,,,,,,,,,,
,,,,,,,,,,,,,,,,,5c31f92c23f1c60001a6a3e8,26,2022-02-12_17h28.04.579,lexical_decision_task_DD,2021.2.3,iPhone,62.5,,,,,,,,,,1.098,1,,,,,,,,,,,,,,,0,-0.37755102,-0.317857143,1,0,0,1.098,button_left_main,-0.37755102,-0.317857143,1,0,0,,0,13,13,151,1,TINKY,HB,old,z,./images/TINKYHB.png,,,,,,,,,,,,,,,,,,,,,,,,,,,,,,,,,
,,,,,,,,,,,,,,,,,5c31f92c23f1c60001a6a3e8,26,2022-02-12_17h28.04.579,lexical_decision_task_DD,2021.2.3,iPhone,62.5,,,,,,,,,,1.322,1,,,,,,,,,,,,,,,0,-0.403061224,-0.326020408,1,0,0,1.322,button_left_main,-0.403061224,-0.326020408,1,0,0,,0,14,14,148,1,JOMS,HB,old,z,./images/JOMSHB.png,,,,,,,,,,,,,,,,,,,,,,,,,,,,,,,,,
,,,,,,,,,,,,,,,,,5c31f92c23f1c60001a6a3e8,26,2022-02-12_17h28.04.579,lexical_decision_task_DD,2021.2.3,iPhone,62.5,,,,,,,,,,1.391,1,,,,,,,,,,,,,,,0,-0.390816327,-0.325,1,0,0,1.391,button_left_main,-0.390816327,-0.325,1,0,0,,0,15,15,121,1,CEERS,HB,old,z,./images/CEERSHB.png,,,,,,,,,,,,,,,,,,,,,,,,,,,,,,,,,
,,,,,,,,,,,,,,,,,5c31f92c23f1c60001a6a3e8,26,2022-02-12_17h28.04.579,lexical_decision_task_DD,2021.2.3,iPhone,62.5,,,,,,,,,,1.069,1,,,,,,,,,,,,,,,0,-0.366326531,-0.329081633,1,0,0,1.069,button_left_main,-0.366326531,-0.329081633,1,0,0,,0,16,16,118,1,BAVEL,HB,old,z,./images/BAVELHB.png,,,,,,,,,,,,,,,,,,,,,,,,,,,,,,,,,
,,,,,,,,,,,,,,,,,5c31f92c23f1c60001a6a3e8,26,2022-02-12_17h28.04.579,lexical_decision_task_DD,2021.2.3,iPhone,62.5,,,,,,,,,,0.647,1,,,,,,,,,,,,,,,0,0.433673469,-0.330102041,1,0,0,0.647,button_right_main,0.433673469,-0.330102041,1,0,0,,0,17,17,38,1,LADDER,LB,old,m,./images/LADDERLB.png,,,,,,,,,,,,,,,,,,,,,,,,,,,,,,,,,
,,,,,,,,,,,,,,,,,5c31f92c23f1c60001a6a3e8,26,2022-02-12_17h28.04.579,lexical_decision_task_DD,2021.2.3,iPhone,62.5,,,,,,,,,,0.663,1,,,,,,,,,,,,,,,0,0.463265306,-0.344387755,1,0,0,0.663,button_right_main,0.463265306,-0.344387755,1,0,0,,0,18,18,15,1,GREASE,C,old,m,./images/GREASE.png,,,,,,,,,,,,,,,,,,,,,,,,,,,,,,,,,
,,,,,,,,,,,,,,,,,5c31f92c23f1c60001a6a3e8,26,2022-02-12_17h28.04.579,lexical_decision_task_DD,2021.2.3,iPhone,62.5,,,,,,,,,,1.408,0,,,,,,,,,,,,,,,0,0.391836735,-0.327040816,1,0,0,1.408,button_right_main,0.391836735,-0.327040816,1,0,0,,0,19,19,104,1,GITTY,LB,old,z,./images/GITTYLB.png,,,,,,,,,,,,,,,,,,,,,,,,,,,,,,,,,
,,,,,,,,,,,,,,,,,5c31f92c23f1c60001a6a3e8,26,2022-02-12_17h28.04.579,lexical_decision_task_DD,2021.2.3,iPhone,62.5,,,,,,,,,,0.77,1,,,,,,,,,,,,,,,0,0.445918367,-0.326020408,1,0,0,0.77,button_right_main,0.445918367,-0.326020408,1,0,0,,0,20,20,79,1,CRUST,HB,old,m,./images/CRUSTHB.png,,,,,,,,,,,,,,,,,,,,,,,,,,,,,,,,,
,,,,,,,,,,,,,,,,,5c31f92c23f1c60001a6a3e8,26,2022-02-12_17h28.04.579,lexical_decision_task_DD,2021.2.3,iPhone,62.5,,,,,,,,,,0.741,1,,,,,,,,,,,,,,,0,0.437755102,-0.346428571,1,0,0,0.741,button_right_main,0.437755102,-0.346428571,1,0,0,,0,21,21,19,1,DOUGH,HB,old,m,./images/DOUGHHB.png,,,,,,,,,,,,,,,,,,,,,,,,,,,,,,,,,
,,,,,,,,,,,,,,,,,5c31f92c23f1c60001a6a3e8,26,2022-02-12_17h28.04.579,lexical_decision_task_DD,2021.2.3,iPhone,62.5,,,,,,,,,,0.764,1,,,,,,,,,,,,,,,0,0.436734694,-0.330102041,1,0,0,0.764,button_right_main,0.436734694,-0.330102041,1,0,0,,0,22,22,29,1,CRUMB,LB,old,m,./images/CRUMBLB.png,,,,,,,,,,,,,,,,,,,,,,,,,,,,,,,,,
,,,,,,,,,,,,,,,,,5c31f92c23f1c60001a6a3e8,26,2022-02-12_17h28.04.579,lexical_decision_task_DD,2021.2.3,iPhone,62.5,,,,,,,,,,0.786,1,,,,,,,,,,,,,,,0,-0.38877551,-0.322959184,1,0,0,0.786,button_left_main,-0.38877551,-0.322959184,1,0,0,,0,23,23,90,1,NEAST,C,old,z,./images/NEAST.png,,,,,,,,,,,,,,,,,,,,,,,,,,,,,,,,,
,,,,,,,,,,,,,,,,,5c31f92c23f1c60001a6a3e8,26,2022-02-12_17h28.04.579,lexical_decision_task_DD,2021.2.3,iPhone,62.5,,,,,,,,,,1.473,1,,,,,,,,,,,,,,,0,-0.375510204,-0.331122449,1,0,0,1.473,button_left_main,-0.375510204,-0.331122449,1,0,0,,0,24,24,127,1,NINDY,HB,old,z,./images/NINDYHB.png,,,,,,,,,,,,,,,,,,,,,,,,,,,,,,,,,
,,,,,,,,,,,,,,,,,5c31f92c23f1c60001a6a3e8,26,2022-02-12_17h28.04.579,lexical_decision_task_DD,2021.2.3,iPhone,62.5,,,,,,,,,,0.812,1,,,,,,,,,,,,,,,0,-0.346938776,-0.338265306,1,0,0,0.812,button_left_main,-0.346938776,-0.338265306,1,0,0,,0,25,25,155,1,CANGY,LB,old,z,./images/CANGYLB.png,,,,,,,,,,,,,,,,,,,,,,,,,,,,,,,,,
,,,,,,,,,,,,,,,,,5c31f92c23f1c60001a6a3e8,26,2022-02-12_17h28.04.579,lexical_decision_task_DD,2021.2.3,iPhone,62.5,,,,,,,,,,0.777,1,,,,,,,,,,,,,,,0,0.42755102,-0.338265306,1,0,0,0.777,button_right_main,0.42755102,-0.338265306,1,0,0,,0,26,26,72,1,NOOSE,C,old,m,./images/NOOSE.png,,,,,,,,,,,,,,,,,,,,,,,,,,,,,,,,,
,,,,,,,,,,,,,,,,,5c31f92c23f1c60001a6a3e8,26,2022-02-12_17h28.04.579,lexical_decision_task_DD,2021.2.3,iPhone,62.5,,,,,,,,,,1.108,1,,,,,,,,,,,,,,,0,-0.354081633,-0.338265306,1,0,0,1.108,button_left_main,-0.354081633,-0.338265306,1,0,0,,0,27,27,115,1,MAWNS,HB,old,z,./images/MAWNSHB.png,,,,,,,,,,,,,,,,,,,,,,,,,,,,,,,,,
,,,,,,,,,,,,,,,,,5c31f92c23f1c60001a6a3e8,26,2022-02-12_17h28.04.579,lexical_decision_task_DD,2021.2.3,iPhone,62.5,,,,,,,,,,0.904,1,,,,,,,,,,,,,,,0,-0.396938776,-0.329081633,1,0,0,0.904,button_left_main,-0.396938776,-0.329081633,1,0,0,,0,28,28,143,1,MONGS,LB,old,z,./images/MONGSLB.png,,,,,,,,,,,,,,,,,,,,,,,,,,,,,,,,,
,,,,,,,,,,,,,,,,,5c31f92c23f1c60001a6a3e8,26,2022-02-12_17h28.04.579,lexical_decision_task_DD,2021.2.3,iPhone,62.5,,,,,,,,,,0.794,1,,,,,,,,,,,,,,,0,0.441836735,-0.321938776,1,0,0,0.794,button_right_main,0.441836735,-0.321938776,1,0,0,,0,29,29,67,1,SAILOR,HB,old,m,./images/SAILORHB.png,,,,,,,,,,,,,,,,,,,,,,,,,,,,,,,,,
,,,,,,,,,,,,,,,,,5c31f92c23f1c60001a6a3e8,26,2022-02-12_17h28.04.579,lexical_decision_task_DD,2021.2.3,iPhone,62.5,,,,,,,,,,1.194,1,,,,,,,,,,,,,,,0,-0.389795918,-0.317857143,1,0,0,1.194,button_left_main,-0.389795918,-0.317857143,1,0,0,,0,30,30,105,1,MOKER,C,old,z,./images/MOKER.png,,,,,,,,,,,,,,,,,,,,,,,,,,,,,,,,,
,,,,,,,,,,,,,,,,,5c31f92c23f1c60001a6a3e8,26,2022-02-12_17h28.04.579,lexical_decision_task_DD,2021.2.3,iPhone,62.5,,,,,,,,,,0.785,1,,,,,,,,,,,,,,,0,-0.393877551,-0.316836735,1,0,0,0.785,button_left_main,-0.393877551,-0.316836735,1,0,0,,0,31,31,93,1,SMONE,C,old,z,./images/SMONE.png,,,,,,,,,,,,,,,,,,,,,,,,,,,,,,,,,
,,,,,,,,,,,,,,,,,5c31f92c23f1c60001a6a3e8,26,2022-02-12_17h28.04.579,lexical_decision_task_DD,2021.2.3,iPhone,62.5,,,,,,,,,,0.703,1,,,,,,,,,,,,,,,0,0.433673469,-0.31377551,1,0,0,0.703,button_right_main,0.433673469,-0.31377551,1,0,0,,0,32,32,30,1,STORM,C,old,m,./images/STORM.png,,,,,,,,,,,,,,,,,,,,,,,,,,,,,,,,,
,,,,,,,,,,,,,,,,,5c31f92c23f1c60001a6a3e8,26,2022-02-12_17h28.04.579,lexical_decision_task_DD,2021.2.3,iPhone,62.5,,,,,,,,,,0.813,1,,,,,,,,,,,,,,,0,-0.368367347,-0.319897959,1,0,0,0.813,button_left_main,-0.368367347,-0.319897959,1,0,0,,0,33,33,120,1,RINED,C,old,z,./images/RINED.png,,,,,,,,,,,,,,,,,,,,,,,,,,,,,,,,,
,,,,,,,,,,,,,,,,,5c31f92c23f1c60001a6a3e8,26,2022-02-12_17h28.04.579,lexical_decision_task_DD,2021.2.3,iPhone,62.5,,,,,,,,,,1.095,1,,,,,,,,,,,,,,,0,-0.384693878,-0.312755102,1,0,0,1.095,button_left_main,-0.384693878,-0.312755102,1,0,0,,0,34,34,140,1,DOVET,LB,old,z,./images/DOVETLB.png,,,,,,,,,,,,,,,,,,,,,,,,,,,,,,,,,
,,,,,,,,,,,,,,,,,5c31f92c23f1c60001a6a3e8,26,2022-02-12_17h28.04.579,lexical_decision_task_DD,2021.2.3,iPhone,62.5,,,,,,,,,,0.716,1,,,,,,,,,,,,,,,0,0.455102041,-0.325,1,0,0,0.716,button_right_main,0.455102041,-0.325,1,0,0,,0,35,35,46,1,PEARL,HB,old,m,./images/PEARLHB.png,,,,,,,,,,,,,,,,,,,,,,,,,,,,,,,,,
,,,,,,,,,,,,,,,,,5c31f92c23f1c60001a6a3e8,26,2022-02-12_17h28.04.579,lexical_decision_task_DD,2021.2.3,iPhone,62.5,,,,,,,,,,0.785,1,,,,,,,,,,,,,,,0,0.436734694,-0.311734694,1,0,0,0.785,button_right_main,0.436734694,-0.311734694,1,0,0,,0,36,36,26,1,SMOKER,LB,old,m,./images/SMOKERLB.png,,,,,,,,,,,,,,,,,,,,,,,,,,,,,,,,,
,,,,,,,,,,,,,,,,,5c31f92c23f1c60001a6a3e8,26,2022-02-12_17h28.04.579,lexical_decision_task_DD,2021.2.3,iPhone,62.5,,,,,,,,,,1.066,0,,,,,,,,,,,,,,,0,0.393877551,-0.311734694,1,0,0,1.066,button_right_main,0.393877551,-0.311734694,1,0,0,,0,37,37,113,1,LINEW,LB,old,z,./images/LINEWLB.png,,,,,,,,,,,,,,,,,,,,,,,,,,,,,,,,,
,,,,,,,,,,,,,,,,,5c31f92c23f1c60001a6a3e8,26,2022-02-12_17h28.04.579,lexical_decision_task_DD,2021.2.3,iPhone,62.5,,,,,,,,,,0.805,1,,,,,,,,,,,,,,,0,0.435714286,-0.316836735,1,0,0,0.805,button_right_main,0.435714286,-0.316836735,1,0,0,,0,38,38,17,1,SKIING,LB,old,m,./images/SKIINGLB.png,,,,,,,,,,,,,,,,,,,,,,,,,,,,,,,,,
,,,,,,,,,,,,,,,,,5c31f92c23f1c60001a6a3e8,26,2022-02-12_17h28.04.579,lexical_decision_task_DD,2021.2.3,iPhone,62.5,,,,,,,,,,0.676,1,,,,,,,,,,,,,,,0,-0.404081633,-0.308673469,1,0,0,0.676,button_left_main,-0.404081633,-0.308673469,1,0,0,,0,39,39,135,1,JOODY,C,old,z,./images/JOODY.png,,,,,,,,,,,,,,,,,,,,,,,,,,,,,,,,,
,,,,,,,,,,,,,,,,,5c31f92c23f1c60001a6a3e8,26,2022-02-12_17h28.04.579,lexical_decision_task_DD,2021.2.3,iPhone,62.5,,,,,,,,,,1.119,1,,,,,,,,,,,,,,,0,-0.362244898,-0.325,1,0,0,1.119,button_left_main,-0.362244898,-0.325,1,0,0,,0,40,40,106,1,CLUMS,HB,old,z,./images/CLUMSHB.png,,,,,,,,,,,,,,,,,,,,,,,,,,,,,,,,,
,,,,,,,,,,,,,,,,,5c31f92c23f1c60001a6a3e8,26,2022-02-12_17h28.04.579,lexical_decision_task_DD,2021.2.3,iPhone,62.5,,,,,,,,,,0.877,1,,,,,,,,,,,,,,,0,-0.376530612,-0.333163265,1,0,0,0.877,button_left_main,0.155102041,-0.421938776,1,0,0,,0,41,41,146,1,MOOST,LB,old,z,./images/MOOSTLB.png,break_done_button,,,,,,,,,,,,,,,,,,,,,,,,,,,,,,,,
,,,,,,,,,,,,,,,,,5c31f92c23f1c60001a6a3e8,26,2022-02-12_17h28.04.579,lexical_decision_task_DD,2021.2.3,iPhone,62.5,,,,,,,,,,0.625,1,,,,,,,,,,,,,,,0,0.435714286,-0.304591837,1,0,0,0.625,button_right_main,0.435714286,-0.304591837,1,0,0,,0,42,42,41,1,STRING,LB,old,m,./images/STRINGLB.png,,,,,,,,,,,,,,,,,,,,,,,,,,,,,,,,,
,,,,,,,,,,,,,,,,,5c31f92c23f1c60001a6a3e8,26,2022-02-12_17h28.04.579,lexical_decision_task_DD,2021.2.3,iPhone,62.5,,,,,,,,,,0.797,1,,,,,,,,,,,,,,,0,0.41122449,-0.304591837,1,0,0,0.797,button_right_main,0.41122449,-0.304591837,1,0,0,,0,43,43,11,1,BONNET,LB,old,m,./images/BONNETLB.png,,,,,,,,,,,,,,,,,,,,,,,,,,,,,,,,,
,,,,,,,,,,,,,,,,,5c31f92c23f1c60001a6a3e8,26,2022-02-12_17h28.04.579,lexical_decision_task_DD,2021.2.3,iPhone,62.5,,,,,,,,,,0.728,1,,,,,,,,,,,,,,,0,0.439795918,-0.281122449,1,0,0,0.728,button_right_main,0.439795918,-0.281122449,1,0,0,,0,44,44,75,1,GRAIN,C,old,m,./images/GRAIN.png,,,,,,,,,,,,,,,,,,,,,,,,,,,,,,,,,
,,,,,,,,,,,,,,,,,5c31f92c23f1c60001a6a3e8,26,2022-02-12_17h28.04.579,lexical_decision_task_DD,2021.2.3,iPhone,62.5,,,,,,,,,,0.969,1,,,,,,,,,,,,,,,0,-0.367346939,-0.316836735,1,0,0,0.969,button_left_main,-0.367346939,-0.316836735,1,0,0,,0,45,45,102,1,DULLE,C,old,z,./images/DULLE.png,,,,,,,,,,,,,,,,,,,,,,,,,,,,,,,,,
,,,,,,,,,,,,,,,,,5c31f92c23f1c60001a6a3e8,26,2022-02-12_17h28.04.579,lexical_decision_task_DD,2021.2.3,iPhone,62.5,,,,,,,,,,0.972,1,,,,,,,,,,,,,,,0,-0.429591837,-0.307653061,1,0,0,0.972,button_left_main,-0.429591837,-0.307653061,1,0,0,,0,46,46,137,1,JOOST,LB,old,z,./images/JOOSTLB.png,,,,,,,,,,,,,,,,,,,,,,,,,,,,,,,,,
,,,,,,,,,,,,,,,,,5c31f92c23f1c60001a6a3e8,26,2022-02-12_17h28.04.579,lexical_decision_task_DD,2021.2.3,iPhone,62.5,,,,,,,,,,0.773,1,,,,,,,,,,,,,,,0,0.423469388,-0.309693878,1,0,0,0.773,button_right_main,0.423469388,-0.309693878,1,0,0,,0,47,47,82,1,SUNSET,HB,old,m,./images/SUNSETHB.png,,,,,,,,,,,,,,,,,,,,,,,,,,,,,,,,,
,,,,,,,,,,,,,,,,,5c31f92c23f1c60001a6a3e8,26,2022-02-12_17h28.04.579,lexical_decision_task_DD,2021.2.3,iPhone,62.5,,,,,,,,,,1.01,1,,,,,,,,,,,,,,,0,-0.364285714,-0.315816327,1,0,0,1.01,button_left_main,-0.364285714,-0.315816327,1,0,0,,0,48,48,134,1,TROSS,LB,old,z,./images/TROSSLB.png,,,,,,,,,,,,,,,,,,,,,,,,,,,,,,,,,
,,,,,,,,,,,,,,,,,5c31f92c23f1c60001a6a3e8,26,2022-02-12_17h28.04.579,lexical_decision_task_DD,2021.2.3,iPhone,62.5,,,,,,,,,,0.787,1,,,,,,,,,,,,,,,0,0.412244898,-0.300510204,1,0,0,0.787,button_right_main,0.412244898,-0.300510204,1,0,0,,0,49,49,1,1,PLANK,HB,old,m,./images/PLANKHB.png,,,,,,,,,,,,,,,,,,,,,,,,,,,,,,,,,
,,,,,,,,,,,,,,,,,5c31f92c23f1c60001a6a3e8,26,2022-02-12_17h28.04.579,lexical_decision_task_DD,2021.2.3,iPhone,62.5,,,,,,,,,,0.805,1,,,,,,,,,,,,,,,0,0.432653061,-0.311734694,1,0,0,0.805,button_right_main,0.432653061,-0.311734694,1,0,0,,0,50,50,39,1,SHELF,C,old,m,./images/SHELF.png,,,,,,,,,,,,,,,,,,,,,,,,,,,,,,,,,
,,,,,,,,,,,,,,,,,5c31f92c23f1c60001a6a3e8,26,2022-02-12_17h28.04.579,lexical_decision_task_DD,2021.2.3,iPhone,62.5,,,,,,,,,,0.706,1,,,,,,,,,,,,,,,0,0.424489796,-0.303571429,1,0,0,0.706,button_right_main,0.424489796,-0.303571429,1,0,0,,0,51,51,63,1,MIRROR,C,old,m,./images/MIRROR.png,,,,,,,,,,,,,,,,,,,,,,,,,,,,,,,,,
,,,,,,,,,,,,,,,,,5c31f92c23f1c60001a6a3e8,26,2022-02-12_17h28.04.579,lexical_decision_task_DD,2021.2.3,iPhone,62.5,,,,,,,,,,0.813,1,,,,,,,,,,,,,,,0,-0.345918367,-0.325,1,0,0,0.813,button_left_main,-0.345918367,-0.325,1,0,0,,0,52,52,108,1,GRUET,C,old,z,./images/GRUET.png,,,,,,,,,,,,,,,,,,,,,,,,,,,,,,,,,
,,,,,,,,,,,,,,,,,5c31f92c23f1c60001a6a3e8,26,2022-02-12_17h28.04.579,lexical_decision_task_DD,2021.2.3,iPhone,62.5,,,,,,,,,,0.989,1,,,,,,,,,,,,,,,0,-0.414285714,-0.307653061,1,0,0,0.989,button_left_main,-0.414285714,-0.307653061,1,0,0,,0,53,53,110,1,CRUNK,LB,old,z,./images/CRUNKLB.png,,,,,,,,,,,,,,,,,,,,,,,,,,,,,,,,,
,,,,,,,,,,,,,,,,,5c31f92c23f1c60001a6a3e8,26,2022-02-12_17h28.04.579,lexical_decision_task_DD,2021.2.3,iPhone,62.5,,,,,,,,,,0.889,1,,,,,,,,,,,,,,,0,0.423469388,-0.307653061,1,0,0,0.889,button_right_main,0.423469388,-0.307653061,1,0,0,,0,54,54,50,1,MALLET,LB,old,m,./images/MALLETLB.png,,,,,,,,,,,,,,,,,,,,,,,,,,,,,,,,,
,,,,,,,,,,,,,,,,,5c31f92c23f1c60001a6a3e8,26,2022-02-12_17h28.04.579,lexical_decision_task_DD,2021.2.3,iPhone,62.5,,,,,,,,,,0.82,1,,,,,,,,,,,,,,,0,0.453061224,-0.300510204,1,0,0,0.82,button_right_main,0.453061224,-0.300510204,1,0,0,,0,55,55,7,1,PAINT,HB,old,m,./images/PAINTHB.png,,,,,,,,,,,,,,,,,,,,,,,,,,,,,,,,,
,,,,,,,,,,,,,,,,,5c31f92c23f1c60001a6a3e8,26,2022-02-12_17h28.04.579,lexical_decision_task_DD,2021.2.3,iPhone,62.5,,,,,,,,,,0.719,1,,,,,,,,,,,,,,,0,0.455102041,-0.309693878,1,0,0,0.719,button_right_main,0.455102041,-0.309693878,1,0,0,,0,56,56,4,1,MUSCLE,HB,old,m,./images/MUSCLEHB.png,,,,,,,,,,,,,,,,,,,,,,,,,,,,,,,,,
,,,,,,,,,,,,,,,,,5c31f92c23f1c60001a6a3e8,26,2022-02-12_17h28.04.579,lexical_decision_task_DD,2021.2.3,iPhone,62.5,,,,,,,,,,0.807,1,,,,,,,,,,,,,,,0,-0.407142857,-0.309693878,1,0,0,0.807,button_left_main,-0.407142857,-0.309693878,1,0,0,,0,57,57,138,1,PLICE,C,old,z,./images/PLICE.png,,,,,,,,,,,,,,,,,,,,,,,,,,,,,,,,,
,,,,,,,,,,,,,,,,,5c31f92c23f1c60001a6a3e8,26,2022-02-12_17h28.04.579,lexical_decision_task_DD,2021.2.3,iPhone,62.5,,,,,,,,,,0.799,1,,,,,,,,,,,,,,,0,-0.417346939,-0.330102041,1,0,0,0.799,button_left_main,-0.417346939,-0.330102041,1,0,0,,0,58,58,107,1,FASKS,LB,old,z,./images/FASKSLB.png,,,,,,,,,,,,,,,,,,,,,,,,,,,,,,,,,
,,,,,,,,,,,,,,,,,5c31f92c23f1c60001a6a3e8,26,2022-02-12_17h28.04.579,lexical_decision_task_DD,2021.2.3,iPhone,62.5,,,,,,,,,,0.757,1,,,,,,,,,,,,,,,0,-0.384693878,-0.320918367,1,0,0,0.757,button_left_main,-0.384693878,-0.320918367,1,0,0,,0,59,59,114,1,RIKES,C,old,z,./images/RIKES.png,,,,,,,,,,,,,,,,,,,,,,,,,,,,,,,,,
,,,,,,,,,,,,,,,,,5c31f92c23f1c60001a6a3e8,26,2022-02-12_17h28.04.579,lexical_decision_task_DD,2021.2.3,iPhone,62.5,,,,,,,,,,0.808,1,,,,,,,,,,,,,,,0,0.398979592,-0.308673469,1,0,0,0.808,button_right_main,0.398979592,-0.308673469,1,0,0,,0,60,60,33,1,MAGGOT,C,old,m,./images/MAGGOT.png,,,,,,,,,,,,,,,,,,,,,,,,,,,,,,,,,
,,,,,,,,,,,,,,,,,5c31f92c23f1c60001a6a3e8,26,2022-02-12_17h28.04.579,lexical_decision_task_DD,2021.2.3,iPhone,62.5,,,,,,,,,,0.578,1,,,,,,,,,,,,,,,0,0.455102041,-0.321938776,1,0,0,0.578,button_right_main,0.455102041,-0.321938776,1,0,0,,0,61,61,48,1,SPORT,C,old,m,./images/SPORT.png,,,,,,,,,,,,,,,,,,,,,,,,,,,,,,,,,
,,,,,,,,,,,,,,,,,5c31f92c23f1c60001a6a3e8,26,2022-02-12_17h28.04.579,lexical_decision_task_DD,2021.2.3,iPhone,62.5,,,,,,,,,,0.712,1,,,,,,,,,,,,,,,0,0.439795918,-0.31377551,1,0,0,0.712,button_right_main,0.439795918,-0.31377551,1,0,0,,0,62,62,77,1,COUCH,LB,old,m,./images/COUCHLB.png,,,,,,,,,,,,,,,,,,,,,,,,,,,,,,,,,
,,,,,,,,,,,,,,,,,5c31f92c23f1c60001a6a3e8,26,2022-02-12_17h28.04.579,lexical_decision_task_DD,2021.2.3,iPhone,62.5,,,,,,,,,,0.701,1,,,,,,,,,,,,,,,0,-0.421428571,-0.290306122,1,0,0,0.701,button_left_main,-0.421428571,-0.290306122,1,0,0,,0,63,63,96,1,KEAMS,C,old,z,./images/KEAMS.png,,,,,,,,,,,,,,,,,,,,,,,,,,,,,,,,,
,,,,,,,,,,,,,,,,,5c31f92c23f1c60001a6a3e8,26,2022-02-12_17h28.04.579,lexical_decision_task_DD,2021.2.3,iPhone,62.5,,,,,,,,,,0.891,1,,,,,,,,,,,,,,,0,0.410204082,-0.282142857,1,0,0,0.891,button_right_main,0.410204082,-0.282142857,1,0,0,,0,64,64,6,1,SQUARE,C,old,m,./images/SQUARE.png,,,,,,,,,,,,,,,,,,,,,,,,,,,,,,,,,
,,,,,,,,,,,,,,,,,5c31f92c23f1c60001a6a3e8,26,2022-02-12_17h28.04.579,lexical_decision_task_DD,2021.2.3,iPhone,62.5,,,,,,,,,,0.771,1,,,,,,,,,,,,,,,0,-0.390816327,-0.308673469,1,0,0,0.771,button_left_main,-0.390816327,-0.308673469,1,0,0,,0,65,65,86,1,AIFED,LB,old,z,./images/AIFEDLB.png,,,,,,,,,,,,,,,,,,,,,,,,,,,,,,,,,
,,,,,,,,,,,,,,,,,5c31f92c23f1c60001a6a3e8,26,2022-02-12_17h28.04.579,lexical_decision_task_DD,2021.2.3,iPhone,62.5,,,,,,,,,,0.733,1,,,,,,,,,,,,,,,0,0.423469388,-0.311734694,1,0,0,0.733,button_right_main,0.423469388,-0.311734694,1,0,0,,0,66,66,28,1,FALCON,HB,old,m,./images/FALCONHB.png,,,,,,,,,,,,,,,,,,,,,,,,,,,,,,,,,
,,,,,,,,,,,,,,,,,5c31f92c23f1c60001a6a3e8,26,2022-02-12_17h28.04.579,lexical_decision_task_DD,2021.2.3,iPhone,62.5,,,,,,,,,,0.629,1,,,,,,,,,,,,,,,0,0.429591837,-0.309693878,1,0,0,0.629,button_right_main,0.429591837,-0.309693878,1,0,0,,0,67,67,20,1,CRADLE,LB,old,m,./images/CRADLELB.png,,,,,,,,,,,,,,,,,,,,,,,,,,,,,,,,,
,,,,,,,,,,,,,,,,,5c31f92c23f1c60001a6a3e8,26,2022-02-12_17h28.04.579,lexical_decision_task_DD,2021.2.3,iPhone,62.5,,,,,,,,,,0.768,1,,,,,,,,,,,,,,,0,-0.424489796,-0.303571429,1,0,0,0.768,button_left_main,-0.424489796,-0.303571429,1,0,0,,0,68,68,167,1,ZONET,LB,old,z,./images/ZONETLB.png,,,,,,,,,,,,,,,,,,,,,,,,,,,,,,,,,
,,,,,,,,,,,,,,,,,5c31f92c23f1c60001a6a3e8,26,2022-02-12_17h28.04.579,lexical_decision_task_DD,2021.2.3,iPhone,62.5,,,,,,,,,,0.996,0,,,,,,,,,,,,,,,0,0.443877551,-0.317857143,1,0,0,0.996,button_right_main,0.443877551,-0.317857143,1,0,0,,0,69,69,166,1,SHORY,HB,old,z,./images/SHORYHB.png,,,,,,,,,,,,,,,,,,,,,,,,,,,,,,,,,
,,,,,,,,,,,,,,,,,5c31f92c23f1c60001a6a3e8,26,2022-02-12_17h28.04.579,lexical_decision_task_DD,2021.2.3,iPhone,62.5,,,,,,,,,,0.648,1,,,,,,,,,,,,,,,0,0.403061224,-0.309693878,1,0,0,0.648,button_right_main,0.403061224,-0.309693878,1,0,0,,0,70,70,62,1,PURSE,LB,old,m,./images/PURSELB.png,,,,,,,,,,,,,,,,,,,,,,,,,,,,,,,,,
,,,,,,,,,,,,,,,,,5c31f92c23f1c60001a6a3e8,26,2022-02-12_17h28.04.579,lexical_decision_task_DD,2021.2.3,iPhone,62.5,,,,,,,,,,0.805,1,,,,,,,,,,,,,,,0,-0.385714286,-0.308673469,1,0,0,0.805,button_left_main,-0.385714286,-0.308673469,1,0,0,,0,71,71,98,1,BAMPS,LB,old,z,./images/BAMPSLB.png,,,,,,,,,,,,,,,,,,,,,,,,,,,,,,,,,
,,,,,,,,,,,,,,,,,5c31f92c23f1c60001a6a3e8,26,2022-02-12_17h28.04.579,lexical_decision_task_DD,2021.2.3,iPhone,62.5,,,,,,,,,,0.851,1,,,,,,,,,,,,,,,0,-0.354081633,-0.331122449,1,0,0,0.851,button_left_main,-0.354081633,-0.331122449,1,0,0,,0,72,72,116,1,BALGY,LB,old,z,./images/BALGYLB.png,,,,,,,,,,,,,,,,,,,,,,,,,,,,,,,,,
,,,,,,,,,,,,,,,,,5c31f92c23f1c60001a6a3e8,26,2022-02-12_17h28.04.579,lexical_decision_task_DD,2021.2.3,iPhone,62.5,,,,,,,,,,1.183,1,,,,,,,,,,,,,,,0,0.420408163,-0.307653061,1,0,0,1.183,button_right_main,0.420408163,-0.307653061,1,0,0,,0,73,73,31,1,QUILL,HB,old,m,./images/QUILLHB.png,,,,,,,,,,,,,,,,,,,,,,,,,,,,,,,,,
,,,,,,,,,,,,,,,,,5c31f92c23f1c60001a6a3e8,26,2022-02-12_17h28.04.579,lexical_decision_task_DD,2021.2.3,iPhone,62.5,,,,,,,,,,0.673,1,,,,,,,,,,,,,,,0,0.428571429,-0.316836735,1,0,0,0.673,button_right_main,0.428571429,-0.316836735,1,0,0,,0,74,74,52,1,BANNER,HB,old,m,./images/BANNERHB.png,,,,,,,,,,,,,,,,,,,,,,,,,,,,,,,,,
,,,,,,,,,,,,,,,,,5c31f92c23f1c60001a6a3e8,26,2022-02-12_17h28.04.579,lexical_decision_task_DD,2021.2.3,iPhone,62.5,,,,,,,,,,0.865,1,,,,,,,,,,,,,,,0,-0.352040816,-0.315816327,1,0,0,0.865,button_left_main,-0.352040816,-0.315816327,1,0,0,,0,75,75,128,1,GRIFT,LB,old,z,./images/GRIFTLB.png,,,,,,,,,,,,,,,,,,,,,,,,,,,,,,,,,
,,,,,,,,,,,,,,,,,5c31f92c23f1c60001a6a3e8,26,2022-02-12_17h28.04.579,lexical_decision_task_DD,2021.2.3,iPhone,62.5,,,,,,,,,,0.761,1,,,,,,,,,,,,,,,0,-0.38877551,-0.317857143,1,0,0,0.761,button_left_main,-0.38877551,-0.317857143,1,0,0,,0,76,76,117,1,STEEG,C,old,z,./images/STEEG.png,,,,,,,,,,,,,,,,,,,,,,,,,,,,,,,,,
,,,,,,,,,,,,,,,,,5c31f92c23f1c60001a6a3e8,26,2022-02-12_17h28.04.579,lexical_decision_task_DD,2021.2.3,iPhone,62.5,,,,,,,,,,0.842,1,,,,,,,,,,,,,,,0,0.42244898,-0.31377551,1,0,0,0.842,button_right_main,0.42244898,-0.31377551,1,0,0,,0,77,77,55,1,MUFFIN,HB,old,m,./images/MUFFINHB.png,,,,,,,,,,,,,,,,,,,,,,,,,,,,,,,,,
,,,,,,,,,,,,,,,,,5c31f92c23f1c60001a6a3e8,26,2022-02-12_17h28.04.579,lexical_decision_task_DD,2021.2.3,iPhone,62.5,,,,,,,,,,0.601,1,,,,,,,,,,,,,,,0,0.426530612,-0.316836735,1,0,0,0.601,button_right_main,0.426530612,-0.316836735,1,0,0,,0,78,78,68,1,TORCH,LB,old,m,./images/TORCHLB.png,,,,,,,,,,,,,,,,,,,,,,,,,,,,,,,,,
,,,,,,,,,,,,,,,,,5c31f92c23f1c60001a6a3e8,26,2022-02-12_17h28.04.579,lexical_decision_task_DD,2021.2.3,iPhone,62.5,,,,,,,,,,1.141,1,,,,,,,,,,,,,,,0,-0.359183673,-0.311734694,1,0,0,1.141,button_left_main,-0.359183673,-0.311734694,1,0,0,,0,79,79,149,1,VEASE,LB,old,z,./images/VEASELB.png,,,,,,,,,,,,,,,,,,,,,,,,,,,,,,,,,
,,,,,,,,,,,,,,,,,5c31f92c23f1c60001a6a3e8,26,2022-02-12_17h28.04.579,lexical_decision_task_DD,2021.2.3,iPhone,62.5,,,,,,,,,,0.739,1,,,,,,,,,,,,,,,0,-0.404081633,-0.295408163,1,0,0,0.739,button_left_main,-0.404081633,-0.295408163,1,0,0,,0,80,80,144,1,NAIRY,C,old,z,./images/NAIRY.png,,,,,,,,,,,,,,,,,,,,,,,,,,,,,,,,,
,,,,,,,,,,,,,,,,,5c31f92c23f1c60001a6a3e8,26,2022-02-12_17h28.04.579,lexical_decision_task_DD,2021.2.3,iPhone,62.5,,,,,,,,,,1.225,1,,,,,,,,,,,,,,,0,-0.373469388,-0.321938776,1,0,0,1.225,button_left_main,-0.373469388,-0.321938776,1,0,0,,0,81,81,91,1,SHENS,HB,old,z,./images/SHENSHB.png,,,,,,,,,,,,,,,,,,,,,,,,,,,,,,,,,
,,,,,,,,,,,,,,,,,5c31f92c23f1c60001a6a3e8,26,2022-02-12_17h28.04.579,lexical_decision_task_DD,2021.2.3,iPhone,62.5,,,,,,,,,,0.669,1,,,,,,,,,,,,,,,0,0.426530612,-0.319897959,1,0,0,0.669,button_right_main,0.426530612,-0.319897959,1,0,0,,0,82,82,83,1,JUNGLE,LB,old,m,./images/JUNGLELB.png,,,,,,,,,,,,,,,,,,,,,,,,,,,,,,,,,
,,,,,,,,,,,,,,,,,5c31f92c23f1c60001a6a3e8,26,2022-02-12_17h28.04.579,lexical_decision_task_DD,2021.2.3,iPhone,62.5,,,,,,,,,,0.605,1,,,,,,,,,,,,,,,0,0.432653061,-0.325,1,0,0,0.605,button_right_main,0.133673469,-0.41377551,1,0,0,,0,83,83,23,1,WALRUS,LB,old,m,./images/WALRUSLB.png,break_done_button,,,,,,,,,,,,,,,,,,,,,,,,,,,,,,,,
,,,,,,,,,,,,,,,,,5c31f92c23f1c60001a6a3e8,26,2022-02-12_17h28.04.579,lexical_decision_task_DD,2021.2.3,iPhone,62.5,,,,,,,,,,0.799,1,,,,,,,,,,,,,,,0,0.453061224,-0.322959184,1,0,0,0.799,button_right_main,0.453061224,-0.322959184,1,0,0,,0,84,84,37,1,BIRTH,HB,old,m,./images/BIRTHHB.png,,,,,,,,,,,,,,,,,,,,,,,,,,,,,,,,,
,,,,,,,,,,,,,,,,,5c31f92c23f1c60001a6a3e8,26,2022-02-12_17h28.04.579,lexical_decision_task_DD,2021.2.3,iPhone,62.5,,,,,,,,,,1.038,1,,,,,,,,,,,,,,,0,-0.385714286,-0.272959184,1,0,0,1.038,button_left_main,-0.385714286,-0.272959184,1,0,0,,0,85,85,159,1,CUDDY,C,old,z,./images/CUDDY.png,,,,,,,,,,,,,,,,,,,,,,,,,,,,,,,,,
,,,,,,,,,,,,,,,,,5c31f92c23f1c60001a6a3e8,26,2022-02-12_17h28.04.579,lexical_decision_task_DD,2021.2.3,iPhone,62.5,,,,,,,,,,0.888,1,,,,,,,,,,,,,,,0,-0.416326531,-0.331122449,1,0,0,0.888,button_left_main,-0.416326531,-0.331122449,1,0,0,,0,86,86,131,1,NACES,LB,old,z,./images/NACESLB.png,,,,,,,,,,,,,,,,,,,,,,,,,,,,,,,,,
,,,,,,,,,,,,,,,,,5c31f92c23f1c60001a6a3e8,26,2022-02-12_17h28.04.579,lexical_decision_task_DD,2021.2.3,iPhone,62.5,,,,,,,,,,1.103,1,,,,,,,,,,,,,,,0,-0.37244898,-0.305612245,1,0,0,1.103,button_left_main,-0.37244898,-0.305612245,1,0,0,,0,87,87,99,1,BACKY,C,old,z,./images/BACKY.png,,,,,,,,,,,,,,,,,,,,,,,,,,,,,,,,,
,,,,,,,,,,,,,,,,,5c31f92c23f1c60001a6a3e8,26,2022-02-12_17h28.04.579,lexical_decision_task_DD,2021.2.3,iPhone,62.5,,,,,,,,,,1.141,1,,,,,,,,,,,,,,,0,-0.367346939,-0.322959184,1,0,0,1.141,button_left_main,-0.367346939,-0.322959184,1,0,0,,0,88,88,145,1,LAMEL,HB,old,z,./images/LAMELHB.png,,,,,,,,,,,,,,,,,,,,,,,,,,,,,,,,,
,,,,,,,,,,,,,,,,,5c31f92c23f1c60001a6a3e8,26,2022-02-12_17h28.04.579,lexical_decision_task_DD,2021.2.3,iPhone,62.5,,,,,,,,,,0.549,1,,,,,,,,,,,,,,,0,-0.407142857,-0.308673469,1,0,0,0.549,button_left_main,-0.407142857,-0.308673469,1,0,0,,0,89,89,165,1,TROWN,C,old,z,./images/TROWN.png,,,,,,,,,,,,,,,,,,,,,,,,,,,,,,,,,
,,,,,,,,,,,,,,,,,5c31f92c23f1c60001a6a3e8,26,2022-02-12_17h28.04.579,lexical_decision_task_DD,2021.2.3,iPhone,62.5,,,,,,,,,,0.8,1,,,,,,,,,,,,,,,0,-0.394897959,-0.335204082,1,0,0,0.8,button_left_main,-0.394897959,-0.335204082,1,0,0,,0,90,90,147,1,ZOLES,C,old,z,./images/ZOLES.png,,,,,,,,,,,,,,,,,,,,,,,,,,,,,,,,,
,,,,,,,,,,,,,,,,,5c31f92c23f1c60001a6a3e8,26,2022-02-12_17h28.04.579,lexical_decision_task_DD,2021.2.3,iPhone,62.5,,,,,,,,,,0.64,1,,,,,,,,,,,,,,,0,0.435714286,-0.307653061,1,0,0,0.64,button_right_main,0.435714286,-0.307653061,1,0,0,,0,91,91,2,1,BEARD,LB,old,m,./images/BEARDLB.png,,,,,,,,,,,,,,,,,,,,,,,,,,,,,,,,,
,,,,,,,,,,,,,,,,,5c31f92c23f1c60001a6a3e8,26,2022-02-12_17h28.04.579,lexical_decision_task_DD,2021.2.3,iPhone,62.5,,,,,,,,,,1.14,1,,,,,,,,,,,,,,,0,0.436734694,-0.315816327,1,0,0,1.14,button_right_main,0.436734694,-0.315816327,1,0,0,,0,92,92,59,1,BURIAL,LB,old,m,./images/BURIALLB.png,,,,,,,,,,,,,,,,,,,,,,,,,,,,,,,,,
,,,,,,,,,,,,,,,,,5c31f92c23f1c60001a6a3e8,26,2022-02-12_17h28.04.579,lexical_decision_task_DD,2021.2.3,iPhone,62.5,,,,,,,,,,0.753,1,,,,,,,,,,,,,,,0,-0.366326531,-0.309693878,1,0,0,0.753,button_left_main,-0.366326531,-0.309693878,1,0,0,,0,93,93,111,1,HOSSE,C,old,z,./images/HOSSE.png,,,,,,,,,,,,,,,,,,,,,,,,,,,,,,,,,
,,,,,,,,,,,,,,,,,5c31f92c23f1c60001a6a3e8,26,2022-02-12_17h28.04.579,lexical_decision_task_DD,2021.2.3,iPhone,62.5,,,,,,,,,,0.979,1,,,,,,,,,,,,,,,0,-0.363265306,-0.311734694,1,0,0,0.979,button_left_main,-0.363265306,-0.311734694,1,0,0,,0,94,94,154,1,THINT,HB,old,z,./images/THINTHB.png,,,,,,,,,,,,,,,,,,,,,,,,,,,,,,,,,
,,,,,,,,,,,,,,,,,5c31f92c23f1c60001a6a3e8,26,2022-02-12_17h28.04.579,lexical_decision_task_DD,2021.2.3,iPhone,62.5,,,,,,,,,,0.774,1,,,,,,,,,,,,,,,0,-0.373469388,-0.317857143,1,0,0,0.774,button_left_main,-0.373469388,-0.317857143,1,0,0,,0,95,95,103,1,FLORT,HB,old,z,./images/FLORTHB.png,,,,,,,,,,,,,,,,,,,,,,,,,,,,,,,,,
,,,,,,,,,,,,,,,,,5c31f92c23f1c60001a6a3e8,26,2022-02-12_17h28.04.579,lexical_decision_task_DD,2021.2.3,iPhone,62.5,,,,,,,,,,1.34,1,,,,,,,,,,,,,,,0,0.431632653,-0.300510204,1,0,0,1.34,button_right_main,0.431632653,-0.300510204,1,0,0,,0,96,96,81,1,POODLE,C,old,m,./images/POODLE.png,,,,,,,,,,,,,,,,,,,,,,,,,,,,,,,,,
,,,,,,,,,,,,,,,,,5c31f92c23f1c60001a6a3e8,26,2022-02-12_17h28.04.579,lexical_decision_task_DD,2021.2.3,iPhone,62.5,,,,,,,,,,0.84,1,,,,,,,,,,,,,,,0,0.41122449,-0.317857143,1,0,0,0.84,button_right_main,0.41122449,-0.317857143,1,0,0,,0,97,97,22,1,MELON,HB,old,m,./images/MELONHB.png,,,,,,,,,,,,,,,,,,,,,,,,,,,,,,,,,
,,,,,,,,,,,,,,,,,5c31f92c23f1c60001a6a3e8,26,2022-02-12_17h28.04.579,lexical_decision_task_DD,2021.2.3,iPhone,62.5,,,,,,,,,,0.689,1,,,,,,,,,,,,,,,0,0.443877551,-0.319897959,1,0,0,0.689,button_right_main,0.443877551,-0.319897959,1,0,0,,0,98,98,8,1,TULIP,LB,old,m,./images/TULIPLB.png,,,,,,,,,,,,,,,,,,,,,,,,,,,,,,,,,
,,,,,,,,,,,,,,,,,5c31f92c23f1c60001a6a3e8,26,2022-02-12_17h28.04.579,lexical_decision_task_DD,2021.2.3,iPhone,62.5,,,,,,,,,,0.742,1,,,,,,,,,,,,,,,0,0.419387755,-0.333163265,1,0,0,0.742,button_right_main,0.419387755,-0.333163265,1,0,0,,0,99,99,58,1,BABOON,HB,old,m,./images/BABOONHB.png,,,,,,,,,,,,,,,,,,,,,,,,,,,,,,,,,
,,,,,,,,,,,,,,,,,5c31f92c23f1c60001a6a3e8,26,2022-02-12_17h28.04.579,lexical_decision_task_DD,2021.2.3,iPhone,62.5,,,,,,,,,,0.824,1,,,,,,,,,,,,,,,0,-0.360204082,-0.327040816,1,0,0,0.824,button_left_main,-0.360204082,-0.327040816,1,0,0,,0,100,100,136,1,WERVE,HB,old,z,./images/WERVEHB.png,,,,,,,,,,,,,,,,,,,,,,,,,,,,,,,,,
,,,,,,,,,,,,,,,,,5c31f92c23f1c60001a6a3e8,26,2022-02-12_17h28.04.579,lexical_decision_task_DD,2021.2.3,iPhone,62.5,,,,,,,,,,0.899,1,,,,,,,,,,,,,,,0,-0.360204082,-0.321938776,1,0,0,0.899,button_left_main,-0.360204082,-0.321938776,1,0,0,,0,101,101,133,1,POWDY,HB,old,z,./images/POWDYHB.png,,,,,,,,,,,,,,,,,,,,,,,,,,,,,,,,,
,,,,,,,,,,,,,,,,,5c31f92c23f1c60001a6a3e8,26,2022-02-12_17h28.04.579,lexical_decision_task_DD,2021.2.3,iPhone,62.5,,,,,,,,,,0.922,1,,,,,,,,,,,,,,,0,-0.346938776,-0.325,1,0,0,0.922,button_left_main,-0.346938776,-0.325,1,0,0,,0,102,102,124,1,TUNCH,HB,old,z,./images/TUNCHHB.png,,,,,,,,,,,,,,,,,,,,,,,,,,,,,,,,,
,,,,,,,,,,,,,,,,,5c31f92c23f1c60001a6a3e8,26,2022-02-12_17h28.04.579,lexical_decision_task_DD,2021.2.3,iPhone,62.5,,,,,,,,,,0.69,1,,,,,,,,,,,,,,,0,0.432653061,-0.311734694,1,0,0,0.69,button_right_main,0.432653061,-0.311734694,1,0,0,,0,103,103,0,1,TOMATO,C,old,m,./images/TOMATO.png,,,,,,,,,,,,,,,,,,,,,,,,,,,,,,,,,
,,,,,,,,,,,,,,,,,5c31f92c23f1c60001a6a3e8,26,2022-02-12_17h28.04.579,lexical_decision_task_DD,2021.2.3,iPhone,62.5,,,,,,,,,,0.75,1,,,,,,,,,,,,,,,0,0.45,-0.316836735,1,0,0,0.75,button_right_main,0.45,-0.316836735,1,0,0,,0,104,104,71,1,PIMPLE,LB,old,m,./images/PIMPLELB.png,,,,,,,,,,,,,,,,,,,,,,,,,,,,,,,,,
,,,,,,,,,,,,,,,,,5c31f92c23f1c60001a6a3e8,26,2022-02-12_17h28.04.579,lexical_decision_task_DD,2021.2.3,iPhone,62.5,,,,,,,,,,0.672,1,,,,,,,,,,,,,,,0,0.418367347,-0.312755102,1,0,0,0.672,button_right_main,0.418367347,-0.312755102,1,0,0,,0,105,105,66,1,SWEAT,C,old,m,./images/SWEAT.png,,,,,,,,,,,,,,,,,,,,,,,,,,,,,,,,,
,,,,,,,,,,,,,,,,,5c31f92c23f1c60001a6a3e8,26,2022-02-12_17h28.04.579,lexical_decision_task_DD,2021.2.3,iPhone,62.5,,,,,,,,,,0.789,1,,,,,,,,,,,,,,,0,-0.367346939,-0.325,1,0,0,0.789,button_left_main,-0.367346939,-0.325,1,0,0,,0,106,106,132,1,SCIFF,C,old,z,./images/SCIFF.png,,,,,,,,,,,,,,,,,,,,,,,,,,,,,,,,,
,,,,,,,,,,,,,,,,,5c31f92c23f1c60001a6a3e8,26,2022-02-12_17h28.04.579,lexical_decision_task_DD,2021.2.3,iPhone,62.5,,,,,,,,,,0.683,1,,,,,,,,,,,,,,,0,0.42755102,-0.309693878,1,0,0,0.683,button_right_main,0.42755102,-0.309693878,1,0,0,,0,107,107,32,1,BARREL,LB,old,m,./images/BARRELLB.png,,,,,,,,,,,,,,,,,,,,,,,,,,,,,,,,,
,,,,,,,,,,,,,,,,,5c31f92c23f1c60001a6a3e8,26,2022-02-12_17h28.04.579,lexical_decision_task_DD,2021.2.3,iPhone,62.5,,,,,,,,,,1.143,1,,,,,,,,,,,,,,,0,-0.389795918,-0.307653061,1,0,0,1.143,button_left_main,-0.389795918,-0.307653061,1,0,0,,0,108,108,88,1,GLUSH,HB,old,z,./images/GLUSHHB.png,,,,,,,,,,,,,,,,,,,,,,,,,,,,,,,,,
,,,,,,,,,,,,,,,,,5c31f92c23f1c60001a6a3e8,26,2022-02-12_17h28.04.579,lexical_decision_task_DD,2021.2.3,iPhone,62.5,,,,,,,,,,0.685,1,,,,,,,,,,,,,,,0,0.420408163,-0.315816327,1,0,0,0.685,button_right_main,0.420408163,-0.315816327,1,0,0,,0,109,109,9,1,RHINO,C,old,m,./images/RHINO.png,,,,,,,,,,,,,,,,,,,,,,,,,,,,,,,,,
,,,,,,,,,,,,,,,,,5c31f92c23f1c60001a6a3e8,26,2022-02-12_17h28.04.579,lexical_decision_task_DD,2021.2.3,iPhone,62.5,,,,,,,,,,0.909,1,,,,,,,,,,,,,,,0,-0.396938776,-0.317857143,1,0,0,0.909,button_left_main,-0.396938776,-0.317857143,1,0,0,,0,110,110,156,1,HIXES,C,old,z,./images/HIXES.png,,,,,,,,,,,,,,,,,,,,,,,,,,,,,,,,,
,,,,,,,,,,,,,,,,,5c31f92c23f1c60001a6a3e8,26,2022-02-12_17h28.04.579,lexical_decision_task_DD,2021.2.3,iPhone,62.5,,,,,,,,,,0.892,0,,,,,,,,,,,,,,,0,-0.354081633,-0.327040816,1,0,0,0.892,button_left_main,-0.354081633,-0.327040816,1,0,0,,0,111,111,25,1,WRIST,HB,old,m,./images/WRISTHB.png,,,,,,,,,,,,,,,,,,,,,,,,,,,,,,,,,
,,,,,,,,,,,,,,,,,5c31f92c23f1c60001a6a3e8,26,2022-02-12_17h28.04.579,lexical_decision_task_DD,2021.2.3,iPhone,62.5,,,,,,,,,,0.74,1,,,,,,,,,,,,,,,0,0.384693878,-0.317857143,1,0,0,0.74,button_right_main,0.384693878,-0.317857143,1,0,0,,0,112,112,18,1,JAGUAR,C,old,m,./images/JAGUAR.png,,,,,,,,,,,,,,,,,,,,,,,,,,,,,,,,,
,,,,,,,,,,,,,,,,,5c31f92c23f1c60001a6a3e8,26,2022-02-12_17h28.04.579,lexical_decision_task_DD,2021.2.3,iPhone,62.5,,,,,,,,,,0.668,1,,,,,,,,,,,,,,,0,0.460204082,-0.316836735,1,0,0,0.668,button_right_main,0.460204082,-0.316836735,1,0,0,,0,113,113,45,1,KITTEN,C,old,m,./images/KITTEN.png,,,,,,,,,,,,,,,,,,,,,,,,,,,,,,,,,
,,,,,,,,,,,,,,,,,5c31f92c23f1c60001a6a3e8,26,2022-02-12_17h28.04.579,lexical_decision_task_DD,2021.2.3,iPhone,62.5,,,,,,,,,,0.812,1,,,,,,,,,,,,,,,0,0.457142857,-0.316836735,1,0,0,0.812,button_right_main,0.457142857,-0.316836735,1,0,0,,0,114,114,21,1,KIDNEY,C,old,m,./images/KIDNEY.png,,,,,,,,,,,,,,,,,,,,,,,,,,,,,,,,,
,,,,,,,,,,,,,,,,,5c31f92c23f1c60001a6a3e8,26,2022-02-12_17h28.04.579,lexical_decision_task_DD,2021.2.3,iPhone,62.5,,,,,,,,,,0.789,1,,,,,,,,,,,,,,,0,-0.346938776,-0.334183673,1,0,0,0.789,button_left_main,-0.346938776,-0.334183673,1,0,0,,0,115,115,141,1,PLEET,C,old,z,./images/PLEET.png,,,,,,,,,,,,,,,,,,,,,,,,,,,,,,,,,
,,,,,,,,,,,,,,,,,5c31f92c23f1c60001a6a3e8,26,2022-02-12_17h28.04.579,lexical_decision_task_DD,2021.2.3,iPhone,62.5,,,,,,,,,,0.63,1,,,,,,,,,,,,,,,0,0.441836735,-0.309693878,1,0,0,0.63,button_right_main,0.441836735,-0.309693878,1,0,0,,0,116,116,24,1,SCREW,C,old,m,./images/SCREW.png,,,,,,,,,,,,,,,,,,,,,,,,,,,,,,,,,
,,,,,,,,,,,,,,,,,5c31f92c23f1c60001a6a3e8,26,2022-02-12_17h28.04.579,lexical_decision_task_DD,2021.2.3,iPhone,62.5,,,,,,,,,,1.159,1,,,,,,,,,,,,,,,0,-0.364285714,-0.309693878,1,0,0,1.159,button_left_main,-0.364285714,-0.309693878,1,0,0,,0,117,117,142,1,PLASK,HB,old,z,./images/PLASKHB.png,,,,,,,,,,,,,,,,,,,,,,,,,,,,,,,,,
,,,,,,,,,,,,,,,,,5c31f92c23f1c60001a6a3e8,26,2022-02-12_17h28.04.579,lexical_decision_task_DD,2021.2.3,iPhone,62.5,,,,,,,,,,0.661,1,,,,,,,,,,,,,,,0,0.426530612,-0.305612245,1,0,0,0.661,button_right_main,0.426530612,-0.305612245,1,0,0,,0,118,118,80,1,WEASEL,LB,old,m,./images/WEASELLB.png,,,,,,,,,,,,,,,,,,,,,,,,,,,,,,,,,
,,,,,,,,,,,,,,,,,5c31f92c23f1c60001a6a3e8,26,2022-02-12_17h28.04.579,lexical_decision_task_DD,2021.2.3,iPhone,62.5,,,,,,,,,,0.919,1,,,,,,,,,,,,,,,0,-0.369387755,-0.325,1,0,0,0.919,button_left_main,-0.369387755,-0.325,1,0,0,,0,119,119,85,1,CHULK,HB,old,z,./images/CHULKHB.png,,,,,,,,,,,,,,,,,,,,,,,,,,,,,,,,,
,,,,,,,,,,,,,,,,,5c31f92c23f1c60001a6a3e8,26,2022-02-12_17h28.04.579,lexical_decision_task_DD,2021.2.3,iPhone,62.5,,,,,,,,,,0.834,1,,,,,,,,,,,,,,,0,-0.385714286,-0.317857143,1,0,0,0.834,button_left_main,-0.385714286,-0.317857143,1,0,0,,0,120,120,92,1,PAIMS,LB,old,z,./images/PAIMSLB.png,,,,,,,,,,,,,,,,,,,,,,,,,,,,,,,,,
,,,,,,,,,,,,,,,,,5c31f92c23f1c60001a6a3e8,26,2022-02-12_17h28.04.579,lexical_decision_task_DD,2021.2.3,iPhone,62.5,,,,,,,,,,0.651,1,,,,,,,,,,,,,,,0,0.445918367,-0.289285714,1,0,0,0.651,button_right_main,0.445918367,-0.289285714,1,0,0,,0,121,121,53,1,CARPET,LB,old,m,./images/CARPETLB.png,,,,,,,,,,,,,,,,,,,,,,,,,,,,,,,,,
,,,,,,,,,,,,,,,,,5c31f92c23f1c60001a6a3e8,26,2022-02-12_17h28.04.579,lexical_decision_task_DD,2021.2.3,iPhone,62.5,,,,,,,,,,0.85,1,,,,,,,,,,,,,,,0,-0.385714286,-0.333163265,1,0,0,0.85,button_left_main,-0.385714286,-0.333163265,1,0,0,,0,122,122,101,1,GLEET,LB,old,z,./images/GLEETLB.png,,,,,,,,,,,,,,,,,,,,,,,,,,,,,,,,,
,,,,,,,,,,,,,,,,,5c31f92c23f1c60001a6a3e8,26,2022-02-12_17h28.04.579,lexical_decision_task_DD,2021.2.3,iPhone,62.5,,,,,,,,,,0.735,1,,,,,,,,,,,,,,,0,0.436734694,-0.295408163,1,0,0,0.735,button_right_main,0.436734694,-0.295408163,1,0,0,,0,123,123,56,1,PACKET,LB,old,m,./images/PACKETLB.png,,,,,,,,,,,,,,,,,,,,,,,,,,,,,,,,,
,,,,,,,,,,,,,,,,,5c31f92c23f1c60001a6a3e8,26,2022-02-12_17h28.04.579,lexical_decision_task_DD,2021.2.3,iPhone,62.5,,,,,,,,,,0.852,1,,,,,,,,,,,,,,,0,0.416326531,-0.287244898,1,0,0,0.852,button_right_main,0.416326531,-0.287244898,1,0,0,,0,124,124,10,1,BELLY,HB,old,m,./images/BELLYHB.png,,,,,,,,,,,,,,,,,,,,,,,,,,,,,,,,,
,,,,,,,,,,,,,,,,,5c31f92c23f1c60001a6a3e8,26,2022-02-12_17h28.04.579,lexical_decision_task_DD,2021.2.3,iPhone,62.5,,,,,,,,,,1.057,0,,,,,,,,,,,,,,,0,-0.401020408,-0.322959184,1,0,0,1.057,button_left_main,0.068367347,-0.420918367,1,0,0,,0,125,125,76,1,INFANT,HB,old,m,./images/INFANTHB.png,break_done_button,,,,,,,,,,,,,,,,,,,,,,,,,,,,,,,,
,,,,,,,,,,,,,,,,,5c31f92c23f1c60001a6a3e8,26,2022-02-12_17h28.04.579,lexical_decision_task_DD,2021.2.3,iPhone,62.5,,,,,,,,,,1.039,1,,,,,,,,,,,,,,,0,-0.396938776,-0.285204082,1,0,0,1.039,button_left_main,-0.396938776,-0.285204082,1,0,0,,0,126,126,157,1,INLER,HB,old,z,./images/INLERHB.png,,,,,,,,,,,,,,,,,,,,,,,,,,,,,,,,,
,,,,,,,,,,,,,,,,,5c31f92c23f1c60001a6a3e8,26,2022-02-12_17h28.04.579,lexical_decision_task_DD,2021.2.3,iPhone,62.5,,,,,,,,,,0.909,1,,,,,,,,,,,,,,,0,-0.386734694,-0.294387755,1,0,0,0.909,button_left_main,-0.386734694,-0.294387755,1,0,0,,0,127,127,122,1,BLOOT,LB,old,z,./images/BLOOTLB.png,,,,,,,,,,,,,,,,,,,,,,,,,,,,,,,,,
,,,,,,,,,,,,,,,,,5c31f92c23f1c60001a6a3e8,26,2022-02-12_17h28.04.579,lexical_decision_task_DD,2021.2.3,iPhone,62.5,,,,,,,,,,0.617,1,,,,,,,,,,,,,,,0,0.397959184,-0.31377551,1,0,0,0.617,button_right_main,0.397959184,-0.31377551,1,0,0,,0,128,128,47,1,BERRY,LB,old,m,./images/BERRYLB.png,,,,,,,,,,,,,,,,,,,,,,,,,,,,,,,,,
,,,,,,,,,,,,,,,,,5c31f92c23f1c60001a6a3e8,26,2022-02-12_17h28.04.579,lexical_decision_task_DD,2021.2.3,iPhone,62.5,,,,,,,,,,0.552,1,,,,,,,,,,,,,,,0,0.415306122,-0.30255102,1,0,0,0.552,button_right_main,0.415306122,-0.30255102,1,0,0,,0,129,129,51,1,ONION,C,old,m,./images/ONION.png,,,,,,,,,,,,,,,,,,,,,,,,,,,,,,,,,
,,,,,,,,,,,,,,,,,5c31f92c23f1c60001a6a3e8,26,2022-02-12_17h28.04.579,lexical_decision_task_DD,2021.2.3,iPhone,62.5,,,,,,,,,,0.651,1,,,,,,,,,,,,,,,0,-0.334693878,-0.321938776,1,0,0,0.651,button_left_main,-0.334693878,-0.321938776,1,0,0,,0,130,130,129,1,PRANS,C,old,z,./images/PRANS.png,,,,,,,,,,,,,,,,,,,,,,,,,,,,,,,,,
,,,,,,,,,,,,,,,,,5c31f92c23f1c60001a6a3e8,26,2022-02-12_17h28.04.579,lexical_decision_task_DD,2021.2.3,iPhone,62.5,,,,,,,,,,0.696,1,,,,,,,,,,,,,,,0,-0.334693878,-0.312755102,1,0,0,0.696,button_left_main,-0.334693878,-0.312755102,1,0,0,,0,131,131,161,1,BLAPS,LB,old,z,./images/BLAPSLB.png,,,,,,,,,,,,,,,,,,,,,,,,,,,,,,,,,
,,,,,,,,,,,,,,,,,5c31f92c23f1c60001a6a3e8,26,2022-02-12_17h28.04.579,lexical_decision_task_DD,2021.2.3,iPhone,62.5,,,,,,,,,,0.756,0,,,,,,,,,,,,,,,0,-0.355102041,-0.305612245,1,0,0,0.756,button_left_main,-0.355102041,-0.305612245,1,0,0,,0,132,132,16,1,PENCE,HB,old,m,./images/PENCEHB.png,,,,,,,,,,,,,,,,,,,,,,,,,,,,,,,,,
,,,,,,,,,,,,,,,,,5c31f92c23f1c60001a6a3e8,26,2022-02-12_17h28.04.579,lexical_decision_task_DD,2021.2.3,iPhone,62.5,,,,,,,,,,0.677,1,,,,,,,,,,,,,,,0,0.42755102,-0.300510204,1,0,0,0.677,button_right_main,0.42755102,-0.300510204,1,0,0,,0,133,133,42,1,FOLDER,C,old,m,./images/FOLDER.png,,,,,,,,,,,,,,,,,,,,,,,,,,,,,,,,,
,,,,,,,,,,,,,,,,,5c31f92c23f1c60001a6a3e8,26,2022-02-12_17h28.04.579,lexical_decision_task_DD,2021.2.3,iPhone,62.5,,,,,,,,,,0.626,1,,,,,,,,,,,,,,,0,0.431632653,-0.298469388,1,0,0,0.626,button_right_main,0.431632653,-0.298469388,1,0,0,,0,134,134,35,1,PEACH,LB,old,m,./images/PEACHLB.png,,,,,,,,,,,,,,,,,,,,,,,,,,,,,,,,,
,,,,,,,,,,,,,,,,,5c31f92c23f1c60001a6a3e8,26,2022-02-12_17h28.04.579,lexical_decision_task_DD,2021.2.3,iPhone,62.5,,,,,,,,,,0.661,1,,,,,,,,,,,,,,,0,0.439795918,-0.303571429,1,0,0,0.661,button_right_main,0.439795918,-0.303571429,1,0,0,,0,135,135,44,1,LIZARD,LB,old,m,./images/LIZARDLB.png,,,,,,,,,,,,,,,,,,,,,,,,,,,,,,,,,
,,,,,,,,,,,,,,,,,5c31f92c23f1c60001a6a3e8,26,2022-02-12_17h28.04.579,lexical_decision_task_DD,2021.2.3,iPhone,62.5,,,,,,,,,,0.784,1,,,,,,,,,,,,,,,0,-0.359183673,-0.320918367,1,0,0,0.784,button_left_main,-0.359183673,-0.320918367,1,0,0,,0,136,136,97,1,CHIDS,HB,old,z,./images/CHIDSHB.png,,,,,,,,,,,,,,,,,,,,,,,,,,,,,,,,,
,,,,,,,,,,,,,,,,,5c31f92c23f1c60001a6a3e8,26,2022-02-12_17h28.04.579,lexical_decision_task_DD,2021.2.3,iPhone,62.5,,,,,,,,,,0.8,1,,,,,,,,,,,,,,,0,0.420408163,-0.309693878,1,0,0,0.8,button_right_main,0.420408163,-0.309693878,1,0,0,,0,137,137,49,1,DRUMS,HB,old,m,./images/DRUMSHB.png,,,,,,,,,,,,,,,,,,,,,,,,,,,,,,,,,
,,,,,,,,,,,,,,,,,5c31f92c23f1c60001a6a3e8,26,2022-02-12_17h28.04.579,lexical_decision_task_DD,2021.2.3,iPhone,62.5,,,,,,,,,,0.705,1,,,,,,,,,,,,,,,0,-0.373469388,-0.295408163,1,0,0,0.705,button_left_main,-0.373469388,-0.295408163,1,0,0,,0,138,138,119,1,PAFER,LB,old,z,./images/PAFERLB.png,,,,,,,,,,,,,,,,,,,,,,,,,,,,,,,,,
,,,,,,,,,,,,,,,,,5c31f92c23f1c60001a6a3e8,26,2022-02-12_17h28.04.579,lexical_decision_task_DD,2021.2.3,iPhone,62.5,,,,,,,,,,0.719,1,,,,,,,,,,,,,,,0,-0.366326531,-0.331122449,1,0,0,0.719,button_left_main,-0.366326531,-0.331122449,1,0,0,,0,139,139,95,1,HANTY,LB,old,z,./images/HANTYLB.png,,,,,,,,,,,,,,,,,,,,,,,,,,,,,,,,,
,,,,,,,,,,,,,,,,,5c31f92c23f1c60001a6a3e8,26,2022-02-12_17h28.04.579,lexical_decision_task_DD,2021.2.3,iPhone,62.5,,,,,,,,,,1.352,1,,,,,,,,,,,,,,,0,0.384693878,-0.320918367,1,0,0,1.352,button_right_main,0.384693878,-0.320918367,1,0,0,,0,140,140,69,1,COOKER,C,old,m,./images/COOKER.png,,,,,,,,,,,,,,,,,,,,,,,,,,,,,,,,,
,,,,,,,,,,,,,,,,,5c31f92c23f1c60001a6a3e8,26,2022-02-12_17h28.04.579,lexical_decision_task_DD,2021.2.3,iPhone,62.5,,,,,,,,,,0.938,1,,,,,,,,,,,,,,,0,-0.351020408,-0.317857143,1,0,0,0.938,button_left_main,-0.351020408,-0.317857143,1,0,0,,0,141,141,158,1,EGECT,LB,old,z,./images/EGECTLB.png,,,,,,,,,,,,,,,,,,,,,,,,,,,,,,,,,
,,,,,,,,,,,,,,,,,5c31f92c23f1c60001a6a3e8,26,2022-02-12_17h28.04.579,lexical_decision_task_DD,2021.2.3,iPhone,62.5,,,,,,,,,,0.595,1,,,,,,,,,,,,,,,0,0.460204082,-0.291326531,1,0,0,0.595,button_right_main,0.460204082,-0.291326531,1,0,0,,0,142,142,57,1,MOOSE,C,old,m,./images/MOOSE.png,,,,,,,,,,,,,,,,,,,,,,,,,,,,,,,,,
,,,,,,,,,,,,,,,,,5c31f92c23f1c60001a6a3e8,26,2022-02-12_17h28.04.579,lexical_decision_task_DD,2021.2.3,iPhone,62.5,,,,,,,,,,0.905,1,,,,,,,,,,,,,,,0,0.451020408,-0.305612245,1,0,0,0.905,button_right_main,0.451020408,-0.305612245,1,0,0,,0,143,143,70,1,URINE,HB,old,m,./images/URINEHB.png,,,,,,,,,,,,,,,,,,,,,,,,,,,,,,,,,
,,,,,,,,,,,,,,,,,5c31f92c23f1c60001a6a3e8,26,2022-02-12_17h28.04.579,lexical_decision_task_DD,2021.2.3,iPhone,62.5,,,,,,,,,,0.709,1,,,,,,,,,,,,,,,0,-0.345918367,-0.311734694,1,0,0,0.709,button_left_main,-0.345918367,-0.311734694,1,0,0,,0,144,144,152,1,FRAIN,LB,old,z,./images/FRAINLB.png,,,,,,,,,,,,,,,,,,,,,,,,,,,,,,,,,
,,,,,,,,,,,,,,,,,5c31f92c23f1c60001a6a3e8,26,2022-02-12_17h28.04.579,lexical_decision_task_DD,2021.2.3,iPhone,62.5,,,,,,,,,,1.04,1,,,,,,,,,,,,,,,0,0.414285714,-0.281122449,1,0,0,1.04,button_right_main,0.414285714,-0.281122449,1,0,0,,0,145,145,40,1,SWING,HB,old,m,./images/SWINGHB.png,,,,,,,,,,,,,,,,,,,,,,,,,,,,,,,,,
,,,,,,,,,,,,,,,,,5c31f92c23f1c60001a6a3e8,26,2022-02-12_17h28.04.579,lexical_decision_task_DD,2021.2.3,iPhone,62.5,,,,,,,,,,0.907,1,,,,,,,,,,,,,,,0,-0.364285714,-0.321938776,1,0,0,0.907,button_left_main,-0.364285714,-0.321938776,1,0,0,,0,146,146,123,1,SEDGE,C,old,z,./images/SEDGE.png,,,,,,,,,,,,,,,,,,,,,,,,,,,,,,,,,
,,,,,,,,,,,,,,,,,5c31f92c23f1c60001a6a3e8,26,2022-02-12_17h28.04.579,lexical_decision_task_DD,2021.2.3,iPhone,62.5,,,,,,,,,,0.908,1,,,,,,,,,,,,,,,0,-0.358163265,-0.329081633,1,0,0,0.908,button_left_main,-0.358163265,-0.329081633,1,0,0,,0,147,147,164,1,SGREW,LB,old,z,./images/SGREWLB.png,,,,,,,,,,,,,,,,,,,,,,,,,,,,,,,,,
,,,,,,,,,,,,,,,,,5c31f92c23f1c60001a6a3e8,26,2022-02-12_17h28.04.579,lexical_decision_task_DD,2021.2.3,iPhone,62.5,,,,,,,,,,0.734,1,,,,,,,,,,,,,,,0,-0.352040816,-0.330102041,1,0,0,0.734,button_left_main,-0.352040816,-0.330102041,1,0,0,,0,148,148,153,1,CLUPS,C,old,z,./images/CLUPS.png,,,,,,,,,,,,,,,,,,,,,,,,,,,,,,,,,
,,,,,,,,,,,,,,,,,5c31f92c23f1c60001a6a3e8,26,2022-02-12_17h28.04.579,lexical_decision_task_DD,2021.2.3,iPhone,62.5,,,,,,,,,,0.887,1,,,,,,,,,,,,,,,0,0.429591837,-0.312755102,1,0,0,0.887,button_right_main,0.429591837,-0.312755102,1,0,0,,0,149,149,54,1,TRIPOD,C,old,m,./images/TRIPOD.png,,,,,,,,,,,,,,,,,,,,,,,,,,,,,,,,,
,,,,,,,,,,,,,,,,,5c31f92c23f1c60001a6a3e8,26,2022-02-12_17h28.04.579,lexical_decision_task_DD,2021.2.3,iPhone,62.5,,,,,,,,,,0.81,1,,,,,,,,,,,,,,,0,-0.364285714,-0.339285714,1,0,0,0.81,button_left_main,-0.364285714,-0.339285714,1,0,0,,0,150,150,89,1,DRIEK,LB,old,z,./images/DRIEKLB.png,,,,,,,,,,,,,,,,,,,,,,,,,,,,,,,,,
,,,,,,,,,,,,,,,,,5c31f92c23f1c60001a6a3e8,26,2022-02-12_17h28.04.579,lexical_decision_task_DD,2021.2.3,iPhone,62.5,,,,,,,,,,1.31,1,,,,,,,,,,,,,,,0,-0.369387755,-0.320918367,1,0,0,1.31,button_left_main,-0.369387755,-0.320918367,1,0,0,,0,151,151,84,1,HAXES,C,old,z,./images/HAXES.png,,,,,,,,,,,,,,,,,,,,,,,,,,,,,,,,,
,,,,,,,,,,,,,,,,,5c31f92c23f1c60001a6a3e8,26,2022-02-12_17h28.04.579,lexical_decision_task_DD,2021.2.3,iPhone,62.5,,,,,,,,,,0.874,1,,,,,,,,,,,,,,,0,-0.363265306,-0.322959184,1,0,0,0.874,button_left_main,-0.363265306,-0.322959184,1,0,0,,0,152,152,100,1,DRIBS,HB,old,z,./images/DRIBSHB.png,,,,,,,,,,,,,,,,,,,,,,,,,,,,,,,,,
,,,,,,,,,,,,,,,,,5c31f92c23f1c60001a6a3e8,26,2022-02-12_17h28.04.579,lexical_decision_task_DD,2021.2.3,iPhone,62.5,,,,,,,,,,0.718,1,,,,,,,,,,,,,,,0,0.466326531,-0.308673469,1,0,0,0.718,button_right_main,0.466326531,-0.308673469,1,0,0,,0,153,153,60,1,TWINS,C,old,m,./images/TWINS.png,,,,,,,,,,,,,,,,,,,,,,,,,,,,,,,,,
,,,,,,,,,,,,,,,,,5c31f92c23f1c60001a6a3e8,26,2022-02-12_17h28.04.579,lexical_decision_task_DD,2021.2.3,iPhone,62.5,,,,,,,,,,0.901,1,,,,,,,,,,,,,,,0,0.420408163,-0.316836735,1,0,0,0.901,button_right_main,0.420408163,-0.316836735,1,0,0,,0,154,154,73,1,SNACK,HB,old,m,./images/SNACKHB.png,,,,,,,,,,,,,,,,,,,,,,,,,,,,,,,,,
,,,,,,,,,,,,,,,,,5c31f92c23f1c60001a6a3e8,26,2022-02-12_17h28.04.579,lexical_decision_task_DD,2021.2.3,iPhone,62.5,,,,,,,,,,0.675,1,,,,,,,,,,,,,,,0,0.414285714,-0.315816327,1,0,0,0.675,button_right_main,0.414285714,-0.315816327,1,0,0,,0,155,155,14,1,PICKLE,LB,old,m,./images/PICKLELB.png,,,,,,,,,,,,,,,,,,,,,,,,,,,,,,,,,
,,,,,,,,,,,,,,,,,5c31f92c23f1c60001a6a3e8,26,2022-02-12_17h28.04.579,lexical_decision_task_DD,2021.2.3,iPhone,62.5,,,,,,,,,,0.72,1,,,,,,,,,,,,,,,0,0.41122449,-0.312755102,1,0,0,0.72,button_right_main,0.41122449,-0.312755102,1,0,0,,0,156,156,61,1,CANDLE,HB,old,m,./images/CANDLEHB.png,,,,,,,,,,,,,,,,,,,,,,,,,,,,,,,,,
,,,,,,,,,,,,,,,,,5c31f92c23f1c60001a6a3e8,26,2022-02-12_17h28.04.579,lexical_decision_task_DD,2021.2.3,iPhone,62.5,,,,,,,,,,0.739,1,,,,,,,,,,,,,,,0,-0.355102041,-0.322959184,1,0,0,0.739,button_left_main,-0.355102041,-0.322959184,1,0,0,,0,157,157,126,1,GUELS,C,old,z,./images/GUELS.png,,,,,,,,,,,,,,,,,,,,,,,,,,,,,,,,,
,,,,,,,,,,,,,,,,,5c31f92c23f1c60001a6a3e8,26,2022-02-12_17h28.04.579,lexical_decision_task_DD,2021.2.3,iPhone,62.5,,,,,,,,,,0.673,1,,,,,,,,,,,,,,,0,0.448979592,-0.317857143,1,0,0,0.673,button_right_main,0.448979592,-0.317857143,1,0,0,,0,158,158,27,1,ATTIC,C,old,m,./images/ATTIC.png,,,,,,,,,,,,,,,,,,,,,,,,,,,,,,,,,
,,,,,,,,,,,,,,,,,5c31f92c23f1c60001a6a3e8,26,2022-02-12_17h28.04.579,lexical_decision_task_DD,2021.2.3,iPhone,62.5,,,,,,,,,,1.009,1,,,,,,,,,,,,,,,0,0.420408163,-0.317857143,1,0,0,1.009,button_right_main,0.420408163,-0.317857143,1,0,0,,0,159,159,64,1,JELLY,HB,old,m,./images/JELLYHB.png,,,,,,,,,,,,,,,,,,,,,,,,,,,,,,,,,
,,,,,,,,,,,,,,,,,5c31f92c23f1c60001a6a3e8,26,2022-02-12_17h28.04.579,lexical_decision_task_DD,2021.2.3,iPhone,62.5,,,,,,,,,,0.628,1,,,,,,,,,,,,,,,0,0.423469388,-0.312755102,1,0,0,0.628,button_right_main,0.423469388,-0.312755102,1,0,0,,0,160,160,5,1,PASTA,LB,old,m,./images/PASTALB.png,,,,,,,,,,,,,,,,,,,,,,,,,,,,,,,,,
,,,,,,,,,,,,,,,,,5c31f92c23f1c60001a6a3e8,26,2022-02-12_17h28.04.579,lexical_decision_task_DD,2021.2.3,iPhone,62.5,,,,,,,,,,0.904,0,,,,,,,,,,,,,,,0,-0.352040816,-0.307653061,1,0,0,0.904,button_left_main,-0.352040816,-0.307653061,1,0,0,,0,161,161,43,1,MOSQUE,HB,old,m,./images/MOSQUEHB.png,,,,,,,,,,,,,,,,,,,,,,,,,,,,,,,,,
,,,,,,,,,,,,,,,,,5c31f92c23f1c60001a6a3e8,26,2022-02-12_17h28.04.579,lexical_decision_task_DD,2021.2.3,iPhone,62.5,,,,,,,,,,1.455,1,,,,,,,,,,,,,,,0,-0.341836735,-0.282142857,1,0,0,1.455,button_left_main,-0.341836735,-0.282142857,1,0,0,,0,162,162,162,1,LEICH,C,old,z,./images/LEICH.png,,,,,,,,,,,,,,,,,,,,,,,,,,,,,,,,,
,,,,,,,,,,,,,,,,,5c31f92c23f1c60001a6a3e8,26,2022-02-12_17h28.04.579,lexical_decision_task_DD,2021.2.3,iPhone,62.5,,,,,,,,,,0.724,1,,,,,,,,,,,,,,,0,0.415306122,-0.320918367,1,0,0,0.724,button_right_main,0.415306122,-0.320918367,1,0,0,,0,163,163,12,1,SHORE,C,old,m,./images/SHORE.png,,,,,,,,,,,,,,,,,,,,,,,,,,,,,,,,,
,,,,,,,,,,,,,,,,,5c31f92c23f1c60001a6a3e8,26,2022-02-12_17h28.04.579,lexical_decision_task_DD,2021.2.3,iPhone,62.5,,,,,,,,,,0.913,1,,,,,,,,,,,,,,,0,0.397959184,-0.321938776,1,0,0,0.913,button_right_main,0.397959184,-0.321938776,1,0,0,,0,164,164,78,1,LITTER,C,old,m,./images/LITTER.png,,,,,,,,,,,,,,,,,,,,,,,,,,,,,,,,,
,,,,,,,,,,,,,,,,,5c31f92c23f1c60001a6a3e8,26,2022-02-12_17h28.04.579,lexical_decision_task_DD,2021.2.3,iPhone,62.5,,,,,,,,,,0.99,1,,,,,,,,,,,,,,,0,-0.368367347,-0.317857143,1,0,0,0.99,button_left_main,-0.368367347,-0.317857143,1,0,0,,0,165,165,109,1,BURGE,HB,old,z,./images/BURGEHB.png,,,,,,,,,,,,,,,,,,,,,,,,,,,,,,,,,
,,,,,,,,,,,,,,,,,5c31f92c23f1c60001a6a3e8,26,2022-02-12_17h28.04.579,lexical_decision_task_DD,2021.2.3,iPhone,62.5,,,,,,,,,,0.773,1,,,,,,,,,,,,,,,0,-0.346938776,-0.315816327,1,0,0,0.773,button_left_main,-0.346938776,-0.315816327,1,0,0,,0,166,166,125,1,MOOKY,LB,old,z,./images/MOOKYLB.png,,,,,,,,,,,,,,,,,,,,,,,,,,,,,,,,,
,,,,,,,,,,,,,,,,,5c31f92c23f1c60001a6a3e8,26,2022-02-12_17h28.04.579,lexical_decision_task_DD,2021.2.3,iPhone,62.5,,,,,,,,,,0.575,1,,,,,,,,,,,,,,,0,0.440816327,-0.319897959,1,0,0,0.575,button_right_main,0.440816327,-0.319897959,1,0,0,,0,167,167,3,1,FINGER,C,old,m,./images/FINGER.png,,,,,,,,,,,,,,,,,,,,,,,,,,,,,,,,,
,,,,,,,,,,,,,,,,,5c31f92c23f1c60001a6a3e8,26,2022-02-12_17h28.04.579,lexical_decision_task_DD,2021.2.3,iPhone,62.5,,,,,,,,,,,,,,,,,,,,,,,,,,,,,,,,,,,,,,,,,,,,,,How likely will it be that you will recognize the words presented clearly on a scale of 0 (not likely) to 100 (most likely)?,,,,,-0.002040816,-0.404591837,1,0,0,jol_adv,6,7.339,0,0,0,0,1,,,,,,,,,,,,,,,,,,,
,,,,,,,,,,,,,,,,,5c31f92c23f1c60001a6a3e8,26,2022-02-12_17h28.04.579,lexical_decision_task_DD,2021.2.3,iPhone,62.5,,,,,,,,,,,,,,,,,,,,,,,,,,,,,,,,,,,,,,,,,,,,,,How likely will it be that you will recognize the words presented very blurred on a scale of 0 (not likely) to 100 (most likely)?,,,,,,,,,,,2,8.722,0,1,1,2,1,,,,,,,,,,,,,,,,,,,
,,,,,,,,,,,,,,,,,5c31f92c23f1c60001a6a3e8,26,2022-02-12_17h28.04.579,lexical_decision_task_DD,2021.2.3,iPhone,62.5,,,,,,,,,,,,,,,,,,,,,,,,,,,,,,,,,,,,,,,,,,,,,,How likely will it be that you will recognize the words presented slighly blurred on a scale of 0 (not likely) to 100 (most likely)?,,,,,,,,,,,5,5.676,0,2,2,1,1,,,,,,,,,,,,,,,,,,,
,0.123469388,-0.420918367,1,0,0,instr_done_button,,,,,,1,test,"In the next phase you will be presented with the words from the the first phase. Your job is to decide whether you remember seeing the word or not. If you remember seeing the word press ""old"" or type ""m"". If you do not remember seeing the word press ""new"" or type ""z"". Please press the space bar or click on continue to begin. ",,,5c31f92c23f1c60001a6a3e8,26,2022-02-12_17h28.04.579,lexical_decision_task_DD,2021.2.3,iPhone,62.5,,,,,,,,,,,,,,,,,,,,,,,,,,,,,,,,,,,,,,,,,,,,,,,,,,,,,,,,,,,,,,,,0,0,0,0,1,,,,,,,,,,,,,,
,0.028571429,-0.404591837,1,0,0,instr_done_button,,,,,,1,test,"In the next phase you will be presented with the words from the the first phase. Your job is to decide whether you remember seeing the word or not. If you remember seeing the word press ""old"" or type ""m"". If you do not remember seeing the word press ""new"" or type ""z"". Please press the space bar or click on continue to begin. ",,,5c31f92c23f1c60001a6a3e8,26,2022-02-12_17h28.04.579,lexical_decision_task_DD,2021.2.3,iPhone,62.5,,,,,,,,,,,,,,,,,,,,,,,,,,,,,,,,,,,,,,,,,,,,,,,,,,,,,,,,,,,,,,,,1,0,1,0,1,,,,,,,,,,,,,,
,0.029591837,-0.398469388,1,0,0,instr_done_button,,,,,,1,test,"In the next phase you will be presented with the words from the the first phase. Your job is to decide whether you remember seeing the word or not. If you remember seeing the word press ""old"" or type ""m"". If you do not remember seeing the word press ""new"" or type ""z"". Please press the space bar or click on continue to begin. ",,,5c31f92c23f1c60001a6a3e8,26,2022-02-12_17h28.04.579,lexical_decision_task_DD,2021.2.3,iPhone,62.5,,,,,,,,,,,,,,,,,,,,,,,,,,,,,,,,,,,,,,,,,,,,,,,,,,,,,,,,,,,,,,,,2,0,2,0,1,,,,,,,,,,,,,,
,0.078571429,-0.421938776,1,0,0,instr_done_button,,,,,,1,test,"In the next phase you will be presented with the words from the the first phase. Your job is to decide whether you remember seeing the word or not. If you remember seeing the word press ""old"" or type ""m"". If you do not remember seeing the word press ""new"" or type ""z"". Please press the space bar or click on continue to begin. ",,,5c31f92c23f1c60001a6a3e8,26,2022-02-12_17h28.04.579,lexical_decision_task_DD,2021.2.3,iPhone,62.5,,,,,,,,,,,,,,,,,,,,,,,,,,,,,,,,,,,,,,,,,,,,,,,,,,,,,,,,,,,,,,,,3,0,3,0,1,,,,,,,,,,,,,,
,0.003061224,-0.41377551,1,0,0,instr_done_button,,,,,,1,test,"In the next phase you will be presented with the words from the the first phase. Your job is to decide whether you remember seeing the word or not. If you remember seeing the word press ""old"" or type ""m"". If you do not remember seeing the word press ""new"" or type ""z"". Please press the space bar or click on continue to begin. ",,,5c31f92c23f1c60001a6a3e8,26,2022-02-12_17h28.04.579,lexical_decision_task_DD,2021.2.3,iPhone,62.5,,,,,,,,,,,,,,,,,,,,,,,,,,,,,,,,,,,,,,,,,,,,,,,,,,,,,,,,,,,,,,,,4,0,4,0,1,,,,,,,,,,,,,,
,,,,,,,,,,,,,,,,,5c31f92c23f1c60001a6a3e8,26,2022-02-12_17h28.04.579,lexical_decision_task_DD,2021.2.3,iPhone,62.5,,,,,,,,,,1.261,1,,,,,,,,,,,,,,,,,,,,,,,-0.425510204,-0.316836735,1,0,0,,,,,,,CLOTH,LB,z,m,./images/CLOTHLB.png,,,,,,,,,,,,,,,,,,,,,0,-0.425510204,-0.316836735,1,0,0,1.261,button_left_test,0,0,0,107,1
,,,,,,,,,,,,,,,,,5c31f92c23f1c60001a6a3e8,26,2022-02-12_17h28.04.579,lexical_decision_task_DD,2021.2.3,iPhone,62.5,,,,,,,,,,1.046,0,,,,,,,,,,,,,,,,,,,,,,,0.429591837,-0.319897959,1,0,0,,,,,,,BUTTER,C,z,m,./images/BUTTER.png,,,,,,,,,,,,,,,,,,,,,0,0.429591837,-0.319897959,1,0,0,1.046,button_right_test,0,1,1,111,1
,,,,,,,,,,,,,,,,,5c31f92c23f1c60001a6a3e8,26,2022-02-12_17h28.04.579,lexical_decision_task_DD,2021.2.3,iPhone,62.5,,,,,,,,,,1.886,1,,,,,,,,,,,,,,,,,,,,,,,-0.37244898,-0.326020408,1,0,0,,,,,,,POSTER,LB,z,m,./images/POSTERLB.png,,,,,,,,,,,,,,,,,,,,,0,-0.37244898,-0.326020408,1,0,0,1.886,button_left_test,0,2,2,137,1
,,,,,,,,,,,,,,,,,5c31f92c23f1c60001a6a3e8,26,2022-02-12_17h28.04.579,lexical_decision_task_DD,2021.2.3,iPhone,62.5,,,,,,,,,,1.492,1,,,,,,,,,,,,,,,,,,,,,,,0.42244898,-0.315816327,1,0,0,,,,,,,FINGER,C,m,m,./images/FINGER.png,,,,,,,,,,,,,,,,,,,,,0,0.42244898,-0.315816327,1,0,0,1.492,button_right_test,0,3,3,3,1
,,,,,,,,,,,,,,,,,5c31f92c23f1c60001a6a3e8,26,2022-02-12_17h28.04.579,lexical_decision_task_DD,2021.2.3,iPhone,62.5,,,,,,,,,,1.1,1,,,,,,,,,,,,,,,,,,,,,,,-0.358163265,-0.316836735,1,0,0,,,,,,,ALLEY,HB,z,m,./images/ALLEYHB.png,,,,,,,,,,,,,,,,,,,,,0,-0.358163265,-0.316836735,1,0,0,1.1,button_left_test,0,4,4,139,1
,,,,,,,,,,,,,,,,,5c31f92c23f1c60001a6a3e8,26,2022-02-12_17h28.04.579,lexical_decision_task_DD,2021.2.3,iPhone,62.5,,,,,,,,,,1.056,1,,,,,,,,,,,,,,,,,,,,,,,0.443877551,-0.329081633,1,0,0,,,,,,,PICKLE,LB,m,m,./images/PICKLELB.png,,,,,,,,,,,,,,,,,,,,,0,0.443877551,-0.329081633,1,0,0,1.056,button_right_test,0,5,5,14,1
,,,,,,,,,,,,,,,,,5c31f92c23f1c60001a6a3e8,26,2022-02-12_17h28.04.579,lexical_decision_task_DD,2021.2.3,iPhone,62.5,,,,,,,,,,0.869,1,,,,,,,,,,,,,,,,,,,,,,,-0.341836735,-0.346428571,1,0,0,,,,,,,MIDGET,HB,z,m,./images/MIDGETHB.png,,,,,,,,,,,,,,,,,,,,,0,-0.341836735,-0.346428571,1,0,0,0.869,button_left_test,0,6,6,160,1
,,,,,,,,,,,,,,,,,5c31f92c23f1c60001a6a3e8,26,2022-02-12_17h28.04.579,lexical_decision_task_DD,2021.2.3,iPhone,62.5,,,,,,,,,,0.917,1,,,,,,,,,,,,,,,,,,,,,,,-0.35,-0.348469388,1,0,0,,,,,,,BUNNY,HB,z,m,./images/BUNNYHB.png,,,,,,,,,,,,,,,,,,,,,0,-0.35,-0.348469388,1,0,0,0.917,button_left_test,0,7,7,97,1
,,,,,,,,,,,,,,,,,5c31f92c23f1c60001a6a3e8,26,2022-02-12_17h28.04.579,lexical_decision_task_DD,2021.2.3,iPhone,62.5,,,,,,,,,,1.585,1,,,,,,,,,,,,,,,,,,,,,,,-0.35,-0.311734694,1,0,0,,,,,,,GARDEN,HB,z,m,./images/GARDENHB.png,,,,,,,,,,,,,,,,,,,,,0,-0.35,-0.311734694,1,0,0,1.585,button_left_test,0,8,8,94,1
,,,,,,,,,,,,,,,,,5c31f92c23f1c60001a6a3e8,26,2022-02-12_17h28.04.579,lexical_decision_task_DD,2021.2.3,iPhone,62.5,,,,,,,,,,1.039,1,,,,,,,,,,,,,,,,,,,,,,,0.412244898,-0.312755102,1,0,0,,,,,,,RHINO,C,m,m,./images/RHINO.png,,,,,,,,,,,,,,,,,,,,,0,0.412244898,-0.312755102,1,0,0,1.039,button_right_test,0,9,9,9,1
,,,,,,,,,,,,,,,,,5c31f92c23f1c60001a6a3e8,26,2022-02-12_17h28.04.579,lexical_decision_task_DD,2021.2.3,iPhone,62.5,,,,,,,,,,0.986,1,,,,,,,,,,,,,,,,,,,,,,,-0.35,-0.344387755,1,0,0,,,,,,,BASKET,LB,z,m,./images/BASKETLB.png,,,,,,,,,,,,,,,,,,,,,0,-0.35,-0.344387755,1,0,0,0.986,button_left_test,0,10,10,128,1
,,,,,,,,,,,,,,,,,5c31f92c23f1c60001a6a3e8,26,2022-02-12_17h28.04.579,lexical_decision_task_DD,2021.2.3,iPhone,62.5,,,,,,,,,,0.818,1,,,,,,,,,,,,,,,,,,,,,,,-0.352040816,-0.329081633,1,0,0,,,,,,,ARTIST,HB,z,m,./images/ARTISTHB.png,,,,,,,,,,,,,,,,,,,,,0,-0.352040816,-0.329081633,1,0,0,0.818,button_left_test,0,11,11,145,1
,,,,,,,,,,,,,,,,,5c31f92c23f1c60001a6a3e8,26,2022-02-12_17h28.04.579,lexical_decision_task_DD,2021.2.3,iPhone,62.5,,,,,,,,,,1.443,0,,,,,,,,,,,,,,,,,,,,,,,0.424489796,-0.325,1,0,0,,,,,,,STEAK,HB,z,m,./images/STEAKHB.png,,,,,,,,,,,,,,,,,,,,,0,0.424489796,-0.325,1,0,0,1.443,button_right_test,0,12,12,115,1
,,,,,,,,,,,,,,,,,5c31f92c23f1c60001a6a3e8,26,2022-02-12_17h28.04.579,lexical_decision_task_DD,2021.2.3,iPhone,62.5,,,,,,,,,,1.639,1,,,,,,,,,,,,,,,,,,,,,,,0.439795918,-0.335204082,1,0,0,,,,,,,BONNET,LB,m,m,./images/BONNETLB.png,,,,,,,,,,,,,,,,,,,,,0,0.439795918,-0.335204082,1,0,0,1.639,button_right_test,0,13,13,11,1
,,,,,,,,,,,,,,,,,5c31f92c23f1c60001a6a3e8,26,2022-02-12_17h28.04.579,lexical_decision_task_DD,2021.2.3,iPhone,62.5,,,,,,,,,,1.114,1,,,,,,,,,,,,,,,,,,,,,,,-0.346938776,-0.333163265,1,0,0,,,,,,,RULER,HB,z,m,./images/RULERHB.png,,,,,,,,,,,,,,,,,,,,,0,-0.346938776,-0.333163265,1,0,0,1.114,button_left_test,0,14,14,163,1
,,,,,,,,,,,,,,,,,5c31f92c23f1c60001a6a3e8,26,2022-02-12_17h28.04.579,lexical_decision_task_DD,2021.2.3,iPhone,62.5,,,,,,,,,,0.873,1,,,,,,,,,,,,,,,,,,,,,,,-0.351020408,-0.357653061,1,0,0,,,,,,,BOILER,C,z,m,./images/BOILER.png,,,,,,,,,,,,,,,,,,,,,0,-0.351020408,-0.357653061,1,0,0,0.873,button_left_test,0,15,15,120,1
,,,,,,,,,,,,,,,,,5c31f92c23f1c60001a6a3e8,26,2022-02-12_17h28.04.579,lexical_decision_task_DD,2021.2.3,iPhone,62.5,,,,,,,,,,1.191,1,,,,,,,,,,,,,,,,,,,,,,,-0.348979592,-0.357653061,1,0,0,,,,,,,WHEEL,LB,z,m,./images/WHEELLB.png,,,,,,,,,,,,,,,,,,,,,0,-0.348979592,-0.357653061,1,0,0,1.191,button_left_test,0,16,16,161,1
,,,,,,,,,,,,,,,,,5c31f92c23f1c60001a6a3e8,26,2022-02-12_17h28.04.579,lexical_decision_task_DD,2021.2.3,iPhone,62.5,,,,,,,,,,0.888,1,,,,,,,,,,,,,,,,,,,,,,,-0.37755102,-0.346428571,1,0,0,,,,,,,MONKEY,C,z,m,./images/MONKEY.png,,,,,,,,,,,,,,,,,,,,,0,-0.37755102,-0.346428571,1,0,0,0.888,button_left_test,0,17,17,129,1
,,,,,,,,,,,,,,,,,5c31f92c23f1c60001a6a3e8,26,2022-02-12_17h28.04.579,lexical_decision_task_DD,2021.2.3,iPhone,62.5,,,,,,,,,,1.024,1,,,,,,,,,,,,,,,,,,,,,,,-0.373469388,-0.360714286,1,0,0,,,,,,,BLOKE,C,z,m,./images/BLOKE.png,,,,,,,,,,,,,,,,,,,,,0,-0.373469388,-0.360714286,1,0,0,1.024,button_left_test,0,18,18,96,1
,,,,,,,,,,,,,,,,,5c31f92c23f1c60001a6a3e8,26,2022-02-12_17h28.04.579,lexical_decision_task_DD,2021.2.3,iPhone,62.5,,,,,,,,,,0.895,1,,,,,,,,,,,,,,,,,,,,,,,0.415306122,-0.316836735,1,0,0,,,,,,,SCREW,C,m,m,./images/SCREW.png,,,,,,,,,,,,,,,,,,,,,0,0.415306122,-0.316836735,1,0,0,0.895,button_right_test,0,19,19,24,1
,,,,,,,,,,,,,,,,,5c31f92c23f1c60001a6a3e8,26,2022-02-12_17h28.04.579,lexical_decision_task_DD,2021.2.3,iPhone,62.5,,,,,,,,,,1.206,1,,,,,,,,,,,,,,,,,,,,,,,0.402040816,-0.344387755,1,0,0,,,,,,,MOOSE,C,m,m,./images/MOOSE.png,,,,,,,,,,,,,,,,,,,,,0,0.402040816,-0.344387755,1,0,0,1.206,button_right_test,0,20,20,57,1
,,,,,,,,,,,,,,,,,5c31f92c23f1c60001a6a3e8,26,2022-02-12_17h28.04.579,lexical_decision_task_DD,2021.2.3,iPhone,62.5,,,,,,,,,,0.804,1,,,,,,,,,,,,,,,,,,,,,,,0.405102041,-0.335204082,1,0,0,,,,,,,CANDLE,HB,m,m,./images/CANDLEHB.png,,,,,,,,,,,,,,,,,,,,,0,0.405102041,-0.335204082,1,0,0,0.804,button_right_test,0,21,21,61,1
,,,,,,,,,,,,,,,,,5c31f92c23f1c60001a6a3e8,26,2022-02-12_17h28.04.579,lexical_decision_task_DD,2021.2.3,iPhone,62.5,,,,,,,,,,1.309,1,,,,,,,,,,,,,,,,,,,,,,,-0.373469388,-0.315816327,1,0,0,,,,,,,BAKER,C,z,m,./images/BAKER.png,,,,,,,,,,,,,,,,,,,,,0,-0.373469388,-0.315816327,1,0,0,1.309,button_left_test,0,22,22,147,1
,,,,,,,,,,,,,,,,,5c31f92c23f1c60001a6a3e8,26,2022-02-12_17h28.04.579,lexical_decision_task_DD,2021.2.3,iPhone,62.5,,,,,,,,,,0.715,1,,,,,,,,,,,,,,,,,,,,,,,0.429591837,-0.331122449,1,0,0,,,,,,,PEACH,LB,m,m,./images/PEACHLB.png,,,,,,,,,,,,,,,,,,,,,0,0.429591837,-0.331122449,1,0,0,0.715,button_right_test,0,23,23,35,1
,,,,,,,,,,,,,,,,,5c31f92c23f1c60001a6a3e8,26,2022-02-12_17h28.04.579,lexical_decision_task_DD,2021.2.3,iPhone,62.5,,,,,,,,,,1.023,1,,,,,,,,,,,,,,,,,,,,,,,-0.366326531,-0.334183673,1,0,0,,,,,,,CHALK,HB,z,m,./images/CHALKHB.png,,,,,,,,,,,,,,,,,,,,,0,-0.366326531,-0.334183673,1,0,0,1.023,button_left_test,0,24,24,109,1
,,,,,,,,,,,,,,,,,5c31f92c23f1c60001a6a3e8,26,2022-02-12_17h28.04.579,lexical_decision_task_DD,2021.2.3,iPhone,62.5,,,,,,,,,,1.476,1,,,,,,,,,,,,,,,,,,,,,,,-0.369387755,-0.320918367,1,0,0,,,,,,,POKER,HB,z,m,./images/POKERHB.png,,,,,,,,,,,,,,,,,,,,,0,-0.369387755,-0.320918367,1,0,0,1.476,button_left_test,0,25,25,151,1
,,,,,,,,,,,,,,,,,5c31f92c23f1c60001a6a3e8,26,2022-02-12_17h28.04.579,lexical_decision_task_DD,2021.2.3,iPhone,62.5,,,,,,,,,,1.065,1,,,,,,,,,,,,,,,,,,,,,,,0.423469388,-0.335204082,1,0,0,,,,,,,SAILOR,HB,m,m,./images/SAILORHB.png,,,,,,,,,,,,,,,,,,,,,0,0.423469388,-0.335204082,1,0,0,1.065,button_right_test,0,26,26,67,1
,,,,,,,,,,,,,,,,,5c31f92c23f1c60001a6a3e8,26,2022-02-12_17h28.04.579,lexical_decision_task_DD,2021.2.3,iPhone,62.5,,,,,,,,,,0.884,1,,,,,,,,,,,,,,,,,,,,,,,-0.383673469,-0.317857143,1,0,0,,,,,,,CHERRY,C,z,m,./images/CHERRY.png,,,,,,,,,,,,,,,,,,,,,0,-0.383673469,-0.317857143,1,0,0,0.884,button_left_test,0,27,27,138,1
,,,,,,,,,,,,,,,,,5c31f92c23f1c60001a6a3e8,26,2022-02-12_17h28.04.579,lexical_decision_task_DD,2021.2.3,iPhone,62.5,,,,,,,,,,0.984,1,,,,,,,,,,,,,,,,,,,,,,,0.448979592,-0.327040816,1,0,0,,,,,,,TRIPOD,C,m,m,./images/TRIPOD.png,,,,,,,,,,,,,,,,,,,,,0,0.448979592,-0.327040816,1,0,0,0.984,button_right_test,0,28,28,54,1
,,,,,,,,,,,,,,,,,5c31f92c23f1c60001a6a3e8,26,2022-02-12_17h28.04.579,lexical_decision_task_DD,2021.2.3,iPhone,62.5,,,,,,,,,,0.913,1,,,,,,,,,,,,,,,,,,,,,,,0.441836735,-0.327040816,1,0,0,,,,,,,BURIAL,LB,m,m,./images/BURIALLB.png,,,,,,,,,,,,,,,,,,,,,0,0.441836735,-0.327040816,1,0,0,0.913,button_right_test,0,29,29,59,1
,,,,,,,,,,,,,,,,,5c31f92c23f1c60001a6a3e8,26,2022-02-12_17h28.04.579,lexical_decision_task_DD,2021.2.3,iPhone,62.5,,,,,,,,,,0.895,1,,,,,,,,,,,,,,,,,,,,,,,0.402040816,-0.330102041,1,0,0,,,,,,,LADDER,LB,m,m,./images/LADDERLB.png,,,,,,,,,,,,,,,,,,,,,0,0.402040816,-0.330102041,1,0,0,0.895,button_right_test,0,30,30,38,1
,,,,,,,,,,,,,,,,,5c31f92c23f1c60001a6a3e8,26,2022-02-12_17h28.04.579,lexical_decision_task_DD,2021.2.3,iPhone,62.5,,,,,,,,,,0.874,1,,,,,,,,,,,,,,,,,,,,,,,-0.363265306,-0.315816327,1,0,0,,,,,,,BAMBOO,LB,z,m,./images/BAMBOOLB.png,,,,,,,,,,,,,,,,,,,,,0,-0.363265306,-0.315816327,1,0,0,0.874,button_left_test,0,31,31,89,1
,,,,,,,,,,,,,,,,,5c31f92c23f1c60001a6a3e8,26,2022-02-12_17h28.04.579,lexical_decision_task_DD,2021.2.3,iPhone,62.5,,,,,,,,,,2.238,1,,,,,,,,,,,,,,,,,,,,,,,-0.364285714,-0.357653061,1,0,0,,,,,,,CASINO,HB,z,m,./images/CASINOHB.png,,,,,,,,,,,,,,,,,,,,,0,-0.364285714,-0.357653061,1,0,0,2.238,button_left_test,0,32,32,112,1
,,,,,,,,,,,,,,,,,5c31f92c23f1c60001a6a3e8,26,2022-02-12_17h28.04.579,lexical_decision_task_DD,2021.2.3,iPhone,62.5,,,,,,,,,,0.822,1,,,,,,,,,,,,,,,,,,,,,,,0.433673469,-0.315816327,1,0,0,,,,,,,LIZARD,LB,m,m,./images/LIZARDLB.png,,,,,,,,,,,,,,,,,,,,,0,0.433673469,-0.315816327,1,0,0,0.822,button_right_test,0,33,33,44,1
,,,,,,,,,,,,,,,,,5c31f92c23f1c60001a6a3e8,26,2022-02-12_17h28.04.579,lexical_decision_task_DD,2021.2.3,iPhone,62.5,,,,,,,,,,1.606,0,,,,,,,,,,,,,,,,,,,,,,,0.416326531,-0.312755102,1,0,0,,,,,,,BROOM,C,z,m,./images/BROOM.png,,,,,,,,,,,,,,,,,,,,,0,0.416326531,-0.312755102,1,0,0,1.606,button_right_test,0,34,34,162,1
,,,,,,,,,,,,,,,,,5c31f92c23f1c60001a6a3e8,26,2022-02-12_17h28.04.579,lexical_decision_task_DD,2021.2.3,iPhone,62.5,,,,,,,,,,0.782,1,,,,,,,,,,,,,,,,,,,,,,,0.454081633,-0.299489796,1,0,0,,,,,,,MIRROR,C,m,m,./images/MIRROR.png,,,,,,,,,,,,,,,,,,,,,0,0.454081633,-0.299489796,1,0,0,0.782,button_right_test,0,35,35,63,1
,,,,,,,,,,,,,,,,,5c31f92c23f1c60001a6a3e8,26,2022-02-12_17h28.04.579,lexical_decision_task_DD,2021.2.3,iPhone,62.5,,,,,,,,,,1.065,1,,,,,,,,,,,,,,,,,,,,,,,0.41122449,-0.346428571,1,0,0,,,,,,,DRUMS,HB,m,m,./images/DRUMSHB.png,,,,,,,,,,,,,,,,,,,,,0,0.41122449,-0.346428571,1,0,0,1.065,button_right_test,0,36,36,49,1
,,,,,,,,,,,,,,,,,5c31f92c23f1c60001a6a3e8,26,2022-02-12_17h28.04.579,lexical_decision_task_DD,2021.2.3,iPhone,62.5,,,,,,,,,,1.442,0,,,,,,,,,,,,,,,,,,,,,,,0.392857143,-0.351530612,1,0,0,,,,,,,PILOT,LB,z,m,./images/PILOTLB.png,,,,,,,,,,,,,,,,,,,,,0,0.392857143,-0.351530612,1,0,0,1.442,button_right_test,0,37,37,134,1
,,,,,,,,,,,,,,,,,5c31f92c23f1c60001a6a3e8,26,2022-02-12_17h28.04.579,lexical_decision_task_DD,2021.2.3,iPhone,62.5,,,,,,,,,,0.963,1,,,,,,,,,,,,,,,,,,,,,,,-0.383673469,-0.326020408,1,0,0,,,,,,,GRAPE,HB,z,m,./images/GRAPEHB.png,,,,,,,,,,,,,,,,,,,,,0,-0.383673469,-0.326020408,1,0,0,0.963,button_left_test,0,38,38,100,1
,,,,,,,,,,,,,,,,,5c31f92c23f1c60001a6a3e8,26,2022-02-12_17h28.04.579,lexical_decision_task_DD,2021.2.3,iPhone,62.5,,,,,,,,,,1.604,1,,,,,,,,,,,,,,,,,,,,,,,0.415306122,-0.319897959,1,0,0,,,,,,,QUILL,HB,m,m,./images/QUILLHB.png,,,,,,,,,,,,,,,,,,,,,0,0.415306122,-0.319897959,1,0,0,1.604,button_right_test,0,39,39,31,1
,,,,,,,,,,,,,,,,,5c31f92c23f1c60001a6a3e8,26,2022-02-12_17h28.04.579,lexical_decision_task_DD,2021.2.3,iPhone,62.5,,,,,,,,,,1.655,1,,,,,,,,,,,,,,,,,,,,,,,-0.324489796,-0.319897959,1,0,0,,,,,,,MUMMY,HB,z,m,./images/MUMMYHB.png,,,,,,,,,,,,,,,,,,,,,0,-0.324489796,-0.319897959,1,0,0,1.655,button_left_test,0,40,40,130,1
,,,,,,,,,,,,,,,,,5c31f92c23f1c60001a6a3e8,26,2022-02-12_17h28.04.579,lexical_decision_task_DD,2021.2.3,iPhone,62.5,,,,,,,,,,0.865,1,,,,,,,,,,,,,,,,,,,,,,,0.02755102,-0.41377551,1,0,0,,,,,,,BARREL,LB,m,m,./images/BARRELLB.png,break_done_button,,,,,,,,,,,,,,,,,,,,0,0.454081633,-0.329081633,1,0,0,0.865,button_right_test,0,41,41,32,1
,,,,,,,,,,,,,,,,,5c31f92c23f1c60001a6a3e8,26,2022-02-12_17h28.04.579,lexical_decision_task_DD,2021.2.3,iPhone,62.5,,,,,,,,,,0.839,0,,,,,,,,,,,,,,,,,,,,,,,0.429591837,-0.298469388,1,0,0,,,,,,,PISTOL,LB,z,m,./images/PISTOLLB.png,,,,,,,,,,,,,,,,,,,,,0,0.429591837,-0.298469388,1,0,0,0.839,button_right_test,0,42,42,113,1
,,,,,,,,,,,,,,,,,5c31f92c23f1c60001a6a3e8,26,2022-02-12_17h28.04.579,lexical_decision_task_DD,2021.2.3,iPhone,62.5,,,,,,,,,,0.717,0,,,,,,,,,,,,,,,,,,,,,,,0.440816327,-0.316836735,1,0,0,,,,,,,DRILL,C,z,m,./images/DRILL.png,,,,,,,,,,,,,,,,,,,,,0,0.440816327,-0.316836735,1,0,0,0.717,button_right_test,0,43,43,165,1
,,,,,,,,,,,,,,,,,5c31f92c23f1c60001a6a3e8,26,2022-02-12_17h28.04.579,lexical_decision_task_DD,2021.2.3,iPhone,62.5,,,,,,,,,,0.82,1,,,,,,,,,,,,,,,,,,,,,,,-0.360204082,-0.296428571,1,0,0,,,,,,,CANOE,HB,z,m,./images/CANOEHB.png,,,,,,,,,,,,,,,,,,,,,0,-0.360204082,-0.296428571,1,0,0,0.82,button_left_test,0,44,44,142,1
,,,,,,,,,,,,,,,,,5c31f92c23f1c60001a6a3e8,26,2022-02-12_17h28.04.579,lexical_decision_task_DD,2021.2.3,iPhone,62.5,,,,,,,,,,0.815,1,,,,,,,,,,,,,,,,,,,,,,,0.423469388,-0.304591837,1,0,0,,,,,,,WRIST,HB,m,m,./images/WRISTHB.png,,,,,,,,,,,,,,,,,,,,,0,0.423469388,-0.304591837,1,0,0,0.815,button_right_test,0,45,45,25,1
,,,,,,,,,,,,,,,,,5c31f92c23f1c60001a6a3e8,26,2022-02-12_17h28.04.579,lexical_decision_task_DD,2021.2.3,iPhone,62.5,,,,,,,,,,1.272,1,,,,,,,,,,,,,,,,,,,,,,,0.402040816,-0.305612245,1,0,0,,,,,,,BELLY,HB,m,m,./images/BELLYHB.png,,,,,,,,,,,,,,,,,,,,,0,0.402040816,-0.305612245,1,0,0,1.272,button_right_test,0,46,46,10,1
,,,,,,,,,,,,,,,,,5c31f92c23f1c60001a6a3e8,26,2022-02-12_17h28.04.579,lexical_decision_task_DD,2021.2.3,iPhone,62.5,,,,,,,,,,0.826,1,,,,,,,,,,,,,,,,,,,,,,,0.428571429,-0.307653061,1,0,0,,,,,,,MOTOR,HB,m,m,./images/MOTORHB.png,,,,,,,,,,,,,,,,,,,,,0,0.428571429,-0.307653061,1,0,0,0.826,button_right_test,0,47,47,13,1
,,,,,,,,,,,,,,,,,5c31f92c23f1c60001a6a3e8,26,2022-02-12_17h28.04.579,lexical_decision_task_DD,2021.2.3,iPhone,62.5,,,,,,,,,,0.812,1,,,,,,,,,,,,,,,,,,,,,,,0.418367347,-0.31377551,1,0,0,,,,,,,ATTIC,C,m,m,./images/ATTIC.png,,,,,,,,,,,,,,,,,,,,,0,0.418367347,-0.31377551,1,0,0,0.812,button_right_test,0,48,48,27,1
,,,,,,,,,,,,,,,,,5c31f92c23f1c60001a6a3e8,26,2022-02-12_17h28.04.579,lexical_decision_task_DD,2021.2.3,iPhone,62.5,,,,,,,,,,0.837,1,,,,,,,,,,,,,,,,,,,,,,,-0.376530612,-0.312755102,1,0,0,,,,,,,HEATER,LB,z,m,./images/HEATERLB.png,,,,,,,,,,,,,,,,,,,,,0,-0.376530612,-0.312755102,1,0,0,0.837,button_left_test,0,49,49,140,1
,,,,,,,,,,,,,,,,,5c31f92c23f1c60001a6a3e8,26,2022-02-12_17h28.04.579,lexical_decision_task_DD,2021.2.3,iPhone,62.5,,,,,,,,,,1.007,0,,,,,,,,,,,,,,,,,,,,,,,0.410204082,-0.319897959,1,0,0,,,,,,,STOVE,LB,z,m,./images/STOVELB.png,,,,,,,,,,,,,,,,,,,,,0,0.410204082,-0.319897959,1,0,0,1.007,button_right_test,0,50,50,86,1
,,,,,,,,,,,,,,,,,5c31f92c23f1c60001a6a3e8,26,2022-02-12_17h28.04.579,lexical_decision_task_DD,2021.2.3,iPhone,62.5,,,,,,,,,,1.119,1,,,,,,,,,,,,,,,,,,,,,,,-0.348979592,-0.30255102,1,0,0,,,,,,,CLOWN,HB,z,m,./images/CLOWNHB.png,,,,,,,,,,,,,,,,,,,,,0,-0.348979592,-0.30255102,1,0,0,1.119,button_left_test,0,51,51,106,1
,,,,,,,,,,,,,,,,,5c31f92c23f1c60001a6a3e8,26,2022-02-12_17h28.04.579,lexical_decision_task_DD,2021.2.3,iPhone,62.5,,,,,,,,,,1.409,1,,,,,,,,,,,,,,,,,,,,,,,0.415306122,-0.316836735,1,0,0,,,,,,,CRUST,HB,m,m,./images/CRUSTHB.png,,,,,,,,,,,,,,,,,,,,,0,0.415306122,-0.316836735,1,0,0,1.409,button_right_test,0,52,52,79,1
,,,,,,,,,,,,,,,,,5c31f92c23f1c60001a6a3e8,26,2022-02-12_17h28.04.579,lexical_decision_task_DD,2021.2.3,iPhone,62.5,,,,,,,,,,1.542,1,,,,,,,,,,,,,,,,,,,,,,,-0.37244898,-0.296428571,1,0,0,,,,,,,CLOUD,LB,z,m,./images/CLOUDLB.png,,,,,,,,,,,,,,,,,,,,,0,-0.37244898,-0.296428571,1,0,0,1.542,button_left_test,0,53,53,110,1
,,,,,,,,,,,,,,,,,5c31f92c23f1c60001a6a3e8,26,2022-02-12_17h28.04.579,lexical_decision_task_DD,2021.2.3,iPhone,62.5,,,,,,,,,,0.975,1,,,,,,,,,,,,,,,,,,,,,,,-0.344897959,-0.320918367,1,0,0,,,,,,,LAGOON,LB,z,m,./images/LAGOONLB.png,,,,,,,,,,,,,,,,,,,,,0,-0.344897959,-0.320918367,1,0,0,0.975,button_left_test,0,54,54,131,1
,,,,,,,,,,,,,,,,,5c31f92c23f1c60001a6a3e8,26,2022-02-12_17h28.04.579,lexical_decision_task_DD,2021.2.3,iPhone,62.5,,,,,,,,,,0.821,1,,,,,,,,,,,,,,,,,,,,,,,-0.366326531,-0.295408163,1,0,0,,,,,,,ENGINE,LB,z,m,./images/ENGINELB.png,,,,,,,,,,,,,,,,,,,,,0,-0.366326531,-0.295408163,1,0,0,0.821,button_left_test,0,55,55,122,1
,,,,,,,,,,,,,,,,,5c31f92c23f1c60001a6a3e8,26,2022-02-12_17h28.04.579,lexical_decision_task_DD,2021.2.3,iPhone,62.5,,,,,,,,,,0.716,1,,,,,,,,,,,,,,,,,,,,,,,0.418367347,-0.296428571,1,0,0,,,,,,,POODLE,C,m,m,./images/POODLE.png,,,,,,,,,,,,,,,,,,,,,0,0.418367347,-0.296428571,1,0,0,0.716,button_right_test,0,56,56,81,1
,,,,,,,,,,,,,,,,,5c31f92c23f1c60001a6a3e8,26,2022-02-12_17h28.04.579,lexical_decision_task_DD,2021.2.3,iPhone,62.5,,,,,,,,,,1.033,1,,,,,,,,,,,,,,,,,,,,,,,-0.35,-0.28622449,1,0,0,,,,,,,BRIDE,HB,z,m,./images/BRIDEHB.png,,,,,,,,,,,,,,,,,,,,,0,-0.35,-0.28622449,1,0,0,1.033,button_left_test,0,57,57,148,1
,,,,,,,,,,,,,,,,,5c31f92c23f1c60001a6a3e8,26,2022-02-12_17h28.04.579,lexical_decision_task_DD,2021.2.3,iPhone,62.5,,,,,,,,,,0.724,1,,,,,,,,,,,,,,,,,,,,,,,0.410204082,-0.300510204,1,0,0,,,,,,,JUNGLE,LB,m,m,./images/JUNGLELB.png,,,,,,,,,,,,,,,,,,,,,0,0.410204082,-0.300510204,1,0,0,0.724,button_right_test,0,58,58,83,1
,,,,,,,,,,,,,,,,,5c31f92c23f1c60001a6a3e8,26,2022-02-12_17h28.04.579,lexical_decision_task_DD,2021.2.3,iPhone,62.5,,,,,,,,,,0.993,1,,,,,,,,,,,,,,,,,,,,,,,-0.375510204,-0.294387755,1,0,0,,,,,,,HAMMER,C,z,m,./images/HAMMER.png,,,,,,,,,,,,,,,,,,,,,0,-0.375510204,-0.294387755,1,0,0,0.993,button_left_test,0,59,59,159,1
,,,,,,,,,,,,,,,,,5c31f92c23f1c60001a6a3e8,26,2022-02-12_17h28.04.579,lexical_decision_task_DD,2021.2.3,iPhone,62.5,,,,,,,,,,1.472,1,,,,,,,,,,,,,,,,,,,,,,,-0.364285714,-0.278061224,1,0,0,,,,,,,DONKEY,HB,z,m,./images/DONKEYHB.png,,,,,,,,,,,,,,,,,,,,,0,-0.364285714,-0.278061224,1,0,0,1.472,button_left_test,0,60,60,103,1
,,,,,,,,,,,,,,,,,5c31f92c23f1c60001a6a3e8,26,2022-02-12_17h28.04.579,lexical_decision_task_DD,2021.2.3,iPhone,62.5,,,,,,,,,,0.832,1,,,,,,,,,,,,,,,,,,,,,,,0.398979592,-0.322959184,1,0,0,,,,,,,WEASEL,LB,m,m,./images/WEASELLB.png,,,,,,,,,,,,,,,,,,,,,0,0.398979592,-0.322959184,1,0,0,0.832,button_right_test,0,61,61,80,1
,,,,,,,,,,,,,,,,,5c31f92c23f1c60001a6a3e8,26,2022-02-12_17h28.04.579,lexical_decision_task_DD,2021.2.3,iPhone,62.5,,,,,,,,,,0.811,1,,,,,,,,,,,,,,,,,,,,,,,-0.358163265,-0.307653061,1,0,0,,,,,,,FERRY,C,z,m,./images/FERRY.png,,,,,,,,,,,,,,,,,,,,,0,-0.358163265,-0.307653061,1,0,0,0.811,button_left_test,0,62,62,141,1
,,,,,,,,,,,,,,,,,5c31f92c23f1c60001a6a3e8,26,2022-02-12_17h28.04.579,lexical_decision_task_DD,2021.2.3,iPhone,62.5,,,,,,,,,,1.836,1,,,,,,,,,,,,,,,,,,,,,,,0.375510204,-0.325,1,0,0,,,,,,,JELLY,HB,m,m,./images/JELLYHB.png,,,,,,,,,,,,,,,,,,,,,0,0.375510204,-0.325,1,0,0,1.836,button_right_test,0,63,63,64,1
,,,,,,,,,,,,,,,,,5c31f92c23f1c60001a6a3e8,26,2022-02-12_17h28.04.579,lexical_decision_task_DD,2021.2.3,iPhone,62.5,,,,,,,,,,1.122,1,,,,,,,,,,,,,,,,,,,,,,,0.387755102,-0.329081633,1,0,0,,,,,,,MOSQUE,HB,m,m,./images/MOSQUEHB.png,,,,,,,,,,,,,,,,,,,,,0,0.387755102,-0.329081633,1,0,0,1.122,button_right_test,0,64,64,43,1
,,,,,,,,,,,,,,,,,5c31f92c23f1c60001a6a3e8,26,2022-02-12_17h28.04.579,lexical_decision_task_DD,2021.2.3,iPhone,62.5,,,,,,,,,,0.822,1,,,,,,,,,,,,,,,,,,,,,,,0.415306122,-0.319897959,1,0,0,,,,,,,PEARL,HB,m,m,./images/PEARLHB.png,,,,,,,,,,,,,,,,,,,,,0,0.415306122,-0.319897959,1,0,0,0.822,button_right_test,0,65,65,46,1
,,,,,,,,,,,,,,,,,5c31f92c23f1c60001a6a3e8,26,2022-02-12_17h28.04.579,lexical_decision_task_DD,2021.2.3,iPhone,62.5,,,,,,,,,,2.547,0,,,,,,,,,,,,,,,,,,,,,,,0.389795918,-0.317857143,1,0,0,,,,,,,COLLAR,C,z,m,./images/COLLAR.png,,,,,,,,,,,,,,,,,,,,,0,0.389795918,-0.317857143,1,0,0,2.547,button_right_test,0,66,66,99,1
,,,,,,,,,,,,,,,,,5c31f92c23f1c60001a6a3e8,26,2022-02-12_17h28.04.579,lexical_decision_task_DD,2021.2.3,iPhone,62.5,,,,,,,,,,0.73,1,,,,,,,,,,,,,,,,,,,,,,,0.410204082,-0.317857143,1,0,0,,,,,,,SUNSET,HB,m,m,./images/SUNSETHB.png,,,,,,,,,,,,,,,,,,,,,0,0.410204082,-0.317857143,1,0,0,0.73,button_right_test,0,67,67,82,1
,,,,,,,,,,,,,,,,,5c31f92c23f1c60001a6a3e8,26,2022-02-12_17h28.04.579,lexical_decision_task_DD,2021.2.3,iPhone,62.5,,,,,,,,,,0.945,1,,,,,,,,,,,,,,,,,,,,,,,0.412244898,-0.30255102,1,0,0,,,,,,,BEARD,LB,m,m,./images/BEARDLB.png,,,,,,,,,,,,,,,,,,,,,0,0.412244898,-0.30255102,1,0,0,0.945,button_right_test,0,68,68,2,1
,,,,,,,,,,,,,,,,,5c31f92c23f1c60001a6a3e8,26,2022-02-12_17h28.04.579,lexical_decision_task_DD,2021.2.3,iPhone,62.5,,,,,,,,,,1.876,1,,,,,,,,,,,,,,,,,,,,,,,0.389795918,-0.327040816,1,0,0,,,,,,,PURSE,LB,m,m,./images/PURSELB.png,,,,,,,,,,,,,,,,,,,,,0,0.389795918,-0.327040816,1,0,0,1.876,button_right_test,0,69,69,62,1
,,,,,,,,,,,,,,,,,5c31f92c23f1c60001a6a3e8,26,2022-02-12_17h28.04.579,lexical_decision_task_DD,2021.2.3,iPhone,62.5,,,,,,,,,,0.84,1,,,,,,,,,,,,,,,,,,,,,,,-0.368367347,-0.30255102,1,0,0,,,,,,,GRANNY,LB,z,m,./images/GRANNYLB.png,,,,,,,,,,,,,,,,,,,,,0,-0.368367347,-0.30255102,1,0,0,0.84,button_left_test,0,70,70,104,1
,,,,,,,,,,,,,,,,,5c31f92c23f1c60001a6a3e8,26,2022-02-12_17h28.04.579,lexical_decision_task_DD,2021.2.3,iPhone,62.5,,,,,,,,,,0.691,1,,,,,,,,,,,,,,,,,,,,,,,0.415306122,-0.317857143,1,0,0,,,,,,,PASTA,LB,m,m,./images/PASTALB.png,,,,,,,,,,,,,,,,,,,,,0,0.415306122,-0.317857143,1,0,0,0.691,button_right_test,0,71,71,5,1
,,,,,,,,,,,,,,,,,5c31f92c23f1c60001a6a3e8,26,2022-02-12_17h28.04.579,lexical_decision_task_DD,2021.2.3,iPhone,62.5,,,,,,,,,,0.724,1,,,,,,,,,,,,,,,,,,,,,,,0.41122449,-0.327040816,1,0,0,,,,,,,ONION,C,m,m,./images/ONION.png,,,,,,,,,,,,,,,,,,,,,0,0.41122449,-0.327040816,1,0,0,0.724,button_right_test,0,72,72,51,1
,,,,,,,,,,,,,,,,,5c31f92c23f1c60001a6a3e8,26,2022-02-12_17h28.04.579,lexical_decision_task_DD,2021.2.3,iPhone,62.5,,,,,,,,,,1.041,1,,,,,,,,,,,,,,,,,,,,,,,-0.355102041,-0.31377551,1,0,0,,,,,,,STATUE,C,z,m,./images/STATUE.png,,,,,,,,,,,,,,,,,,,,,0,-0.355102041,-0.31377551,1,0,0,1.041,button_left_test,0,73,73,150,1
,,,,,,,,,,,,,,,,,5c31f92c23f1c60001a6a3e8,26,2022-02-12_17h28.04.579,lexical_decision_task_DD,2021.2.3,iPhone,62.5,,,,,,,,,,1.158,1,,,,,,,,,,,,,,,,,,,,,,,0.432653061,-0.322959184,1,0,0,,,,,,,BIRTH,HB,m,m,./images/BIRTHHB.png,,,,,,,,,,,,,,,,,,,,,0,0.432653061,-0.322959184,1,0,0,1.158,button_right_test,0,74,74,37,1
,,,,,,,,,,,,,,,,,5c31f92c23f1c60001a6a3e8,26,2022-02-12_17h28.04.579,lexical_decision_task_DD,2021.2.3,iPhone,62.5,,,,,,,,,,0.977,0,,,,,,,,,,,,,,,,,,,,,,,-0.356122449,-0.30255102,1,0,0,,,,,,,THROAT,C,m,m,./images/THROAT.png,,,,,,,,,,,,,,,,,,,,,0,-0.356122449,-0.30255102,1,0,0,0.977,button_left_test,0,75,75,36,1
,,,,,,,,,,,,,,,,,5c31f92c23f1c60001a6a3e8,26,2022-02-12_17h28.04.579,lexical_decision_task_DD,2021.2.3,iPhone,62.5,,,,,,,,,,1.361,0,,,,,,,,,,,,,,,,,,,,,,,0.416326531,-0.304591837,1,0,0,,,,,,,GLOVE,HB,z,m,./images/GLOVEHB.png,,,,,,,,,,,,,,,,,,,,,0,0.416326531,-0.304591837,1,0,0,1.361,button_right_test,0,76,76,157,1
,,,,,,,,,,,,,,,,,5c31f92c23f1c60001a6a3e8,26,2022-02-12_17h28.04.579,lexical_decision_task_DD,2021.2.3,iPhone,62.5,,,,,,,,,,1.286,1,,,,,,,,,,,,,,,,,,,,,,,0.402040816,-0.307653061,1,0,0,,,,,,,SQUARE,C,m,m,./images/SQUARE.png,,,,,,,,,,,,,,,,,,,,,0,0.402040816,-0.307653061,1,0,0,1.286,button_right_test,0,77,77,6,1
,,,,,,,,,,,,,,,,,5c31f92c23f1c60001a6a3e8,26,2022-02-12_17h28.04.579,lexical_decision_task_DD,2021.2.3,iPhone,62.5,,,,,,,,,,1.103,1,,,,,,,,,,,,,,,,,,,,,,,0.420408163,-0.329081633,1,0,0,,,,,,,BANNER,HB,m,m,./images/BANNERHB.png,,,,,,,,,,,,,,,,,,,,,0,0.420408163,-0.329081633,1,0,0,1.103,button_right_test,0,78,78,52,1
,,,,,,,,,,,,,,,,,5c31f92c23f1c60001a6a3e8,26,2022-02-12_17h28.04.579,lexical_decision_task_DD,2021.2.3,iPhone,62.5,,,,,,,,,,0.935,1,,,,,,,,,,,,,,,,,,,,,,,-0.348979592,-0.319897959,1,0,0,,,,,,,SAUNA,C,z,m,./images/SAUNA.png,,,,,,,,,,,,,,,,,,,,,0,-0.348979592,-0.319897959,1,0,0,0.935,button_left_test,0,79,79,117,1
,,,,,,,,,,,,,,,,,5c31f92c23f1c60001a6a3e8,26,2022-02-12_17h28.04.579,lexical_decision_task_DD,2021.2.3,iPhone,62.5,,,,,,,,,,0.846,1,,,,,,,,,,,,,,,,,,,,,,,0.426530612,-0.319897959,1,0,0,,,,,,,SKIING,LB,m,m,./images/SKIINGLB.png,,,,,,,,,,,,,,,,,,,,,0,0.426530612,-0.319897959,1,0,0,0.846,button_right_test,0,80,80,17,1
,,,,,,,,,,,,,,,,,5c31f92c23f1c60001a6a3e8,26,2022-02-12_17h28.04.579,lexical_decision_task_DD,2021.2.3,iPhone,62.5,,,,,,,,,,1.016,1,,,,,,,,,,,,,,,,,,,,,,,0.396938776,-0.307653061,1,0,0,,,,,,,STORM,C,m,m,./images/STORM.png,,,,,,,,,,,,,,,,,,,,,0,0.396938776,-0.307653061,1,0,0,1.016,button_right_test,0,81,81,30,1
,,,,,,,,,,,,,,,,,5c31f92c23f1c60001a6a3e8,26,2022-02-12_17h28.04.579,lexical_decision_task_DD,2021.2.3,iPhone,62.5,,,,,,,,,,1.098,1,,,,,,,,,,,,,,,,,,,,,,,-0.368367347,-0.305612245,1,0,0,,,,,,,WHISKY,LB,z,m,./images/WHISKYLB.png,,,,,,,,,,,,,,,,,,,,,0,-0.368367347,-0.305612245,1,0,0,1.098,button_left_test,0,82,82,167,1
,,,,,,,,,,,,,,,,,5c31f92c23f1c60001a6a3e8,26,2022-02-12_17h28.04.579,lexical_decision_task_DD,2021.2.3,iPhone,62.5,,,,,,,,,,0.667,1,,,,,,,,,,,,,,,,,,,,,,,0.079591837,-0.398469388,1,0,0,,,,,,,SNACK,HB,m,m,./images/SNACKHB.png,break_done_button,,,,,,,,,,,,,,,,,,,,0,0.418367347,-0.316836735,1,0,0,0.667,button_right_test,0,83,83,73,1
,,,,,,,,,,,,,,,,,5c31f92c23f1c60001a6a3e8,26,2022-02-12_17h28.04.579,lexical_decision_task_DD,2021.2.3,iPhone,62.5,,,,,,,,,,1.224,1,,,,,,,,,,,,,,,,,,,,,,,-0.369387755,-0.290306122,1,0,0,,,,,,,FENCE,LB,z,m,./images/FENCELB.png,,,,,,,,,,,,,,,,,,,,,0,-0.369387755,-0.290306122,1,0,0,1.224,button_left_test,0,84,84,98,1
,,,,,,,,,,,,,,,,,5c31f92c23f1c60001a6a3e8,26,2022-02-12_17h28.04.579,lexical_decision_task_DD,2021.2.3,iPhone,62.5,,,,,,,,,,1.163,1,,,,,,,,,,,,,,,,,,,,,,,-0.368367347,-0.294387755,1,0,0,,,,,,,HOCKEY,LB,z,m,./images/HOCKEYLB.png,,,,,,,,,,,,,,,,,,,,,0,-0.368367347,-0.294387755,1,0,0,1.163,button_left_test,0,85,85,116,1
,,,,,,,,,,,,,,,,,5c31f92c23f1c60001a6a3e8,26,2022-02-12_17h28.04.579,lexical_decision_task_DD,2021.2.3,iPhone,62.5,,,,,,,,,,0.641,1,,,,,,,,,,,,,,,,,,,,,,,0.387755102,-0.320918367,1,0,0,,,,,,,MUFFIN,HB,m,m,./images/MUFFINHB.png,,,,,,,,,,,,,,,,,,,,,0,0.387755102,-0.320918367,1,0,0,0.641,button_right_test,0,86,86,55,1
,,,,,,,,,,,,,,,,,5c31f92c23f1c60001a6a3e8,26,2022-02-12_17h28.04.579,lexical_decision_task_DD,2021.2.3,iPhone,62.5,,,,,,,,,,1.346,0,,,,,,,,,,,,,,,,,,,,,,,-0.356122449,-0.291326531,1,0,0,,,,,,,SPORT,C,m,m,./images/SPORT.png,,,,,,,,,,,,,,,,,,,,,0,-0.356122449,-0.291326531,1,0,0,1.346,button_left_test,0,87,87,48,1
,,,,,,,,,,,,,,,,,5c31f92c23f1c60001a6a3e8,26,2022-02-12_17h28.04.579,lexical_decision_task_DD,2021.2.3,iPhone,62.5,,,,,,,,,,0.976,1,,,,,,,,,,,,,,,,,,,,,,,0.41122449,-0.298469388,1,0,0,,,,,,,WALRUS,LB,m,m,./images/WALRUSLB.png,,,,,,,,,,,,,,,,,,,,,0,0.41122449,-0.298469388,1,0,0,0.976,button_right_test,0,88,88,23,1
,,,,,,,,,,,,,,,,,5c31f92c23f1c60001a6a3e8,26,2022-02-12_17h28.04.579,lexical_decision_task_DD,2021.2.3,iPhone,62.5,,,,,,,,,,1.223,1,,,,,,,,,,,,,,,,,,,,,,,0.410204082,-0.300510204,1,0,0,,,,,,,CEMENT,LB,m,m,./images/CEMENTLB.png,,,,,,,,,,,,,,,,,,,,,0,0.410204082,-0.300510204,1,0,0,1.223,button_right_test,0,89,89,74,1
,,,,,,,,,,,,,,,,,5c31f92c23f1c60001a6a3e8,26,2022-02-12_17h28.04.579,lexical_decision_task_DD,2021.2.3,iPhone,62.5,,,,,,,,,,1.21,1,,,,,,,,,,,,,,,,,,,,,,,0.402040816,-0.305612245,1,0,0,,,,,,,PACKET,LB,m,m,./images/PACKETLB.png,,,,,,,,,,,,,,,,,,,,,0,0.402040816,-0.305612245,1,0,0,1.21,button_right_test,0,90,90,56,1
,,,,,,,,,,,,,,,,,5c31f92c23f1c60001a6a3e8,26,2022-02-12_17h28.04.579,lexical_decision_task_DD,2021.2.3,iPhone,62.5,,,,,,,,,,1.95,1,,,,,,,,,,,,,,,,,,,,,,,-0.376530612,-0.317857143,1,0,0,,,,,,,DANCER,C,z,m,./images/DANCER.png,,,,,,,,,,,,,,,,,,,,,0,-0.376530612,-0.317857143,1,0,0,1.95,button_left_test,0,91,91,105,1
,,,,,,,,,,,,,,,,,5c31f92c23f1c60001a6a3e8,26,2022-02-12_17h28.04.579,lexical_decision_task_DD,2021.2.3,iPhone,62.5,,,,,,,,,,0.955,1,,,,,,,,,,,,,,,,,,,,,,,-0.373469388,-0.317857143,1,0,0,,,,,,,BANANA,HB,z,m,./images/BANANAHB.png,,,,,,,,,,,,,,,,,,,,,0,-0.373469388,-0.317857143,1,0,0,0.955,button_left_test,0,92,92,154,1
,,,,,,,,,,,,,,,,,5c31f92c23f1c60001a6a3e8,26,2022-02-12_17h28.04.579,lexical_decision_task_DD,2021.2.3,iPhone,62.5,,,,,,,,,,1.236,1,,,,,,,,,,,,,,,,,,,,,,,0.455102041,-0.296428571,1,0,0,,,,,,,CARPET,LB,m,m,./images/CARPETLB.png,,,,,,,,,,,,,,,,,,,,,0,0.455102041,-0.296428571,1,0,0,1.236,button_right_test,0,93,93,53,1
,,,,,,,,,,,,,,,,,5c31f92c23f1c60001a6a3e8,26,2022-02-12_17h28.04.579,lexical_decision_task_DD,2021.2.3,iPhone,62.5,,,,,,,,,,0.854,1,,,,,,,,,,,,,,,,,,,,,,,0.431632653,-0.295408163,1,0,0,,,,,,,KITTEN,C,m,m,./images/KITTEN.png,,,,,,,,,,,,,,,,,,,,,0,0.431632653,-0.295408163,1,0,0,0.854,button_right_test,0,94,94,45,1
,,,,,,,,,,,,,,,,,5c31f92c23f1c60001a6a3e8,26,2022-02-12_17h28.04.579,lexical_decision_task_DD,2021.2.3,iPhone,62.5,,,,,,,,,,1.288,0,,,,,,,,,,,,,,,,,,,,,,,-0.386734694,-0.309693878,1,0,0,,,,,,,PAINT,HB,m,m,./images/PAINTHB.png,,,,,,,,,,,,,,,,,,,,,0,-0.386734694,-0.309693878,1,0,0,1.288,button_left_test,0,95,95,7,1
,,,,,,,,,,,,,,,,,5c31f92c23f1c60001a6a3e8,26,2022-02-12_17h28.04.579,lexical_decision_task_DD,2021.2.3,iPhone,62.5,,,,,,,,,,1.245,1,,,,,,,,,,,,,,,,,,,,,,,-0.369387755,-0.31377551,1,0,0,,,,,,,FLASK,C,z,m,./images/FLASK.png,,,,,,,,,,,,,,,,,,,,,0,-0.369387755,-0.31377551,1,0,0,1.245,button_left_test,0,96,96,156,1
,,,,,,,,,,,,,,,,,5c31f92c23f1c60001a6a3e8,26,2022-02-12_17h28.04.579,lexical_decision_task_DD,2021.2.3,iPhone,62.5,,,,,,,,,,0.904,1,,,,,,,,,,,,,,,,,,,,,,,-0.381632653,-0.303571429,1,0,0,,,,,,,JUMPER,LB,z,m,./images/JUMPERLB.png,,,,,,,,,,,,,,,,,,,,,0,-0.381632653,-0.303571429,1,0,0,0.904,button_left_test,0,97,97,158,1
,,,,,,,,,,,,,,,,,5c31f92c23f1c60001a6a3e8,26,2022-02-12_17h28.04.579,lexical_decision_task_DD,2021.2.3,iPhone,62.5,,,,,,,,,,0.787,1,,,,,,,,,,,,,,,,,,,,,,,0.446938776,-0.292346939,1,0,0,,,,,,,BABOON,HB,m,m,./images/BABOONHB.png,,,,,,,,,,,,,,,,,,,,,0,0.446938776,-0.292346939,1,0,0,0.787,button_right_test,0,98,98,58,1
,,,,,,,,,,,,,,,,,5c31f92c23f1c60001a6a3e8,26,2022-02-12_17h28.04.579,lexical_decision_task_DD,2021.2.3,iPhone,62.5,,,,,,,,,,0.957,1,,,,,,,,,,,,,,,,,,,,,,,-0.38877551,-0.300510204,1,0,0,,,,,,,TOWEL,HB,z,m,./images/TOWELHB.png,,,,,,,,,,,,,,,,,,,,,0,-0.38877551,-0.300510204,1,0,0,0.957,button_left_test,0,99,99,85,1
,,,,,,,,,,,,,,,,,5c31f92c23f1c60001a6a3e8,26,2022-02-12_17h28.04.579,lexical_decision_task_DD,2021.2.3,iPhone,62.5,,,,,,,,,,1.55,1,,,,,,,,,,,,,,,,,,,,,,,-0.362244898,-0.294387755,1,0,0,,,,,,,STOOL,HB,z,m,./images/STOOLHB.png,,,,,,,,,,,,,,,,,,,,,0,-0.362244898,-0.294387755,1,0,0,1.55,button_left_test,0,100,100,127,1
,,,,,,,,,,,,,,,,,5c31f92c23f1c60001a6a3e8,26,2022-02-12_17h28.04.579,lexical_decision_task_DD,2021.2.3,iPhone,62.5,,,,,,,,,,1.635,1,,,,,,,,,,,,,,,,,,,,,,,-0.385714286,-0.326020408,1,0,0,,,,,,,SHIELD,C,z,m,./images/SHIELD.png,,,,,,,,,,,,,,,,,,,,,0,-0.385714286,-0.326020408,1,0,0,1.635,button_left_test,0,101,101,132,1
,,,,,,,,,,,,,,,,,5c31f92c23f1c60001a6a3e8,26,2022-02-12_17h28.04.579,lexical_decision_task_DD,2021.2.3,iPhone,62.5,,,,,,,,,,1.006,1,,,,,,,,,,,,,,,,,,,,,,,0.401020408,-0.296428571,1,0,0,,,,,,,SWING,HB,m,m,./images/SWINGHB.png,,,,,,,,,,,,,,,,,,,,,0,0.401020408,-0.296428571,1,0,0,1.006,button_right_test,0,102,102,40,1
,,,,,,,,,,,,,,,,,5c31f92c23f1c60001a6a3e8,26,2022-02-12_17h28.04.579,lexical_decision_task_DD,2021.2.3,iPhone,62.5,,,,,,,,,,1.603,1,,,,,,,,,,,,,,,,,,,,,,,0.381632653,-0.304591837,1,0,0,,,,,,,BERRY,LB,m,m,./images/BERRYLB.png,,,,,,,,,,,,,,,,,,,,,0,0.381632653,-0.304591837,1,0,0,1.603,button_right_test,0,103,103,47,1
,,,,,,,,,,,,,,,,,5c31f92c23f1c60001a6a3e8,26,2022-02-12_17h28.04.579,lexical_decision_task_DD,2021.2.3,iPhone,62.5,,,,,,,,,,1.982,1,,,,,,,,,,,,,,,,,,,,,,,0.402040816,-0.344387755,1,0,0,,,,,,,CRADLE,LB,m,m,./images/CRADLELB.png,,,,,,,,,,,,,,,,,,,,,0,0.402040816,-0.344387755,1,0,0,1.982,button_right_test,0,104,104,20,1
,,,,,,,,,,,,,,,,,5c31f92c23f1c60001a6a3e8,26,2022-02-12_17h28.04.579,lexical_decision_task_DD,2021.2.3,iPhone,62.5,,,,,,,,,,0.988,1,,,,,,,,,,,,,,,,,,,,,,,0.416326531,-0.307653061,1,0,0,,,,,,,NOOSE,C,m,m,./images/NOOSE.png,,,,,,,,,,,,,,,,,,,,,0,0.416326531,-0.307653061,1,0,0,0.988,button_right_test,0,105,105,72,1
