key_resp.keys,instr_done_touch.x,instr_done_touch.y,instr_done_touch.leftButton,instr_done_touch.midButton,instr_done_touch.rightButton,instr_done_touch.clicked_name,instruction_pages.thisRepN,instruction_pages.thisTrialN,instruction_pages.thisN,instruction_pages.thisIndex,instruction_pages.ran,pageN,phase,instruct_text,has_image,instruct_image,participant,age,date,expName,psychopyVersion,OS,frameRate,response.keys,response.corr,touch_resp.x,touch_resp.y,touch_resp.leftButton,touch_resp.midButton,touch_resp.rightButton,touch_resp.time,touch_resp.clicked_name,rt,corr,practrials.thisRepN,practrials.thisTrialN,practrials.thisN,practrials.thisIndex,practrials.ran,TrialID,Target,corrAns,end_of_practice_trials_pages.thisRepN,end_of_practice_trials_pages.thisTrialN,end_of_practice_trials_pages.thisN,end_of_practice_trials_pages.thisIndex,end_of_practice_trials_pages.ran,key_resp_2.keys,key_resp_2.corr,targ_click.x,targ_click.y,targ_click.leftButton,targ_click.midButton,targ_click.rightButton,targ_click.time,targ_click.clicked_name,break_done_touch.x,break_done_touch.y,break_done_touch.leftButton,break_done_touch.midButton,break_done_touch.rightButton,break_done_keyboard.keys,maintrials.thisRepN,maintrials.thisTrialN,maintrials.thisN,maintrials.thisIndex,maintrials.ran,string,blur,study,lex,stim_path,break_done_touch.clicked_name,mouse_2.x,mouse_2.y,mouse_2.leftButton,mouse_2.midButton,mouse_2.rightButton,mouse_2.clicked_name,slider.response,slider.rt,trials.thisRepN,trials.thisTrialN,trials.thisN,trials.thisIndex,trials.ran,test_instructions.thisRepN,test_instructions.thisTrialN,test_instructions.thisN,test_instructions.thisIndex,test_instructions.ran,key_resp_3.keys,key_resp_3.corr,test_click.x,test_click.y,test_click.leftButton,test_click.midButton,test_click.rightButton,test_click.time,test_click.clicked_name,test_phase.thisRepN,test_phase.thisTrialN,test_phase.thisN,test_phase.thisIndex,test_phase.ran
,0.055102041,-0.415306122,1,0,0,instr_done_button,0,0,0,0,1,1,instructions,"INSTRUCTIONS
At the start of each trial, look at the plus sign  (+) in the center of the screen.  This tells you that a trial is about to begin and where to look. Second, the plus sign will disappear and a string of letters will appear. Your task is to determine if the string of letters is a word or not. If the item is a word press the M key (on keyboard)  or touch the word button (phone/tablet).  If the item is not a word,  press the  Z key (on keyboard)  or touch the nonword button (on phone/tablet). 
Press the space bar or touch  continue.",0,,5cb63178d946580001e4cef4,29,2022-02-12_13h25.56.510,lexical_decision_task_DD,2021.2.3,iPhone,58.82352941,,,,,,,,,,,,,,,,,,,,,,,,,,,,,,,,,,,,,,,,,,,,,,,,,,,,,,,,,,,,,,,,,,,,,,,,,,,,,,,,,,
,0.074489796,-0.414285714,1,0,0,instr_done_button,0,1,1,1,1,2,instructions,"If your device has a keyboard, press the 'Z' key for nonwords and the 'M' key for words.





Press the space bar or touch the button below to continue.",0,keyboard-example.gif,5cb63178d946580001e4cef4,29,2022-02-12_13h25.56.510,lexical_decision_task_DD,2021.2.3,iPhone,58.82352941,,,,,,,,,,,,,,,,,,,,,,,,,,,,,,,,,,,,,,,,,,,,,,,,,,,,,,,,,,,,,,,,,,,,,,,,,,,,,,,,,,
,0.030612245,-0.393877551,1,0,0,instr_done_button,0,2,2,2,1,3,instructions,"If you are using a touchscreen only device, use the buttons on the screen. Do not use the mouse.





Press the space bar or touch the button below to continue.",0,touchscreen-example.gif,5cb63178d946580001e4cef4,29,2022-02-12_13h25.56.510,lexical_decision_task_DD,2021.2.3,iPhone,58.82352941,,,,,,,,,,,,,,,,,,,,,,,,,,,,,,,,,,,,,,,,,,,,,,,,,,,,,,,,,,,,,,,,,,,,,,,,,,,,,,,,,,
,-0.058163265,-0.383673469,1,0,0,instr_done_button,0,3,3,3,1,4,instructions,"It is very important that you respond as quickly and accurately as possible, as each letter string will only be on the screen for two seconds. If you do not respond within this time, the message 'Too slow!' will be displayed and the experiment will progress to the next letter string. The first 20 trials will be practice trials and you will receive feedback on your answers. 

Press the space bar or touch the button below to start the practice trials.",0,,5cb63178d946580001e4cef4,29,2022-02-12_13h25.56.510,lexical_decision_task_DD,2021.2.3,iPhone,58.82352941,,,,,,,,,,,,,,,,,,,,,,,,,,,,,,,,,,,,,,,,,,,,,,,,,,,,,,,,,,,,,,,,,,,,,,,,,,,,,,,,,,
,,,,,,,,,,,,,,,,,5cb63178d946580001e4cef4,29,2022-02-12_13h25.56.510,lexical_decision_task_DD,2021.2.3,iPhone,58.82352941,,0,-0.383673469,-0.267346939,1,0,0,1.399,button_left,1.399,1,0,0,0,13,1,1001,ROUPET,z,,,,,,,,,,,,,,,,,,,,,,,,,,,,,,,,,,,,,,,,,,,,,,,,,,,,,,,,,,,,,,,
,,,,,,,,,,,,,,,,,5cb63178d946580001e4cef4,29,2022-02-12_13h25.56.510,lexical_decision_task_DD,2021.2.3,iPhone,58.82352941,,0,-0.360204082,-0.279591837,1,0,0,0.734,button_left,0.734,1,0,1,1,9,1,1001,FARINY,z,,,,,,,,,,,,,,,,,,,,,,,,,,,,,,,,,,,,,,,,,,,,,,,,,,,,,,,,,,,,,,,
,,,,,,,,,,,,,,,,,5cb63178d946580001e4cef4,29,2022-02-12_13h25.56.510,lexical_decision_task_DD,2021.2.3,iPhone,58.82352941,,0,0.367346939,-0.262244898,1,0,0,1.053,button_right,1.053,1,0,2,2,0,1,1001,UTOPIA,m,,,,,,,,,,,,,,,,,,,,,,,,,,,,,,,,,,,,,,,,,,,,,,,,,,,,,,,,,,,,,,,
,,,,,,,,,,,,,,,,,5cb63178d946580001e4cef4,29,2022-02-12_13h25.56.510,lexical_decision_task_DD,2021.2.3,iPhone,58.82352941,,0,0.358163265,-0.266326531,1,0,0,0.828,button_right,0.828,1,0,3,3,5,1,1001,OBTAIN,m,,,,,,,,,,,,,,,,,,,,,,,,,,,,,,,,,,,,,,,,,,,,,,,,,,,,,,,,,,,,,,,
,,,,,,,,,,,,,,,,,5cb63178d946580001e4cef4,29,2022-02-12_13h25.56.510,lexical_decision_task_DD,2021.2.3,iPhone,58.82352941,,0,-0.380612245,-0.243877551,1,0,0,0.733,button_left,0.733,1,0,4,4,11,1,1001,RASHET,z,,,,,,,,,,,,,,,,,,,,,,,,,,,,,,,,,,,,,,,,,,,,,,,,,,,,,,,,,,,,,,,
,,,,,,,,,,,,,,,,,5cb63178d946580001e4cef4,29,2022-02-12_13h25.56.510,lexical_decision_task_DD,2021.2.3,iPhone,58.82352941,,0,0.353061224,-0.281632653,1,0,0,0.733,button_right,0.733,1,0,5,5,1,1,1001,ADJUST,m,,,,,,,,,,,,,,,,,,,,,,,,,,,,,,,,,,,,,,,,,,,,,,,,,,,,,,,,,,,,,,,
,,,,,,,,,,,,,,,,,5cb63178d946580001e4cef4,29,2022-02-12_13h25.56.510,lexical_decision_task_DD,2021.2.3,iPhone,58.82352941,,0,0.364285714,-0.262244898,1,0,0,0.566,button_right,0.566,1,0,6,6,4,1,1001,SQUEAK,m,,,,,,,,,,,,,,,,,,,,,,,,,,,,,,,,,,,,,,,,,,,,,,,,,,,,,,,,,,,,,,,
,,,,,,,,,,,,,,,,,5cb63178d946580001e4cef4,29,2022-02-12_13h25.56.510,lexical_decision_task_DD,2021.2.3,iPhone,58.82352941,,0,-0.348979592,-0.233673469,1,0,0,0.719,button_left,0.719,1,0,7,7,10,1,1001,INLADE,z,,,,,,,,,,,,,,,,,,,,,,,,,,,,,,,,,,,,,,,,,,,,,,,,,,,,,,,,,,,,,,,
,,,,,,,,,,,,,,,,,5cb63178d946580001e4cef4,29,2022-02-12_13h25.56.510,lexical_decision_task_DD,2021.2.3,iPhone,58.82352941,,0,0.343877551,-0.263265306,1,0,0,0.618,button_right,0.618,1,0,8,8,2,1,1001,ALMOND,m,,,,,,,,,,,,,,,,,,,,,,,,,,,,,,,,,,,,,,,,,,,,,,,,,,,,,,,,,,,,,,,
,,,,,,,,,,,,,,,,,5cb63178d946580001e4cef4,29,2022-02-12_13h25.56.510,lexical_decision_task_DD,2021.2.3,iPhone,58.82352941,,0,0.358163265,-0.275510204,1,0,0,0.635,button_right,0.635,1,0,9,9,6,1,1001,ZOMBIE,m,,,,,,,,,,,,,,,,,,,,,,,,,,,,,,,,,,,,,,,,,,,,,,,,,,,,,,,,,,,,,,,
,,,,,,,,,,,,,,,,,5cb63178d946580001e4cef4,29,2022-02-12_13h25.56.510,lexical_decision_task_DD,2021.2.3,iPhone,58.82352941,,0,-0.351020408,-0.281632653,1,0,0,0.652,button_left,0.652,1,0,10,10,14,1,1001,THRALE,z,,,,,,,,,,,,,,,,,,,,,,,,,,,,,,,,,,,,,,,,,,,,,,,,,,,,,,,,,,,,,,,
,,,,,,,,,,,,,,,,,5cb63178d946580001e4cef4,29,2022-02-12_13h25.56.510,lexical_decision_task_DD,2021.2.3,iPhone,58.82352941,,0,-0.356122449,-0.262244898,1,0,0,0.612,button_left,0.612,1,0,11,11,8,1,1001,ASLERT,z,,,,,,,,,,,,,,,,,,,,,,,,,,,,,,,,,,,,,,,,,,,,,,,,,,,,,,,,,,,,,,,
,,,,,,,,,,,,,,,,,5cb63178d946580001e4cef4,29,2022-02-12_13h25.56.510,lexical_decision_task_DD,2021.2.3,iPhone,58.82352941,,0,0.351020408,-0.296938776,1,0,0,0.552,button_right,0.552,1,0,12,12,7,1,1001,VOLUME,m,,,,,,,,,,,,,,,,,,,,,,,,,,,,,,,,,,,,,,,,,,,,,,,,,,,,,,,,,,,,,,,
,,,,,,,,,,,,,,,,,5cb63178d946580001e4cef4,29,2022-02-12_13h25.56.510,lexical_decision_task_DD,2021.2.3,iPhone,58.82352941,,0,-0.336734694,-0.25,1,0,0,0.835,button_left,0.835,1,0,13,13,15,1,1001,WHAISE,z,,,,,,,,,,,,,,,,,,,,,,,,,,,,,,,,,,,,,,,,,,,,,,,,,,,,,,,,,,,,,,,
,,,,,,,,,,,,,,,,,5cb63178d946580001e4cef4,29,2022-02-12_13h25.56.510,lexical_decision_task_DD,2021.2.3,iPhone,58.82352941,,0,-0.316326531,-0.278571429,1,0,0,0.885,button_left,0.885,1,0,14,14,12,1,1001,SPRINY,z,,,,,,,,,,,,,,,,,,,,,,,,,,,,,,,,,,,,,,,,,,,,,,,,,,,,,,,,,,,,,,,
,,,,,,,,,,,,,,,,,5cb63178d946580001e4cef4,29,2022-02-12_13h25.56.510,lexical_decision_task_DD,2021.2.3,iPhone,58.82352941,,0,-0.346938776,-0.27244898,1,0,0,0.534,button_left,0.534,0,0,15,15,3,1,1001,MATRIX,m,,,,,,,,,,,,,,,,,,,,,,,,,,,,,,,,,,,,,,,,,,,,,,,,,,,,,,,,,,,,,,,
,-0.112244898,-0.370408163,1,0,0,instr_done_button,,,,,,1,end_of_practice,"You have completed the practice trials. During the experimental trials, you will not receive feedback. 
Before you begin, please ensure that you are in a comfortable and quiet location and will not be disturbed for about 15 minutes, as we cannot use your data if you do not complete all the trials. 
 When you are ready to start the experimental trials, please press space or touch the button below.",,,5cb63178d946580001e4cef4,29,2022-02-12_13h25.56.510,lexical_decision_task_DD,2021.2.3,iPhone,58.82352941,,,,,,,,,,,,,,,,,,,,0,0,0,0,1,,,,,,,,,,,,,,,,,,,,,,,,,,,,,,,,,,,,,,,,,,,,,,,,,,,,,,,,,,
,,,,,,,,,,,,,,,,,5cb63178d946580001e4cef4,29,2022-02-12_13h25.56.510,lexical_decision_task_DD,2021.2.3,iPhone,58.82352941,,,,,,,,,,0.845,1,,,,,,,,,,,,,,,0,0.344897959,-0.298979592,1,0,0,0.845,button_right_main,0.344897959,-0.298979592,1,0,0,,0,0,0,32,1,BARREL,LB,old,m,./images/BARRELLB.png,,,,,,,,,,,,,,,,,,,,,,,,,,,,,,,,,
,,,,,,,,,,,,,,,,,5cb63178d946580001e4cef4,29,2022-02-12_13h25.56.510,lexical_decision_task_DD,2021.2.3,iPhone,58.82352941,,,,,,,,,,0.767,1,,,,,,,,,,,,,,,0,-0.329591837,-0.280612245,1,0,0,0.767,button_left_main,-0.329591837,-0.280612245,1,0,0,,0,1,1,99,1,BACKY,C,old,z,./images/BACKY.png,,,,,,,,,,,,,,,,,,,,,,,,,,,,,,,,,
,,,,,,,,,,,,,,,,,5cb63178d946580001e4cef4,29,2022-02-12_13h25.56.510,lexical_decision_task_DD,2021.2.3,iPhone,58.82352941,,,,,,,,,,1.319,0,,,,,,,,,,,,,,,0,0.341836735,-0.278571429,1,0,0,1.319,button_right_main,0.341836735,-0.278571429,1,0,0,,0,2,2,91,1,SHENS,HB,old,z,./images/SHENSHB.png,,,,,,,,,,,,,,,,,,,,,,,,,,,,,,,,,
,,,,,,,,,,,,,,,,,5cb63178d946580001e4cef4,29,2022-02-12_13h25.56.510,lexical_decision_task_DD,2021.2.3,iPhone,58.82352941,,,,,,,,,,0.836,1,,,,,,,,,,,,,,,0,0.336734694,-0.271428571,1,0,0,0.836,button_right_main,0.336734694,-0.271428571,1,0,0,,0,3,3,30,1,STORM,C,old,m,./images/STORM.png,,,,,,,,,,,,,,,,,,,,,,,,,,,,,,,,,
,,,,,,,,,,,,,,,,,5cb63178d946580001e4cef4,29,2022-02-12_13h25.56.510,lexical_decision_task_DD,2021.2.3,iPhone,58.82352941,,,,,,,,,,0.636,1,,,,,,,,,,,,,,,0,-0.336734694,-0.240816327,1,0,0,0.636,button_left_main,-0.336734694,-0.240816327,1,0,0,,0,4,4,117,1,STEEG,C,old,z,./images/STEEG.png,,,,,,,,,,,,,,,,,,,,,,,,,,,,,,,,,
,,,,,,,,,,,,,,,,,5cb63178d946580001e4cef4,29,2022-02-12_13h25.56.510,lexical_decision_task_DD,2021.2.3,iPhone,58.82352941,,,,,,,,,,0.852,1,,,,,,,,,,,,,,,0,0.333673469,-0.293877551,1,0,0,0.852,button_right_main,0.333673469,-0.293877551,1,0,0,,0,5,5,47,1,BERRY,LB,old,m,./images/BERRYLB.png,,,,,,,,,,,,,,,,,,,,,,,,,,,,,,,,,
,,,,,,,,,,,,,,,,,5cb63178d946580001e4cef4,29,2022-02-12_13h25.56.510,lexical_decision_task_DD,2021.2.3,iPhone,58.82352941,,,,,,,,,,0.552,1,,,,,,,,,,,,,,,0,0.35,-0.276530612,1,0,0,0.552,button_right_main,0.35,-0.276530612,1,0,0,,0,6,6,5,1,PASTA,LB,old,m,./images/PASTALB.png,,,,,,,,,,,,,,,,,,,,,,,,,,,,,,,,,
,,,,,,,,,,,,,,,,,5cb63178d946580001e4cef4,29,2022-02-12_13h25.56.510,lexical_decision_task_DD,2021.2.3,iPhone,58.82352941,,,,,,,,,,0.551,1,,,,,,,,,,,,,,,0,0.340816327,-0.280612245,1,0,0,0.551,button_right_main,0.340816327,-0.280612245,1,0,0,,0,7,7,23,1,WALRUS,LB,old,m,./images/WALRUSLB.png,,,,,,,,,,,,,,,,,,,,,,,,,,,,,,,,,
,,,,,,,,,,,,,,,,,5cb63178d946580001e4cef4,29,2022-02-12_13h25.56.510,lexical_decision_task_DD,2021.2.3,iPhone,58.82352941,,,,,,,,,,0.751,1,,,,,,,,,,,,,,,0,0.345918367,-0.287755102,1,0,0,0.751,button_right_main,0.345918367,-0.287755102,1,0,0,,0,8,8,40,1,SWING,HB,old,m,./images/SWINGHB.png,,,,,,,,,,,,,,,,,,,,,,,,,,,,,,,,,
,,,,,,,,,,,,,,,,,5cb63178d946580001e4cef4,29,2022-02-12_13h25.56.510,lexical_decision_task_DD,2021.2.3,iPhone,58.82352941,,,,,,,,,,0.752,1,,,,,,,,,,,,,,,0,0.348979592,-0.270408163,1,0,0,0.752,button_right_main,0.348979592,-0.270408163,1,0,0,,0,9,9,7,1,PAINT,HB,old,m,./images/PAINTHB.png,,,,,,,,,,,,,,,,,,,,,,,,,,,,,,,,,
,,,,,,,,,,,,,,,,,5cb63178d946580001e4cef4,29,2022-02-12_13h25.56.510,lexical_decision_task_DD,2021.2.3,iPhone,58.82352941,,,,,,,,,,0.701,1,,,,,,,,,,,,,,,0,-0.329591837,-0.220408163,1,0,0,0.701,button_left_main,-0.329591837,-0.220408163,1,0,0,,0,10,10,89,1,DRIEK,LB,old,z,./images/DRIEKLB.png,,,,,,,,,,,,,,,,,,,,,,,,,,,,,,,,,
,,,,,,,,,,,,,,,,,5cb63178d946580001e4cef4,29,2022-02-12_13h25.56.510,lexical_decision_task_DD,2021.2.3,iPhone,58.82352941,,,,,,,,,,0.836,1,,,,,,,,,,,,,,,0,-0.346938776,-0.236734694,1,0,0,0.836,button_left_main,-0.346938776,-0.236734694,1,0,0,,0,11,11,160,1,VEETS,HB,old,z,./images/VEETSHB.png,,,,,,,,,,,,,,,,,,,,,,,,,,,,,,,,,
,,,,,,,,,,,,,,,,,5cb63178d946580001e4cef4,29,2022-02-12_13h25.56.510,lexical_decision_task_DD,2021.2.3,iPhone,58.82352941,,,,,,,,,,0.534,1,,,,,,,,,,,,,,,0,0.343877551,-0.313265306,1,0,0,0.534,button_right_main,0.343877551,-0.313265306,1,0,0,,0,12,12,27,1,ATTIC,C,old,m,./images/ATTIC.png,,,,,,,,,,,,,,,,,,,,,,,,,,,,,,,,,
,,,,,,,,,,,,,,,,,5cb63178d946580001e4cef4,29,2022-02-12_13h25.56.510,lexical_decision_task_DD,2021.2.3,iPhone,58.82352941,,,,,,,,,,0.785,1,,,,,,,,,,,,,,,0,-0.332653061,-0.215306122,1,0,0,0.785,button_left_main,-0.332653061,-0.215306122,1,0,0,,0,13,13,166,1,SHORY,HB,old,z,./images/SHORYHB.png,,,,,,,,,,,,,,,,,,,,,,,,,,,,,,,,,
,,,,,,,,,,,,,,,,,5cb63178d946580001e4cef4,29,2022-02-12_13h25.56.510,lexical_decision_task_DD,2021.2.3,iPhone,58.82352941,,,,,,,,,,1.052,1,,,,,,,,,,,,,,,0,-0.336734694,-0.239795918,1,0,0,1.052,button_left_main,-0.336734694,-0.239795918,1,0,0,,0,14,14,97,1,CHIDS,HB,old,z,./images/CHIDSHB.png,,,,,,,,,,,,,,,,,,,,,,,,,,,,,,,,,
,,,,,,,,,,,,,,,,,5cb63178d946580001e4cef4,29,2022-02-12_13h25.56.510,lexical_decision_task_DD,2021.2.3,iPhone,58.82352941,,,,,,,,,,0.569,0,,,,,,,,,,,,,,,0,0.340816327,-0.291836735,1,0,0,0.569,button_right_main,0.340816327,-0.291836735,1,0,0,,0,15,15,116,1,BALGY,LB,old,z,./images/BALGYLB.png,,,,,,,,,,,,,,,,,,,,,,,,,,,,,,,,,
,,,,,,,,,,,,,,,,,5cb63178d946580001e4cef4,29,2022-02-12_13h25.56.510,lexical_decision_task_DD,2021.2.3,iPhone,58.82352941,,,,,,,,,,0.968,1,,,,,,,,,,,,,,,0,-0.329591837,-0.231632653,1,0,0,0.968,button_left_main,-0.329591837,-0.231632653,1,0,0,,0,16,16,121,1,CEERS,HB,old,z,./images/CEERSHB.png,,,,,,,,,,,,,,,,,,,,,,,,,,,,,,,,,
,,,,,,,,,,,,,,,,,5cb63178d946580001e4cef4,29,2022-02-12_13h25.56.510,lexical_decision_task_DD,2021.2.3,iPhone,58.82352941,,,,,,,,,,0.686,1,,,,,,,,,,,,,,,0,0.333673469,-0.287755102,1,0,0,0.686,button_right_main,0.333673469,-0.287755102,1,0,0,,0,17,17,22,1,MELON,HB,old,m,./images/MELONHB.png,,,,,,,,,,,,,,,,,,,,,,,,,,,,,,,,,
,,,,,,,,,,,,,,,,,5cb63178d946580001e4cef4,29,2022-02-12_13h25.56.510,lexical_decision_task_DD,2021.2.3,iPhone,58.82352941,,,,,,,,,,0.669,1,,,,,,,,,,,,,,,0,-0.332653061,-0.239795918,1,0,0,0.669,button_left_main,-0.332653061,-0.239795918,1,0,0,,0,18,18,137,1,JOOST,LB,old,z,./images/JOOSTLB.png,,,,,,,,,,,,,,,,,,,,,,,,,,,,,,,,,
,,,,,,,,,,,,,,,,,5cb63178d946580001e4cef4,29,2022-02-12_13h25.56.510,lexical_decision_task_DD,2021.2.3,iPhone,58.82352941,,,,,,,,,,0.933,1,,,,,,,,,,,,,,,0,-0.342857143,-0.253061224,1,0,0,0.933,button_left_main,-0.342857143,-0.253061224,1,0,0,,0,19,19,164,1,SGREW,LB,old,z,./images/SGREWLB.png,,,,,,,,,,,,,,,,,,,,,,,,,,,,,,,,,
,,,,,,,,,,,,,,,,,5cb63178d946580001e4cef4,29,2022-02-12_13h25.56.510,lexical_decision_task_DD,2021.2.3,iPhone,58.82352941,,,,,,,,,,0.769,1,,,,,,,,,,,,,,,0,0.333673469,-0.314285714,1,0,0,0.769,button_right_main,0.333673469,-0.314285714,1,0,0,,0,20,20,50,1,MALLET,LB,old,m,./images/MALLETLB.png,,,,,,,,,,,,,,,,,,,,,,,,,,,,,,,,,
,,,,,,,,,,,,,,,,,5cb63178d946580001e4cef4,29,2022-02-12_13h25.56.510,lexical_decision_task_DD,2021.2.3,iPhone,58.82352941,,,,,,,,,,0.935,1,,,,,,,,,,,,,,,0,-0.333673469,-0.210204082,1,0,0,0.935,button_left_main,-0.333673469,-0.210204082,1,0,0,,0,21,21,158,1,EGECT,LB,old,z,./images/EGECTLB.png,,,,,,,,,,,,,,,,,,,,,,,,,,,,,,,,,
,,,,,,,,,,,,,,,,,5cb63178d946580001e4cef4,29,2022-02-12_13h25.56.510,lexical_decision_task_DD,2021.2.3,iPhone,58.82352941,,,,,,,,,,0.635,1,,,,,,,,,,,,,,,0,0.340816327,-0.281632653,1,0,0,0.635,button_right_main,0.340816327,-0.281632653,1,0,0,,0,22,22,78,1,LITTER,C,old,m,./images/LITTER.png,,,,,,,,,,,,,,,,,,,,,,,,,,,,,,,,,
,,,,,,,,,,,,,,,,,5cb63178d946580001e4cef4,29,2022-02-12_13h25.56.510,lexical_decision_task_DD,2021.2.3,iPhone,58.82352941,,,,,,,,,,0.736,1,,,,,,,,,,,,,,,0,-0.323469388,-0.233673469,1,0,0,0.736,button_left_main,-0.323469388,-0.233673469,1,0,0,,0,23,23,131,1,NACES,LB,old,z,./images/NACESLB.png,,,,,,,,,,,,,,,,,,,,,,,,,,,,,,,,,
,,,,,,,,,,,,,,,,,5cb63178d946580001e4cef4,29,2022-02-12_13h25.56.510,lexical_decision_task_DD,2021.2.3,iPhone,58.82352941,,,,,,,,,,0.667,1,,,,,,,,,,,,,,,0,0.344897959,-0.307142857,1,0,0,0.667,button_right_main,0.344897959,-0.307142857,1,0,0,,0,24,24,57,1,MOOSE,C,old,m,./images/MOOSE.png,,,,,,,,,,,,,,,,,,,,,,,,,,,,,,,,,
,,,,,,,,,,,,,,,,,5cb63178d946580001e4cef4,29,2022-02-12_13h25.56.510,lexical_decision_task_DD,2021.2.3,iPhone,58.82352941,,,,,,,,,,0.669,1,,,,,,,,,,,,,,,0,-0.323469388,-0.233673469,1,0,0,0.669,button_left_main,-0.323469388,-0.233673469,1,0,0,,0,25,25,101,1,GLEET,LB,old,z,./images/GLEETLB.png,,,,,,,,,,,,,,,,,,,,,,,,,,,,,,,,,
,,,,,,,,,,,,,,,,,5cb63178d946580001e4cef4,29,2022-02-12_13h25.56.510,lexical_decision_task_DD,2021.2.3,iPhone,58.82352941,,,,,,,,,,0.687,1,,,,,,,,,,,,,,,0,0.346938776,-0.28877551,1,0,0,0.687,button_right_main,0.346938776,-0.28877551,1,0,0,,0,26,26,18,1,JAGUAR,C,old,m,./images/JAGUAR.png,,,,,,,,,,,,,,,,,,,,,,,,,,,,,,,,,
,,,,,,,,,,,,,,,,,5cb63178d946580001e4cef4,29,2022-02-12_13h25.56.510,lexical_decision_task_DD,2021.2.3,iPhone,58.82352941,,,,,,,,,,0.897,1,,,,,,,,,,,,,,,0,-0.336734694,-0.202040816,1,0,0,0.897,button_left_main,-0.336734694,-0.202040816,1,0,0,,0,27,27,123,1,SEDGE,C,old,z,./images/SEDGE.png,,,,,,,,,,,,,,,,,,,,,,,,,,,,,,,,,
,,,,,,,,,,,,,,,,,5cb63178d946580001e4cef4,29,2022-02-12_13h25.56.510,lexical_decision_task_DD,2021.2.3,iPhone,58.82352941,,,,,,,,,,0.537,1,,,,,,,,,,,,,,,0,0.346938776,-0.278571429,1,0,0,0.537,button_right_main,0.346938776,-0.278571429,1,0,0,,0,28,28,51,1,ONION,C,old,m,./images/ONION.png,,,,,,,,,,,,,,,,,,,,,,,,,,,,,,,,,
,,,,,,,,,,,,,,,,,5cb63178d946580001e4cef4,29,2022-02-12_13h25.56.510,lexical_decision_task_DD,2021.2.3,iPhone,58.82352941,,,,,,,,,,0.819,1,,,,,,,,,,,,,,,0,0.335714286,-0.285714286,1,0,0,0.819,button_right_main,0.335714286,-0.285714286,1,0,0,,0,29,29,54,1,TRIPOD,C,old,m,./images/TRIPOD.png,,,,,,,,,,,,,,,,,,,,,,,,,,,,,,,,,
,,,,,,,,,,,,,,,,,5cb63178d946580001e4cef4,29,2022-02-12_13h25.56.510,lexical_decision_task_DD,2021.2.3,iPhone,58.82352941,,,,,,,,,,0.97,0,,,,,,,,,,,,,,,0,-0.328571429,-0.22244898,1,0,0,0.97,button_left_main,-0.328571429,-0.22244898,1,0,0,,0,30,30,61,1,CANDLE,HB,old,m,./images/CANDLEHB.png,,,,,,,,,,,,,,,,,,,,,,,,,,,,,,,,,
,,,,,,,,,,,,,,,,,5cb63178d946580001e4cef4,29,2022-02-12_13h25.56.510,lexical_decision_task_DD,2021.2.3,iPhone,58.82352941,,,,,,,,,,0.584,1,,,,,,,,,,,,,,,0,0.339795918,-0.292857143,1,0,0,0.584,button_right_main,0.339795918,-0.292857143,1,0,0,,0,31,31,83,1,JUNGLE,LB,old,m,./images/JUNGLELB.png,,,,,,,,,,,,,,,,,,,,,,,,,,,,,,,,,
,,,,,,,,,,,,,,,,,5cb63178d946580001e4cef4,29,2022-02-12_13h25.56.510,lexical_decision_task_DD,2021.2.3,iPhone,58.82352941,,,,,,,,,,0.786,1,,,,,,,,,,,,,,,0,0.329591837,-0.283673469,1,0,0,0.786,button_right_main,0.329591837,-0.283673469,1,0,0,,0,32,32,4,1,MUSCLE,HB,old,m,./images/MUSCLEHB.png,,,,,,,,,,,,,,,,,,,,,,,,,,,,,,,,,
,,,,,,,,,,,,,,,,,5cb63178d946580001e4cef4,29,2022-02-12_13h25.56.510,lexical_decision_task_DD,2021.2.3,iPhone,58.82352941,,,,,,,,,,0.736,1,,,,,,,,,,,,,,,0,0.331632653,-0.278571429,1,0,0,0.736,button_right_main,0.331632653,-0.278571429,1,0,0,,0,33,33,33,1,MAGGOT,C,old,m,./images/MAGGOT.png,,,,,,,,,,,,,,,,,,,,,,,,,,,,,,,,,
,,,,,,,,,,,,,,,,,5cb63178d946580001e4cef4,29,2022-02-12_13h25.56.510,lexical_decision_task_DD,2021.2.3,iPhone,58.82352941,,,,,,,,,,0.55,1,,,,,,,,,,,,,,,0,0.340816327,-0.306122449,1,0,0,0.55,button_right_main,0.340816327,-0.306122449,1,0,0,,0,34,34,81,1,POODLE,C,old,m,./images/POODLE.png,,,,,,,,,,,,,,,,,,,,,,,,,,,,,,,,,
,,,,,,,,,,,,,,,,,5cb63178d946580001e4cef4,29,2022-02-12_13h25.56.510,lexical_decision_task_DD,2021.2.3,iPhone,58.82352941,,,,,,,,,,0.734,1,,,,,,,,,,,,,,,0,-0.316326531,-0.243877551,1,0,0,0.734,button_left_main,-0.316326531,-0.243877551,1,0,0,,0,35,35,98,1,BAMPS,LB,old,z,./images/BAMPSLB.png,,,,,,,,,,,,,,,,,,,,,,,,,,,,,,,,,
,,,,,,,,,,,,,,,,,5cb63178d946580001e4cef4,29,2022-02-12_13h25.56.510,lexical_decision_task_DD,2021.2.3,iPhone,58.82352941,,,,,,,,,,0.635,1,,,,,,,,,,,,,,,0,0.343877551,-0.303061224,1,0,0,0.635,button_right_main,0.343877551,-0.303061224,1,0,0,,0,36,36,3,1,FINGER,C,old,m,./images/FINGER.png,,,,,,,,,,,,,,,,,,,,,,,,,,,,,,,,,
,,,,,,,,,,,,,,,,,5cb63178d946580001e4cef4,29,2022-02-12_13h25.56.510,lexical_decision_task_DD,2021.2.3,iPhone,58.82352941,,,,,,,,,,0.901,1,,,,,,,,,,,,,,,0,0.328571429,-0.305102041,1,0,0,0.901,button_right_main,0.328571429,-0.305102041,1,0,0,,0,37,37,9,1,RHINO,C,old,m,./images/RHINO.png,,,,,,,,,,,,,,,,,,,,,,,,,,,,,,,,,
,,,,,,,,,,,,,,,,,5cb63178d946580001e4cef4,29,2022-02-12_13h25.56.510,lexical_decision_task_DD,2021.2.3,iPhone,58.82352941,,,,,,,,,,0.867,1,,,,,,,,,,,,,,,0,-0.31122449,-0.253061224,1,0,0,0.867,button_left_main,-0.31122449,-0.253061224,1,0,0,,0,38,38,130,1,CRILL,HB,old,z,./images/CRILLHB.png,,,,,,,,,,,,,,,,,,,,,,,,,,,,,,,,,
,,,,,,,,,,,,,,,,,5cb63178d946580001e4cef4,29,2022-02-12_13h25.56.510,lexical_decision_task_DD,2021.2.3,iPhone,58.82352941,,,,,,,,,,0.669,1,,,,,,,,,,,,,,,0,-0.32755102,-0.233673469,1,0,0,0.669,button_left_main,-0.32755102,-0.233673469,1,0,0,,0,39,39,124,1,TUNCH,HB,old,z,./images/TUNCHHB.png,,,,,,,,,,,,,,,,,,,,,,,,,,,,,,,,,
,,,,,,,,,,,,,,,,,5cb63178d946580001e4cef4,29,2022-02-12_13h25.56.510,lexical_decision_task_DD,2021.2.3,iPhone,58.82352941,,,,,,,,,,0.919,0,,,,,,,,,,,,,,,0,-0.320408163,-0.231632653,1,0,0,0.919,button_left_main,-0.320408163,-0.231632653,1,0,0,,0,40,40,31,1,QUILL,HB,old,m,./images/QUILLHB.png,,,,,,,,,,,,,,,,,,,,,,,,,,,,,,,,,
,,,,,,,,,,,,,,,,,5cb63178d946580001e4cef4,29,2022-02-12_13h25.56.510,lexical_decision_task_DD,2021.2.3,iPhone,58.82352941,,,,,,,,,,0.718,1,,,,,,,,,,,,,,,0,-0.306122449,-0.241836735,1,0,0,0.718,button_left_main,-0.120408163,-0.366326531,1,0,0,,0,41,41,95,1,HANTY,LB,old,z,./images/HANTYLB.png,break_done_button,,,,,,,,,,,,,,,,,,,,,,,,,,,,,,,,
,,,,,,,,,,,,,,,,,5cb63178d946580001e4cef4,29,2022-02-12_13h25.56.510,lexical_decision_task_DD,2021.2.3,iPhone,58.82352941,,,,,,,,,,1.002,1,,,,,,,,,,,,,,,0,0.345918367,-0.26122449,1,0,0,1.002,button_right_main,0.345918367,-0.26122449,1,0,0,,0,42,42,79,1,CRUST,HB,old,m,./images/CRUSTHB.png,,,,,,,,,,,,,,,,,,,,,,,,,,,,,,,,,
,,,,,,,,,,,,,,,,,5cb63178d946580001e4cef4,29,2022-02-12_13h25.56.510,lexical_decision_task_DD,2021.2.3,iPhone,58.82352941,,,,,,,,,,0.651,1,,,,,,,,,,,,,,,0,0.328571429,-0.298979592,1,0,0,0.651,button_right_main,0.328571429,-0.298979592,1,0,0,,0,43,43,45,1,KITTEN,C,old,m,./images/KITTEN.png,,,,,,,,,,,,,,,,,,,,,,,,,,,,,,,,,
,,,,,,,,,,,,,,,,,5cb63178d946580001e4cef4,29,2022-02-12_13h25.56.510,lexical_decision_task_DD,2021.2.3,iPhone,58.82352941,,,,,,,,,,1.318,1,,,,,,,,,,,,,,,0,0.328571429,-0.303061224,1,0,0,1.318,button_right_main,0.328571429,-0.303061224,1,0,0,,0,44,44,46,1,PEARL,HB,old,m,./images/PEARLHB.png,,,,,,,,,,,,,,,,,,,,,,,,,,,,,,,,,
,,,,,,,,,,,,,,,,,5cb63178d946580001e4cef4,29,2022-02-12_13h25.56.510,lexical_decision_task_DD,2021.2.3,iPhone,58.82352941,,,,,,,,,,0.485,1,,,,,,,,,,,,,,,0,0.340816327,-0.302040816,1,0,0,0.485,button_right_main,0.340816327,-0.302040816,1,0,0,,0,45,45,44,1,LIZARD,LB,old,m,./images/LIZARDLB.png,,,,,,,,,,,,,,,,,,,,,,,,,,,,,,,,,
,,,,,,,,,,,,,,,,,5cb63178d946580001e4cef4,29,2022-02-12_13h25.56.510,lexical_decision_task_DD,2021.2.3,iPhone,58.82352941,,,,,,,,,,0.617,1,,,,,,,,,,,,,,,0,-0.332653061,-0.254081633,1,0,0,0.617,button_left_main,-0.332653061,-0.254081633,1,0,0,,0,46,46,93,1,SMONE,C,old,z,./images/SMONE.png,,,,,,,,,,,,,,,,,,,,,,,,,,,,,,,,,
,,,,,,,,,,,,,,,,,5cb63178d946580001e4cef4,29,2022-02-12_13h25.56.510,lexical_decision_task_DD,2021.2.3,iPhone,58.82352941,,,,,,,,,,1.335,1,,,,,,,,,,,,,,,0,0.353061224,-0.31122449,1,0,0,1.335,button_right_main,0.353061224,-0.31122449,1,0,0,,0,47,47,1,1,PLANK,HB,old,m,./images/PLANKHB.png,,,,,,,,,,,,,,,,,,,,,,,,,,,,,,,,,
,,,,,,,,,,,,,,,,,5cb63178d946580001e4cef4,29,2022-02-12_13h25.56.510,lexical_decision_task_DD,2021.2.3,iPhone,58.82352941,,,,,,,,,,0.887,1,,,,,,,,,,,,,,,0,-0.312244898,-0.231632653,1,0,0,0.887,button_left_main,-0.312244898,-0.231632653,1,0,0,,0,48,48,148,1,JOMS,HB,old,z,./images/JOMSHB.png,,,,,,,,,,,,,,,,,,,,,,,,,,,,,,,,,
,,,,,,,,,,,,,,,,,5cb63178d946580001e4cef4,29,2022-02-12_13h25.56.510,lexical_decision_task_DD,2021.2.3,iPhone,58.82352941,,,,,,,,,,0.519,1,,,,,,,,,,,,,,,0,0.341836735,-0.332653061,1,0,0,0.519,button_right_main,0.341836735,-0.332653061,1,0,0,,0,49,49,6,1,SQUARE,C,old,m,./images/SQUARE.png,,,,,,,,,,,,,,,,,,,,,,,,,,,,,,,,,
,,,,,,,,,,,,,,,,,5cb63178d946580001e4cef4,29,2022-02-12_13h25.56.510,lexical_decision_task_DD,2021.2.3,iPhone,58.82352941,,,,,,,,,,0.902,1,,,,,,,,,,,,,,,0,-0.331632653,-0.231632653,1,0,0,0.902,button_left_main,-0.331632653,-0.231632653,1,0,0,,0,50,50,100,1,DRIBS,HB,old,z,./images/DRIBSHB.png,,,,,,,,,,,,,,,,,,,,,,,,,,,,,,,,,
,,,,,,,,,,,,,,,,,5cb63178d946580001e4cef4,29,2022-02-12_13h25.56.510,lexical_decision_task_DD,2021.2.3,iPhone,58.82352941,,,,,,,,,,0.769,1,,,,,,,,,,,,,,,0,0.333673469,-0.319387755,1,0,0,0.769,button_right_main,0.333673469,-0.319387755,1,0,0,,0,51,51,15,1,GREASE,C,old,m,./images/GREASE.png,,,,,,,,,,,,,,,,,,,,,,,,,,,,,,,,,
,,,,,,,,,,,,,,,,,5cb63178d946580001e4cef4,29,2022-02-12_13h25.56.510,lexical_decision_task_DD,2021.2.3,iPhone,58.82352941,,,,,,,,,,0.819,1,,,,,,,,,,,,,,,0,0.333673469,-0.328571429,1,0,0,0.819,button_right_main,0.333673469,-0.328571429,1,0,0,,0,52,52,77,1,COUCH,LB,old,m,./images/COUCHLB.png,,,,,,,,,,,,,,,,,,,,,,,,,,,,,,,,,
,,,,,,,,,,,,,,,,,5cb63178d946580001e4cef4,29,2022-02-12_13h25.56.510,lexical_decision_task_DD,2021.2.3,iPhone,58.82352941,,,,,,,,,,0.686,1,,,,,,,,,,,,,,,0,-0.344897959,-0.205102041,1,0,0,0.686,button_left_main,-0.344897959,-0.205102041,1,0,0,,0,53,53,136,1,WERVE,HB,old,z,./images/WERVEHB.png,,,,,,,,,,,,,,,,,,,,,,,,,,,,,,,,,
,,,,,,,,,,,,,,,,,5cb63178d946580001e4cef4,29,2022-02-12_13h25.56.510,lexical_decision_task_DD,2021.2.3,iPhone,58.82352941,,,,,,,,,,1.036,1,,,,,,,,,,,,,,,0,-0.346938776,-0.228571429,1,0,0,1.036,button_left_main,-0.346938776,-0.228571429,1,0,0,,0,54,54,122,1,BLOOT,LB,old,z,./images/BLOOTLB.png,,,,,,,,,,,,,,,,,,,,,,,,,,,,,,,,,
,,,,,,,,,,,,,,,,,5cb63178d946580001e4cef4,29,2022-02-12_13h25.56.510,lexical_decision_task_DD,2021.2.3,iPhone,58.82352941,,,,,,,,,,0.619,1,,,,,,,,,,,,,,,0,-0.367346939,-0.226530612,1,0,0,0.619,button_left_main,-0.367346939,-0.226530612,1,0,0,,0,55,55,153,1,CLUPS,C,old,z,./images/CLUPS.png,,,,,,,,,,,,,,,,,,,,,,,,,,,,,,,,,
,,,,,,,,,,,,,,,,,5cb63178d946580001e4cef4,29,2022-02-12_13h25.56.510,lexical_decision_task_DD,2021.2.3,iPhone,58.82352941,,,,,,,,,,0.568,1,,,,,,,,,,,,,,,0,-0.356122449,-0.207142857,1,0,0,0.568,button_left_main,-0.356122449,-0.207142857,1,0,0,,0,56,56,162,1,LEICH,C,old,z,./images/LEICH.png,,,,,,,,,,,,,,,,,,,,,,,,,,,,,,,,,
,,,,,,,,,,,,,,,,,5cb63178d946580001e4cef4,29,2022-02-12_13h25.56.510,lexical_decision_task_DD,2021.2.3,iPhone,58.82352941,,,,,,,,,,0.685,1,,,,,,,,,,,,,,,0,-0.334693878,-0.209183673,1,0,0,0.685,button_left_main,-0.334693878,-0.209183673,1,0,0,,0,57,57,107,1,FASKS,LB,old,z,./images/FASKSLB.png,,,,,,,,,,,,,,,,,,,,,,,,,,,,,,,,,
,,,,,,,,,,,,,,,,,5cb63178d946580001e4cef4,29,2022-02-12_13h25.56.510,lexical_decision_task_DD,2021.2.3,iPhone,58.82352941,,,,,,,,,,0.768,1,,,,,,,,,,,,,,,0,-0.332653061,-0.201020408,1,0,0,0.768,button_left_main,-0.332653061,-0.201020408,1,0,0,,0,58,58,119,1,PAFER,LB,old,z,./images/PAFERLB.png,,,,,,,,,,,,,,,,,,,,,,,,,,,,,,,,,
,,,,,,,,,,,,,,,,,5cb63178d946580001e4cef4,29,2022-02-12_13h25.56.510,lexical_decision_task_DD,2021.2.3,iPhone,58.82352941,,,,,,,,,,0.785,1,,,,,,,,,,,,,,,0,0.331632653,-0.289795918,1,0,0,0.785,button_right_main,0.331632653,-0.289795918,1,0,0,,0,59,59,65,1,FARMER,LB,old,m,./images/FARMERLB.png,,,,,,,,,,,,,,,,,,,,,,,,,,,,,,,,,
,,,,,,,,,,,,,,,,,5cb63178d946580001e4cef4,29,2022-02-12_13h25.56.510,lexical_decision_task_DD,2021.2.3,iPhone,58.82352941,,,,,,,,,,0.686,1,,,,,,,,,,,,,,,0,-0.333673469,-0.235714286,1,0,0,0.686,button_left_main,-0.333673469,-0.235714286,1,0,0,,0,60,60,94,1,BLANS,HB,old,z,./images/BLANSHB.png,,,,,,,,,,,,,,,,,,,,,,,,,,,,,,,,,
,,,,,,,,,,,,,,,,,5cb63178d946580001e4cef4,29,2022-02-12_13h25.56.510,lexical_decision_task_DD,2021.2.3,iPhone,58.82352941,,,,,,,,,,0.802,1,,,,,,,,,,,,,,,0,0.333673469,-0.289795918,1,0,0,0.802,button_right_main,0.333673469,-0.289795918,1,0,0,,0,61,61,13,1,MOTOR,HB,old,m,./images/MOTORHB.png,,,,,,,,,,,,,,,,,,,,,,,,,,,,,,,,,
,,,,,,,,,,,,,,,,,5cb63178d946580001e4cef4,29,2022-02-12_13h25.56.510,lexical_decision_task_DD,2021.2.3,iPhone,58.82352941,,,,,,,,,,0.619,1,,,,,,,,,,,,,,,0,0.339795918,-0.306122449,1,0,0,0.619,button_right_main,0.339795918,-0.306122449,1,0,0,,0,62,62,35,1,PEACH,LB,old,m,./images/PEACHLB.png,,,,,,,,,,,,,,,,,,,,,,,,,,,,,,,,,
,,,,,,,,,,,,,,,,,5cb63178d946580001e4cef4,29,2022-02-12_13h25.56.510,lexical_decision_task_DD,2021.2.3,iPhone,58.82352941,,,,,,,,,,0.668,1,,,,,,,,,,,,,,,0,0.340816327,-0.306122449,1,0,0,0.668,button_right_main,0.340816327,-0.306122449,1,0,0,,0,63,63,82,1,SUNSET,HB,old,m,./images/SUNSETHB.png,,,,,,,,,,,,,,,,,,,,,,,,,,,,,,,,,
,,,,,,,,,,,,,,,,,5cb63178d946580001e4cef4,29,2022-02-12_13h25.56.510,lexical_decision_task_DD,2021.2.3,iPhone,58.82352941,,,,,,,,,,0.753,1,,,,,,,,,,,,,,,0,-0.341836735,-0.245918367,1,0,0,0.753,button_left_main,-0.341836735,-0.245918367,1,0,0,,0,64,64,145,1,LAMEL,HB,old,z,./images/LAMELHB.png,,,,,,,,,,,,,,,,,,,,,,,,,,,,,,,,,
,,,,,,,,,,,,,,,,,5cb63178d946580001e4cef4,29,2022-02-12_13h25.56.510,lexical_decision_task_DD,2021.2.3,iPhone,58.82352941,,,,,,,,,,0.72,1,,,,,,,,,,,,,,,0,0.340816327,-0.323469388,1,0,0,0.72,button_right_main,0.340816327,-0.323469388,1,0,0,,0,65,65,66,1,SWEAT,C,old,m,./images/SWEAT.png,,,,,,,,,,,,,,,,,,,,,,,,,,,,,,,,,
,,,,,,,,,,,,,,,,,5cb63178d946580001e4cef4,29,2022-02-12_13h25.56.510,lexical_decision_task_DD,2021.2.3,iPhone,58.82352941,,,,,,,,,,0.653,1,,,,,,,,,,,,,,,0,-0.340816327,-0.218367347,1,0,0,0.653,button_left_main,-0.340816327,-0.218367347,1,0,0,,0,66,66,161,1,BLAPS,LB,old,z,./images/BLAPSLB.png,,,,,,,,,,,,,,,,,,,,,,,,,,,,,,,,,
,,,,,,,,,,,,,,,,,5cb63178d946580001e4cef4,29,2022-02-12_13h25.56.510,lexical_decision_task_DD,2021.2.3,iPhone,58.82352941,,,,,,,,,,0.652,1,,,,,,,,,,,,,,,0,-0.354081633,-0.220408163,1,0,0,0.652,button_left_main,-0.354081633,-0.220408163,1,0,0,,0,67,67,143,1,MONGS,LB,old,z,./images/MONGSLB.png,,,,,,,,,,,,,,,,,,,,,,,,,,,,,,,,,
,,,,,,,,,,,,,,,,,5cb63178d946580001e4cef4,29,2022-02-12_13h25.56.510,lexical_decision_task_DD,2021.2.3,iPhone,58.82352941,,,,,,,,,,0.62,1,,,,,,,,,,,,,,,0,0.344897959,-0.287755102,1,0,0,0.62,button_right_main,0.344897959,-0.287755102,1,0,0,,0,68,68,48,1,SPORT,C,old,m,./images/SPORT.png,,,,,,,,,,,,,,,,,,,,,,,,,,,,,,,,,
,,,,,,,,,,,,,,,,,5cb63178d946580001e4cef4,29,2022-02-12_13h25.56.510,lexical_decision_task_DD,2021.2.3,iPhone,58.82352941,,,,,,,,,,0.67,1,,,,,,,,,,,,,,,0,-0.341836735,-0.195918367,1,0,0,0.67,button_left_main,-0.329591837,-0.251020408,1,0,0,,0,69,69,109,1,BURGE,HB,old,z,./images/BURGEHB.png,,,,,,,,,,,,,,,,,,,,,,,,,,,,,,,,,
,,,,,,,,,,,,,,,,,5cb63178d946580001e4cef4,29,2022-02-12_13h25.56.510,lexical_decision_task_DD,2021.2.3,iPhone,58.82352941,,,,,,,,,,0.518,0,,,,,,,,,,,,,,,0,0.329591837,-0.319387755,1,0,0,0.518,button_right_main,0.329591837,-0.319387755,1,0,0,,0,70,70,113,1,LINEW,LB,old,z,./images/LINEWLB.png,,,,,,,,,,,,,,,,,,,,,,,,,,,,,,,,,
,,,,,,,,,,,,,,,,,5cb63178d946580001e4cef4,29,2022-02-12_13h25.56.510,lexical_decision_task_DD,2021.2.3,iPhone,58.82352941,,,,,,,,,,0.819,1,,,,,,,,,,,,,,,0,0.328571429,-0.316326531,1,0,0,0.819,button_right_main,0.328571429,-0.316326531,1,0,0,,0,71,71,28,1,FALCON,HB,old,m,./images/FALCONHB.png,,,,,,,,,,,,,,,,,,,,,,,,,,,,,,,,,
,,,,,,,,,,,,,,,,,5cb63178d946580001e4cef4,29,2022-02-12_13h25.56.510,lexical_decision_task_DD,2021.2.3,iPhone,58.82352941,,,,,,,,,,0.669,1,,,,,,,,,,,,,,,0,0.328571429,-0.333673469,1,0,0,0.669,button_right_main,0.328571429,-0.333673469,1,0,0,,0,72,72,39,1,SHELF,C,old,m,./images/SHELF.png,,,,,,,,,,,,,,,,,,,,,,,,,,,,,,,,,
,,,,,,,,,,,,,,,,,5cb63178d946580001e4cef4,29,2022-02-12_13h25.56.510,lexical_decision_task_DD,2021.2.3,iPhone,58.82352941,,,,,,,,,,0.683,1,,,,,,,,,,,,,,,0,0.328571429,-0.310204082,1,0,0,0.683,button_right_main,0.328571429,-0.310204082,1,0,0,,0,73,73,56,1,PACKET,LB,old,m,./images/PACKETLB.png,,,,,,,,,,,,,,,,,,,,,,,,,,,,,,,,,
,,,,,,,,,,,,,,,,,5cb63178d946580001e4cef4,29,2022-02-12_13h25.56.510,lexical_decision_task_DD,2021.2.3,iPhone,58.82352941,,,,,,,,,,0.731,0,,,,,,,,,,,,,,,0,-0.331632653,-0.241836735,1,0,0,0.731,button_left_main,-0.331632653,-0.241836735,1,0,0,,0,74,74,43,1,MOSQUE,HB,old,m,./images/MOSQUEHB.png,,,,,,,,,,,,,,,,,,,,,,,,,,,,,,,,,
,,,,,,,,,,,,,,,,,5cb63178d946580001e4cef4,29,2022-02-12_13h25.56.510,lexical_decision_task_DD,2021.2.3,iPhone,58.82352941,,,,,,,,,,0.786,1,,,,,,,,,,,,,,,0,-0.332653061,-0.257142857,1,0,0,0.786,button_left_main,-0.332653061,-0.257142857,1,0,0,,0,75,75,112,1,MYING,HB,old,z,./images/MYINGHB.png,,,,,,,,,,,,,,,,,,,,,,,,,,,,,,,,,
,,,,,,,,,,,,,,,,,5cb63178d946580001e4cef4,29,2022-02-12_13h25.56.510,lexical_decision_task_DD,2021.2.3,iPhone,58.82352941,,,,,,,,,,0.953,1,,,,,,,,,,,,,,,0,-0.344897959,-0.236734694,1,0,0,0.953,button_left_main,-0.344897959,-0.236734694,1,0,0,,0,76,76,142,1,PLASK,HB,old,z,./images/PLASKHB.png,,,,,,,,,,,,,,,,,,,,,,,,,,,,,,,,,
,,,,,,,,,,,,,,,,,5cb63178d946580001e4cef4,29,2022-02-12_13h25.56.510,lexical_decision_task_DD,2021.2.3,iPhone,58.82352941,,,,,,,,,,0.799,1,,,,,,,,,,,,,,,0,0.332653061,-0.320408163,1,0,0,0.799,button_right_main,0.332653061,-0.320408163,1,0,0,,0,77,77,19,1,DOUGH,HB,old,m,./images/DOUGHHB.png,,,,,,,,,,,,,,,,,,,,,,,,,,,,,,,,,
,,,,,,,,,,,,,,,,,5cb63178d946580001e4cef4,29,2022-02-12_13h25.56.510,lexical_decision_task_DD,2021.2.3,iPhone,58.82352941,,,,,,,,,,0.703,1,,,,,,,,,,,,,,,0,-0.334693878,-0.243877551,1,0,0,0.703,button_left_main,-0.334693878,-0.243877551,1,0,0,,0,78,78,87,1,TRING,C,old,z,./images/TRING.png,,,,,,,,,,,,,,,,,,,,,,,,,,,,,,,,,
,,,,,,,,,,,,,,,,,5cb63178d946580001e4cef4,29,2022-02-12_13h25.56.510,lexical_decision_task_DD,2021.2.3,iPhone,58.82352941,,,,,,,,,,0.637,1,,,,,,,,,,,,,,,0,-0.344897959,-0.241836735,1,0,0,0.637,button_left_main,-0.344897959,-0.241836735,1,0,0,,0,79,79,146,1,MOOST,LB,old,z,./images/MOOSTLB.png,,,,,,,,,,,,,,,,,,,,,,,,,,,,,,,,,
,,,,,,,,,,,,,,,,,5cb63178d946580001e4cef4,29,2022-02-12_13h25.56.510,lexical_decision_task_DD,2021.2.3,iPhone,58.82352941,,,,,,,,,,0.884,1,,,,,,,,,,,,,,,0,0.323469388,-0.295918367,1,0,0,0.884,button_right_main,0.323469388,-0.295918367,1,0,0,,0,80,80,73,1,SNACK,HB,old,m,./images/SNACKHB.png,,,,,,,,,,,,,,,,,,,,,,,,,,,,,,,,,
,,,,,,,,,,,,,,,,,5cb63178d946580001e4cef4,29,2022-02-12_13h25.56.510,lexical_decision_task_DD,2021.2.3,iPhone,58.82352941,,,,,,,,,,0.852,0,,,,,,,,,,,,,,,0,0.337755102,-0.278571429,1,0,0,0.852,button_right_main,0.337755102,-0.278571429,1,0,0,,0,81,81,128,1,GRIFT,LB,old,z,./images/GRIFTLB.png,,,,,,,,,,,,,,,,,,,,,,,,,,,,,,,,,
,,,,,,,,,,,,,,,,,5cb63178d946580001e4cef4,29,2022-02-12_13h25.56.510,lexical_decision_task_DD,2021.2.3,iPhone,58.82352941,,,,,,,,,,0.668,1,,,,,,,,,,,,,,,0,0.326530612,-0.323469388,1,0,0,0.668,button_right_main,0.326530612,-0.323469388,1,0,0,,0,82,82,10,1,BELLY,HB,old,m,./images/BELLYHB.png,,,,,,,,,,,,,,,,,,,,,,,,,,,,,,,,,
,,,,,,,,,,,,,,,,,5cb63178d946580001e4cef4,29,2022-02-12_13h25.56.510,lexical_decision_task_DD,2021.2.3,iPhone,58.82352941,,,,,,,,,,0.835,1,,,,,,,,,,,,,,,0,-0.35,-0.247959184,1,0,0,0.835,button_left_main,0.031632653,-0.389795918,1,0,0,,0,83,83,149,1,VEASE,LB,old,z,./images/VEASELB.png,break_done_button,,,,,,,,,,,,,,,,,,,,,,,,,,,,,,,,
,,,,,,,,,,,,,,,,,5cb63178d946580001e4cef4,29,2022-02-12_13h25.56.510,lexical_decision_task_DD,2021.2.3,iPhone,58.82352941,,,,,,,,,,0.746,1,,,,,,,,,,,,,,,0,0.336734694,-0.297959184,1,0,0,0.746,button_right_main,0.336734694,-0.297959184,1,0,0,,0,84,84,74,1,CEMENT,LB,old,m,./images/CEMENTLB.png,,,,,,,,,,,,,,,,,,,,,,,,,,,,,,,,,
,,,,,,,,,,,,,,,,,5cb63178d946580001e4cef4,29,2022-02-12_13h25.56.510,lexical_decision_task_DD,2021.2.3,iPhone,58.82352941,,,,,,,,,,0.568,1,,,,,,,,,,,,,,,0,0.343877551,-0.263265306,1,0,0,0.568,button_right_main,0.343877551,-0.263265306,1,0,0,,0,85,85,69,1,COOKER,C,old,m,./images/COOKER.png,,,,,,,,,,,,,,,,,,,,,,,,,,,,,,,,,
,,,,,,,,,,,,,,,,,5cb63178d946580001e4cef4,29,2022-02-12_13h25.56.510,lexical_decision_task_DD,2021.2.3,iPhone,58.82352941,,,,,,,,,,0.984,1,,,,,,,,,,,,,,,0,-0.321428571,-0.278571429,1,0,0,0.984,button_left_main,-0.321428571,-0.278571429,1,0,0,,0,86,86,127,1,NINDY,HB,old,z,./images/NINDYHB.png,,,,,,,,,,,,,,,,,,,,,,,,,,,,,,,,,
,,,,,,,,,,,,,,,,,5cb63178d946580001e4cef4,29,2022-02-12_13h25.56.510,lexical_decision_task_DD,2021.2.3,iPhone,58.82352941,,,,,,,,,,0.584,1,,,,,,,,,,,,,,,0,-0.363265306,-0.239795918,1,0,0,0.584,button_left_main,-0.363265306,-0.239795918,1,0,0,,0,87,87,163,1,GAMBA,HB,old,z,./images/GAMBAHB.png,,,,,,,,,,,,,,,,,,,,,,,,,,,,,,,,,
,,,,,,,,,,,,,,,,,5cb63178d946580001e4cef4,29,2022-02-12_13h25.56.510,lexical_decision_task_DD,2021.2.3,iPhone,58.82352941,,,,,,,,,,0.551,1,,,,,,,,,,,,,,,0,-0.364285714,-0.276530612,1,0,0,0.551,button_left_main,-0.364285714,-0.276530612,1,0,0,,0,88,88,139,1,BLEAR,HB,old,z,./images/BLEARHB.png,,,,,,,,,,,,,,,,,,,,,,,,,,,,,,,,,
,,,,,,,,,,,,,,,,,5cb63178d946580001e4cef4,29,2022-02-12_13h25.56.510,lexical_decision_task_DD,2021.2.3,iPhone,58.82352941,,,,,,,,,,0.57,1,,,,,,,,,,,,,,,0,-0.379591837,-0.241836735,1,0,0,0.57,button_left_main,-0.379591837,-0.241836735,1,0,0,,0,89,89,118,1,BAVEL,HB,old,z,./images/BAVELHB.png,,,,,,,,,,,,,,,,,,,,,,,,,,,,,,,,,
,,,,,,,,,,,,,,,,,5cb63178d946580001e4cef4,29,2022-02-12_13h25.56.510,lexical_decision_task_DD,2021.2.3,iPhone,58.82352941,,,,,,,,,,0.569,1,,,,,,,,,,,,,,,0,-0.375510204,-0.226530612,1,0,0,0.569,button_left_main,-0.375510204,-0.226530612,1,0,0,,0,90,90,110,1,CRUNK,LB,old,z,./images/CRUNKLB.png,,,,,,,,,,,,,,,,,,,,,,,,,,,,,,,,,
,,,,,,,,,,,,,,,,,5cb63178d946580001e4cef4,29,2022-02-12_13h25.56.510,lexical_decision_task_DD,2021.2.3,iPhone,58.82352941,,,,,,,,,,0.735,1,,,,,,,,,,,,,,,0,-0.383673469,-0.22244898,1,0,0,0.735,button_left_main,-0.383673469,-0.22244898,1,0,0,,0,91,91,157,1,INLER,HB,old,z,./images/INLERHB.png,,,,,,,,,,,,,,,,,,,,,,,,,,,,,,,,,
,,,,,,,,,,,,,,,,,5cb63178d946580001e4cef4,29,2022-02-12_13h25.56.510,lexical_decision_task_DD,2021.2.3,iPhone,58.82352941,,,,,,,,,,0.719,1,,,,,,,,,,,,,,,0,-0.376530612,-0.216326531,1,0,0,0.719,button_left_main,-0.376530612,-0.216326531,1,0,0,,0,92,92,111,1,HOSSE,C,old,z,./images/HOSSE.png,,,,,,,,,,,,,,,,,,,,,,,,,,,,,,,,,
,,,,,,,,,,,,,,,,,5cb63178d946580001e4cef4,29,2022-02-12_13h25.56.510,lexical_decision_task_DD,2021.2.3,iPhone,58.82352941,,,,,,,,,,0.768,1,,,,,,,,,,,,,,,0,0.353061224,-0.302040816,1,0,0,0.768,button_right_main,0.353061224,-0.302040816,1,0,0,,0,93,93,8,1,TULIP,LB,old,m,./images/TULIPLB.png,,,,,,,,,,,,,,,,,,,,,,,,,,,,,,,,,
,,,,,,,,,,,,,,,,,5cb63178d946580001e4cef4,29,2022-02-12_13h25.56.510,lexical_decision_task_DD,2021.2.3,iPhone,58.82352941,,,,,,,,,,0.584,1,,,,,,,,,,,,,,,0,0.358163265,-0.297959184,1,0,0,0.584,button_right_main,0.358163265,-0.297959184,1,0,0,,0,94,94,14,1,PICKLE,LB,old,m,./images/PICKLELB.png,,,,,,,,,,,,,,,,,,,,,,,,,,,,,,,,,
,,,,,,,,,,,,,,,,,5cb63178d946580001e4cef4,29,2022-02-12_13h25.56.510,lexical_decision_task_DD,2021.2.3,iPhone,58.82352941,,,,,,,,,,0.686,1,,,,,,,,,,,,,,,0,-0.364285714,-0.263265306,1,0,0,0.686,button_left_main,-0.364285714,-0.263265306,1,0,0,,0,95,95,106,1,CLUMS,HB,old,z,./images/CLUMSHB.png,,,,,,,,,,,,,,,,,,,,,,,,,,,,,,,,,
,,,,,,,,,,,,,,,,,5cb63178d946580001e4cef4,29,2022-02-12_13h25.56.510,lexical_decision_task_DD,2021.2.3,iPhone,58.82352941,,,,,,,,,,0.535,0,,,,,,,,,,,,,,,0,-0.364285714,-0.245918367,1,0,0,0.535,button_left_main,-0.364285714,-0.245918367,1,0,0,,0,96,96,62,1,PURSE,LB,old,m,./images/PURSELB.png,,,,,,,,,,,,,,,,,,,,,,,,,,,,,,,,,
,,,,,,,,,,,,,,,,,5cb63178d946580001e4cef4,29,2022-02-12_13h25.56.510,lexical_decision_task_DD,2021.2.3,iPhone,58.82352941,,,,,,,,,,0.686,1,,,,,,,,,,,,,,,0,-0.367346939,-0.232653061,1,0,0,0.686,button_left_main,-0.367346939,-0.232653061,1,0,0,,0,97,97,152,1,FRAIN,LB,old,z,./images/FRAINLB.png,,,,,,,,,,,,,,,,,,,,,,,,,,,,,,,,,
,,,,,,,,,,,,,,,,,5cb63178d946580001e4cef4,29,2022-02-12_13h25.56.510,lexical_decision_task_DD,2021.2.3,iPhone,58.82352941,,,,,,,,,,0.734,1,,,,,,,,,,,,,,,0,0.357142857,-0.289795918,1,0,0,0.734,button_right_main,0.357142857,-0.289795918,1,0,0,,0,98,98,34,1,CANYON,HB,old,m,./images/CANYONHB.png,,,,,,,,,,,,,,,,,,,,,,,,,,,,,,,,,
,,,,,,,,,,,,,,,,,5cb63178d946580001e4cef4,29,2022-02-12_13h25.56.510,lexical_decision_task_DD,2021.2.3,iPhone,58.82352941,,,,,,,,,,0.601,1,,,,,,,,,,,,,,,0,-0.364285714,-0.245918367,1,0,0,0.601,button_left_main,-0.364285714,-0.245918367,1,0,0,,0,99,99,114,1,RIKES,C,old,z,./images/RIKES.png,,,,,,,,,,,,,,,,,,,,,,,,,,,,,,,,,
,,,,,,,,,,,,,,,,,5cb63178d946580001e4cef4,29,2022-02-12_13h25.56.510,lexical_decision_task_DD,2021.2.3,iPhone,58.82352941,,,,,,,,,,0.668,1,,,,,,,,,,,,,,,0,-0.373469388,-0.236734694,1,0,0,0.668,button_left_main,-0.373469388,-0.236734694,1,0,0,,0,100,100,120,1,RINED,C,old,z,./images/RINED.png,,,,,,,,,,,,,,,,,,,,,,,,,,,,,,,,,
,,,,,,,,,,,,,,,,,5cb63178d946580001e4cef4,29,2022-02-12_13h25.56.510,lexical_decision_task_DD,2021.2.3,iPhone,58.82352941,,,,,,,,,,0.767,1,,,,,,,,,,,,,,,0,0.340816327,-0.319387755,1,0,0,0.767,button_right_main,0.340816327,-0.319387755,1,0,0,,0,101,101,36,1,THROAT,C,old,m,./images/THROAT.png,,,,,,,,,,,,,,,,,,,,,,,,,,,,,,,,,
,,,,,,,,,,,,,,,,,5cb63178d946580001e4cef4,29,2022-02-12_13h25.56.510,lexical_decision_task_DD,2021.2.3,iPhone,58.82352941,,,,,,,,,,0.868,0,,,,,,,,,,,,,,,0,-0.379591837,-0.247959184,1,0,0,0.868,button_left_main,-0.379591837,-0.247959184,1,0,0,,0,102,102,49,1,DRUMS,HB,old,m,./images/DRUMSHB.png,,,,,,,,,,,,,,,,,,,,,,,,,,,,,,,,,
,,,,,,,,,,,,,,,,,5cb63178d946580001e4cef4,29,2022-02-12_13h25.56.510,lexical_decision_task_DD,2021.2.3,iPhone,58.82352941,,,,,,,,,,0.77,1,,,,,,,,,,,,,,,0,0.351020408,-0.28877551,1,0,0,0.77,button_right_main,0.351020408,-0.28877551,1,0,0,,0,103,103,42,1,FOLDER,C,old,m,./images/FOLDER.png,,,,,,,,,,,,,,,,,,,,,,,,,,,,,,,,,
,,,,,,,,,,,,,,,,,5cb63178d946580001e4cef4,29,2022-02-12_13h25.56.510,lexical_decision_task_DD,2021.2.3,iPhone,58.82352941,,,,,,,,,,1.085,1,,,,,,,,,,,,,,,0,0.344897959,-0.297959184,1,0,0,1.085,button_right_main,0.344897959,-0.297959184,1,0,0,,0,104,104,68,1,TORCH,LB,old,m,./images/TORCHLB.png,,,,,,,,,,,,,,,,,,,,,,,,,,,,,,,,,
,,,,,,,,,,,,,,,,,5cb63178d946580001e4cef4,29,2022-02-12_13h25.56.510,lexical_decision_task_DD,2021.2.3,iPhone,58.82352941,,,,,,,,,,0.783,1,,,,,,,,,,,,,,,0,-0.367346939,-0.255102041,1,0,0,0.783,button_left_main,-0.367346939,-0.255102041,1,0,0,,0,105,105,129,1,PRANS,C,old,z,./images/PRANS.png,,,,,,,,,,,,,,,,,,,,,,,,,,,,,,,,,
,,,,,,,,,,,,,,,,,5cb63178d946580001e4cef4,29,2022-02-12_13h25.56.510,lexical_decision_task_DD,2021.2.3,iPhone,58.82352941,,,,,,,,,,0.785,0,,,,,,,,,,,,,,,0,-0.392857143,-0.233673469,1,0,0,0.785,button_left_main,-0.392857143,-0.233673469,1,0,0,,0,106,106,76,1,INFANT,HB,old,m,./images/INFANTHB.png,,,,,,,,,,,,,,,,,,,,,,,,,,,,,,,,,
,,,,,,,,,,,,,,,,,5cb63178d946580001e4cef4,29,2022-02-12_13h25.56.510,lexical_decision_task_DD,2021.2.3,iPhone,58.82352941,,,,,,,,,,0.752,1,,,,,,,,,,,,,,,0,-0.368367347,-0.265306122,1,0,0,0.752,button_left_main,-0.368367347,-0.265306122,1,0,0,,0,107,107,105,1,MOKER,C,old,z,./images/MOKER.png,,,,,,,,,,,,,,,,,,,,,,,,,,,,,,,,,
,,,,,,,,,,,,,,,,,5cb63178d946580001e4cef4,29,2022-02-12_13h25.56.510,lexical_decision_task_DD,2021.2.3,iPhone,58.82352941,,,,,,,,,,0.652,1,,,,,,,,,,,,,,,0,-0.384693878,-0.223469388,1,0,0,0.652,button_left_main,-0.384693878,-0.223469388,1,0,0,,0,108,108,155,1,CANGY,LB,old,z,./images/CANGYLB.png,,,,,,,,,,,,,,,,,,,,,,,,,,,,,,,,,
,,,,,,,,,,,,,,,,,5cb63178d946580001e4cef4,29,2022-02-12_13h25.56.510,lexical_decision_task_DD,2021.2.3,iPhone,58.82352941,,,,,,,,,,0.602,1,,,,,,,,,,,,,,,0,-0.383673469,-0.243877551,1,0,0,0.602,button_left_main,-0.383673469,-0.243877551,1,0,0,,0,109,109,167,1,ZONET,LB,old,z,./images/ZONETLB.png,,,,,,,,,,,,,,,,,,,,,,,,,,,,,,,,,
,,,,,,,,,,,,,,,,,5cb63178d946580001e4cef4,29,2022-02-12_13h25.56.510,lexical_decision_task_DD,2021.2.3,iPhone,58.82352941,,,,,,,,,,1.086,1,,,,,,,,,,,,,,,0,0.402040816,-0.303061224,1,0,0,1.086,button_right_main,0.402040816,-0.303061224,1,0,0,,0,110,110,72,1,NOOSE,C,old,m,./images/NOOSE.png,,,,,,,,,,,,,,,,,,,,,,,,,,,,,,,,,
,,,,,,,,,,,,,,,,,5cb63178d946580001e4cef4,29,2022-02-12_13h25.56.510,lexical_decision_task_DD,2021.2.3,iPhone,58.82352941,,,,,,,,,,1.153,1,,,,,,,,,,,,,,,0,0.254081633,-0.275510204,1,0,0,1.153,button_right_main,0.254081633,-0.275510204,1,0,0,,0,111,111,29,1,CRUMB,LB,old,m,./images/CRUMBLB.png,,,,,,,,,,,,,,,,,,,,,,,,,,,,,,,,,
,,,,,,,,,,,,,,,,,5cb63178d946580001e4cef4,29,2022-02-12_13h25.56.510,lexical_decision_task_DD,2021.2.3,iPhone,58.82352941,,,,,,,,,,0.853,1,,,,,,,,,,,,,,,0,-0.310204082,-0.291836735,1,0,0,0.853,button_left_main,-0.310204082,-0.291836735,1,0,0,,0,112,112,138,1,PLICE,C,old,z,./images/PLICE.png,,,,,,,,,,,,,,,,,,,,,,,,,,,,,,,,,
,,,,,,,,,,,,,,,,,5cb63178d946580001e4cef4,29,2022-02-12_13h25.56.510,lexical_decision_task_DD,2021.2.3,iPhone,58.82352941,,,,,,,,,,0.735,1,,,,,,,,,,,,,,,0,-0.323469388,-0.276530612,1,0,0,0.735,button_left_main,-0.323469388,-0.276530612,1,0,0,,0,113,113,102,1,DULLE,C,old,z,./images/DULLE.png,,,,,,,,,,,,,,,,,,,,,,,,,,,,,,,,,
,,,,,,,,,,,,,,,,,5cb63178d946580001e4cef4,29,2022-02-12_13h25.56.510,lexical_decision_task_DD,2021.2.3,iPhone,58.82352941,,,,,,,,,,0.702,1,,,,,,,,,,,,,,,0,-0.259183673,-0.22244898,1,0,0,0.702,button_left_main,-0.259183673,-0.22244898,1,0,0,,0,114,114,96,1,KEAMS,C,old,z,./images/KEAMS.png,,,,,,,,,,,,,,,,,,,,,,,,,,,,,,,,,
,,,,,,,,,,,,,,,,,5cb63178d946580001e4cef4,29,2022-02-12_13h25.56.510,lexical_decision_task_DD,2021.2.3,iPhone,58.82352941,,,,,,,,,,0.769,0,,,,,,,,,,,,,,,0,-0.28877551,-0.247959184,1,0,0,0.769,button_left_main,-0.28877551,-0.247959184,1,0,0,,0,115,115,11,1,BONNET,LB,old,m,./images/BONNETLB.png,,,,,,,,,,,,,,,,,,,,,,,,,,,,,,,,,
,,,,,,,,,,,,,,,,,5cb63178d946580001e4cef4,29,2022-02-12_13h25.56.510,lexical_decision_task_DD,2021.2.3,iPhone,58.82352941,,,,,,,,,,0.771,1,,,,,,,,,,,,,,,0,-0.256122449,-0.251020408,1,0,0,0.771,button_left_main,-0.256122449,-0.251020408,1,0,0,,0,116,116,108,1,GRUET,C,old,z,./images/GRUET.png,,,,,,,,,,,,,,,,,,,,,,,,,,,,,,,,,
,,,,,,,,,,,,,,,,,5cb63178d946580001e4cef4,29,2022-02-12_13h25.56.510,lexical_decision_task_DD,2021.2.3,iPhone,58.82352941,,,,,,,,,,0.693,1,,,,,,,,,,,,,,,0,-0.298979592,-0.258163265,1,0,0,0.693,button_left_main,-0.298979592,-0.258163265,1,0,0,,0,117,117,132,1,SCIFF,C,old,z,./images/SCIFF.png,,,,,,,,,,,,,,,,,,,,,,,,,,,,,,,,,
,,,,,,,,,,,,,,,,,5cb63178d946580001e4cef4,29,2022-02-12_13h25.56.510,lexical_decision_task_DD,2021.2.3,iPhone,58.82352941,,,,,,,,,,0.92,1,,,,,,,,,,,,,,,0,0.276530612,-0.223469388,1,0,0,0.92,button_right_main,0.276530612,-0.223469388,1,0,0,,0,118,118,16,1,PENCE,HB,old,m,./images/PENCEHB.png,,,,,,,,,,,,,,,,,,,,,,,,,,,,,,,,,
,,,,,,,,,,,,,,,,,5cb63178d946580001e4cef4,29,2022-02-12_13h25.56.510,lexical_decision_task_DD,2021.2.3,iPhone,58.82352941,,,,,,,,,,1.002,1,,,,,,,,,,,,,,,0,-0.341836735,-0.275510204,1,0,0,1.002,button_left_main,-0.341836735,-0.275510204,1,0,0,,0,119,119,103,1,FLORT,HB,old,z,./images/FLORTHB.png,,,,,,,,,,,,,,,,,,,,,,,,,,,,,,,,,
,,,,,,,,,,,,,,,,,5cb63178d946580001e4cef4,29,2022-02-12_13h25.56.510,lexical_decision_task_DD,2021.2.3,iPhone,58.82352941,,,,,,,,,,0.819,1,,,,,,,,,,,,,,,0,0.284693878,-0.230612245,1,0,0,0.819,button_right_main,0.284693878,-0.230612245,1,0,0,,0,120,120,75,1,GRAIN,C,old,m,./images/GRAIN.png,,,,,,,,,,,,,,,,,,,,,,,,,,,,,,,,,
,,,,,,,,,,,,,,,,,5cb63178d946580001e4cef4,29,2022-02-12_13h25.56.510,lexical_decision_task_DD,2021.2.3,iPhone,58.82352941,,,,,,,,,,0.92,1,,,,,,,,,,,,,,,0,-0.320408163,-0.27244898,1,0,0,0.92,button_left_main,-0.320408163,-0.27244898,1,0,0,,0,121,121,84,1,HAXES,C,old,z,./images/HAXES.png,,,,,,,,,,,,,,,,,,,,,,,,,,,,,,,,,
,,,,,,,,,,,,,,,,,5cb63178d946580001e4cef4,29,2022-02-12_13h25.56.510,lexical_decision_task_DD,2021.2.3,iPhone,58.82352941,,,,,,,,,,0.718,1,,,,,,,,,,,,,,,0,-0.336734694,-0.283673469,1,0,0,0.718,button_left_main,-0.336734694,-0.283673469,1,0,0,,0,122,122,156,1,HIXES,C,old,z,./images/HIXES.png,,,,,,,,,,,,,,,,,,,,,,,,,,,,,,,,,
,,,,,,,,,,,,,,,,,5cb63178d946580001e4cef4,29,2022-02-12_13h25.56.510,lexical_decision_task_DD,2021.2.3,iPhone,58.82352941,,,,,,,,,,0.669,1,,,,,,,,,,,,,,,0,0.289795918,-0.235714286,1,0,0,0.669,button_right_main,0.289795918,-0.235714286,1,0,0,,0,123,123,21,1,KIDNEY,C,old,m,./images/KIDNEY.png,,,,,,,,,,,,,,,,,,,,,,,,,,,,,,,,,
,,,,,,,,,,,,,,,,,5cb63178d946580001e4cef4,29,2022-02-12_13h25.56.510,lexical_decision_task_DD,2021.2.3,iPhone,58.82352941,,,,,,,,,,0.868,1,,,,,,,,,,,,,,,0,0.337755102,-0.21122449,1,0,0,0.868,button_right_main,0.337755102,-0.21122449,1,0,0,,0,124,124,71,1,PIMPLE,LB,old,m,./images/PIMPLELB.png,,,,,,,,,,,,,,,,,,,,,,,,,,,,,,,,,
,,,,,,,,,,,,,,,,,5cb63178d946580001e4cef4,29,2022-02-12_13h25.56.510,lexical_decision_task_DD,2021.2.3,iPhone,58.82352941,,,,,,,,,,1.002,1,,,,,,,,,,,,,,,0,-0.346938776,-0.258163265,1,0,0,1.002,button_left_main,0.043877551,-0.379591837,1,0,0,,0,125,125,140,1,DOVET,LB,old,z,./images/DOVETLB.png,break_done_button,,,,,,,,,,,,,,,,,,,,,,,,,,,,,,,,
,,,,,,,,,,,,,,,,,5cb63178d946580001e4cef4,29,2022-02-12_13h25.56.510,lexical_decision_task_DD,2021.2.3,iPhone,58.82352941,,,,,,,,,,0.785,1,,,,,,,,,,,,,,,0,-0.348979592,-0.306122449,1,0,0,0.785,button_left_main,-0.348979592,-0.306122449,1,0,0,,0,126,126,85,1,CHULK,HB,old,z,./images/CHULKHB.png,,,,,,,,,,,,,,,,,,,,,,,,,,,,,,,,,
,,,,,,,,,,,,,,,,,5cb63178d946580001e4cef4,29,2022-02-12_13h25.56.510,lexical_decision_task_DD,2021.2.3,iPhone,58.82352941,,,,,,,,,,0.602,1,,,,,,,,,,,,,,,0,-0.307142857,-0.239795918,1,0,0,0.602,button_left_main,-0.307142857,-0.239795918,1,0,0,,0,127,127,159,1,CUDDY,C,old,z,./images/CUDDY.png,,,,,,,,,,,,,,,,,,,,,,,,,,,,,,,,,
,,,,,,,,,,,,,,,,,5cb63178d946580001e4cef4,29,2022-02-12_13h25.56.510,lexical_decision_task_DD,2021.2.3,iPhone,58.82352941,,,,,,,,,,0.643,0,,,,,,,,,,,,,,,0,-0.290816327,-0.251020408,1,0,0,0.643,button_left_main,-0.290816327,-0.251020408,1,0,0,,0,128,128,80,1,WEASEL,LB,old,m,./images/WEASELLB.png,,,,,,,,,,,,,,,,,,,,,,,,,,,,,,,,,
,,,,,,,,,,,,,,,,,5cb63178d946580001e4cef4,29,2022-02-12_13h25.56.510,lexical_decision_task_DD,2021.2.3,iPhone,58.82352941,,,,,,,,,,0.868,1,,,,,,,,,,,,,,,0,-0.359183673,-0.278571429,1,0,0,0.868,button_left_main,-0.359183673,-0.278571429,1,0,0,,0,129,129,86,1,AIFED,LB,old,z,./images/AIFEDLB.png,,,,,,,,,,,,,,,,,,,,,,,,,,,,,,,,,
,,,,,,,,,,,,,,,,,5cb63178d946580001e4cef4,29,2022-02-12_13h25.56.510,lexical_decision_task_DD,2021.2.3,iPhone,58.82352941,,,,,,,,,,0.802,1,,,,,,,,,,,,,,,0,-0.337755102,-0.232653061,1,0,0,0.802,button_left_main,-0.337755102,-0.232653061,1,0,0,,0,130,130,135,1,JOODY,C,old,z,./images/JOODY.png,,,,,,,,,,,,,,,,,,,,,,,,,,,,,,,,,
,,,,,,,,,,,,,,,,,5cb63178d946580001e4cef4,29,2022-02-12_13h25.56.510,lexical_decision_task_DD,2021.2.3,iPhone,58.82352941,,,,,,,,,,0.769,1,,,,,,,,,,,,,,,0,-0.358163265,-0.275510204,1,0,0,0.769,button_left_main,-0.358163265,-0.275510204,1,0,0,,0,131,131,126,1,GUELS,C,old,z,./images/GUELS.png,,,,,,,,,,,,,,,,,,,,,,,,,,,,,,,,,
,,,,,,,,,,,,,,,,,5cb63178d946580001e4cef4,29,2022-02-12_13h25.56.510,lexical_decision_task_DD,2021.2.3,iPhone,58.82352941,,,,,,,,,,0.802,1,,,,,,,,,,,,,,,0,-0.352040816,-0.25,1,0,0,0.802,button_left_main,-0.352040816,-0.25,1,0,0,,0,132,132,125,1,MOOKY,LB,old,z,./images/MOOKYLB.png,,,,,,,,,,,,,,,,,,,,,,,,,,,,,,,,,
,,,,,,,,,,,,,,,,,5cb63178d946580001e4cef4,29,2022-02-12_13h25.56.510,lexical_decision_task_DD,2021.2.3,iPhone,58.82352941,,,,,,,,,,0.902,1,,,,,,,,,,,,,,,0,0.246938776,-0.266326531,1,0,0,0.902,button_right_main,0.246938776,-0.266326531,1,0,0,,0,133,133,70,1,URINE,HB,old,m,./images/URINEHB.png,,,,,,,,,,,,,,,,,,,,,,,,,,,,,,,,,
,,,,,,,,,,,,,,,,,5cb63178d946580001e4cef4,29,2022-02-12_13h25.56.510,lexical_decision_task_DD,2021.2.3,iPhone,58.82352941,,,,,,,,,,0.919,1,,,,,,,,,,,,,,,0,0.226530612,-0.303061224,1,0,0,0.919,button_right_main,0.226530612,-0.303061224,1,0,0,,0,134,134,60,1,TWINS,C,old,m,./images/TWINS.png,,,,,,,,,,,,,,,,,,,,,,,,,,,,,,,,,
,,,,,,,,,,,,,,,,,5cb63178d946580001e4cef4,29,2022-02-12_13h25.56.510,lexical_decision_task_DD,2021.2.3,iPhone,58.82352941,,,,,,,,,,0.685,1,,,,,,,,,,,,,,,0,0.228571429,-0.253061224,1,0,0,0.685,button_right_main,0.228571429,-0.253061224,1,0,0,,0,135,135,63,1,MIRROR,C,old,m,./images/MIRROR.png,,,,,,,,,,,,,,,,,,,,,,,,,,,,,,,,,
,,,,,,,,,,,,,,,,,5cb63178d946580001e4cef4,29,2022-02-12_13h25.56.510,lexical_decision_task_DD,2021.2.3,iPhone,58.82352941,,,,,,,,,,1.435,1,,,,,,,,,,,,,,,0,0.246938776,-0.228571429,1,0,0,1.435,button_right_main,0.246938776,-0.228571429,1,0,0,,0,136,136,58,1,BABOON,HB,old,m,./images/BABOONHB.png,,,,,,,,,,,,,,,,,,,,,,,,,,,,,,,,,
,,,,,,,,,,,,,,,,,5cb63178d946580001e4cef4,29,2022-02-12_13h25.56.510,lexical_decision_task_DD,2021.2.3,iPhone,58.82352941,,,,,,,,,,0.818,1,,,,,,,,,,,,,,,0,0.214285714,-0.245918367,1,0,0,0.818,button_right_main,0.214285714,-0.245918367,1,0,0,,0,137,137,24,1,SCREW,C,old,m,./images/SCREW.png,,,,,,,,,,,,,,,,,,,,,,,,,,,,,,,,,
,,,,,,,,,,,,,,,,,5cb63178d946580001e4cef4,29,2022-02-12_13h25.56.510,lexical_decision_task_DD,2021.2.3,iPhone,58.82352941,,,,,,,,,,0.736,1,,,,,,,,,,,,,,,0,0.240816327,-0.263265306,1,0,0,0.736,button_right_main,0.240816327,-0.263265306,1,0,0,,0,138,138,64,1,JELLY,HB,old,m,./images/JELLYHB.png,,,,,,,,,,,,,,,,,,,,,,,,,,,,,,,,,
,,,,,,,,,,,,,,,,,5cb63178d946580001e4cef4,29,2022-02-12_13h25.56.510,lexical_decision_task_DD,2021.2.3,iPhone,58.82352941,,,,,,,,,,0.968,0,,,,,,,,,,,,,,,0,-0.289795918,-0.257142857,1,0,0,0.968,button_left_main,-0.289795918,-0.257142857,1,0,0,,0,139,139,37,1,BIRTH,HB,old,m,./images/BIRTHHB.png,,,,,,,,,,,,,,,,,,,,,,,,,,,,,,,,,
,,,,,,,,,,,,,,,,,5cb63178d946580001e4cef4,29,2022-02-12_13h25.56.510,lexical_decision_task_DD,2021.2.3,iPhone,58.82352941,,,,,,,,,,1.068,1,,,,,,,,,,,,,,,0,-0.236734694,-0.215306122,1,0,0,1.068,button_left_main,-0.236734694,-0.215306122,1,0,0,,0,140,140,88,1,GLUSH,HB,old,z,./images/GLUSHHB.png,,,,,,,,,,,,,,,,,,,,,,,,,,,,,,,,,
,,,,,,,,,,,,,,,,,5cb63178d946580001e4cef4,29,2022-02-12_13h25.56.510,lexical_decision_task_DD,2021.2.3,iPhone,58.82352941,,,,,,,,,,1.003,1,,,,,,,,,,,,,,,0,-0.331632653,-0.275510204,1,0,0,1.003,button_left_main,-0.331632653,-0.275510204,1,0,0,,0,141,141,147,1,ZOLES,C,old,z,./images/ZOLES.png,,,,,,,,,,,,,,,,,,,,,,,,,,,,,,,,,
,,,,,,,,,,,,,,,,,5cb63178d946580001e4cef4,29,2022-02-12_13h25.56.510,lexical_decision_task_DD,2021.2.3,iPhone,58.82352941,,,,,,,,,,1.068,1,,,,,,,,,,,,,,,0,-0.307142857,-0.262244898,1,0,0,1.068,button_left_main,-0.307142857,-0.262244898,1,0,0,,0,142,142,133,1,POWDY,HB,old,z,./images/POWDYHB.png,,,,,,,,,,,,,,,,,,,,,,,,,,,,,,,,,
,,,,,,,,,,,,,,,,,5cb63178d946580001e4cef4,29,2022-02-12_13h25.56.510,lexical_decision_task_DD,2021.2.3,iPhone,58.82352941,,,,,,,,,,0.936,1,,,,,,,,,,,,,,,0,0.264285714,-0.28877551,1,0,0,0.936,button_right_main,0.264285714,-0.28877551,1,0,0,,0,143,143,52,1,BANNER,HB,old,m,./images/BANNERHB.png,,,,,,,,,,,,,,,,,,,,,,,,,,,,,,,,,
,,,,,,,,,,,,,,,,,5cb63178d946580001e4cef4,29,2022-02-12_13h25.56.510,lexical_decision_task_DD,2021.2.3,iPhone,58.82352941,,,,,,,,,,0.886,1,,,,,,,,,,,,,,,0,0.258163265,-0.253061224,1,0,0,0.886,button_right_main,0.258163265,-0.253061224,1,0,0,,0,144,144,25,1,WRIST,HB,old,m,./images/WRISTHB.png,,,,,,,,,,,,,,,,,,,,,,,,,,,,,,,,,
,,,,,,,,,,,,,,,,,5cb63178d946580001e4cef4,29,2022-02-12_13h25.56.510,lexical_decision_task_DD,2021.2.3,iPhone,58.82352941,,,,,,,,,,1.353,1,,,,,,,,,,,,,,,0,0.263265306,-0.25,1,0,0,1.353,button_right_main,0.263265306,-0.25,1,0,0,,0,145,145,17,1,SKIING,LB,old,m,./images/SKIINGLB.png,,,,,,,,,,,,,,,,,,,,,,,,,,,,,,,,,
,,,,,,,,,,,,,,,,,5cb63178d946580001e4cef4,29,2022-02-12_13h25.56.510,lexical_decision_task_DD,2021.2.3,iPhone,58.82352941,,,,,,,,,,1.085,1,,,,,,,,,,,,,,,0,-0.334693878,-0.302040816,1,0,0,1.085,button_left_main,-0.334693878,-0.302040816,1,0,0,,0,146,146,92,1,PAIMS,LB,old,z,./images/PAIMSLB.png,,,,,,,,,,,,,,,,,,,,,,,,,,,,,,,,,
,,,,,,,,,,,,,,,,,5cb63178d946580001e4cef4,29,2022-02-12_13h25.56.510,lexical_decision_task_DD,2021.2.3,iPhone,58.82352941,,,,,,,,,,0.52,1,,,,,,,,,,,,,,,0,0.301020408,-0.254081633,1,0,0,0.52,button_right_main,0.301020408,-0.254081633,1,0,0,,0,147,147,0,1,TOMATO,C,old,m,./images/TOMATO.png,,,,,,,,,,,,,,,,,,,,,,,,,,,,,,,,,
,,,,,,,,,,,,,,,,,5cb63178d946580001e4cef4,29,2022-02-12_13h25.56.510,lexical_decision_task_DD,2021.2.3,iPhone,58.82352941,,,,,,,,,,0.803,1,,,,,,,,,,,,,,,0,-0.37244898,-0.296938776,1,0,0,0.803,button_left_main,-0.37244898,-0.296938776,1,0,0,,0,148,148,134,1,TROSS,LB,old,z,./images/TROSSLB.png,,,,,,,,,,,,,,,,,,,,,,,,,,,,,,,,,
,,,,,,,,,,,,,,,,,5cb63178d946580001e4cef4,29,2022-02-12_13h25.56.510,lexical_decision_task_DD,2021.2.3,iPhone,58.82352941,,,,,,,,,,0.801,1,,,,,,,,,,,,,,,0,0.296938776,-0.289795918,1,0,0,0.801,button_right_main,0.296938776,-0.289795918,1,0,0,,0,149,149,12,1,SHORE,C,old,m,./images/SHORE.png,,,,,,,,,,,,,,,,,,,,,,,,,,,,,,,,,
,,,,,,,,,,,,,,,,,5cb63178d946580001e4cef4,29,2022-02-12_13h25.56.510,lexical_decision_task_DD,2021.2.3,iPhone,58.82352941,,,,,,,,,,0.719,1,,,,,,,,,,,,,,,0,0.324489796,-0.254081633,1,0,0,0.719,button_right_main,0.324489796,-0.254081633,1,0,0,,0,150,150,2,1,BEARD,LB,old,m,./images/BEARDLB.png,,,,,,,,,,,,,,,,,,,,,,,,,,,,,,,,,
,,,,,,,,,,,,,,,,,5cb63178d946580001e4cef4,29,2022-02-12_13h25.56.510,lexical_decision_task_DD,2021.2.3,iPhone,58.82352941,,,,,,,,,,0.735,1,,,,,,,,,,,,,,,0,-0.356122449,-0.25,1,0,0,0.735,button_left_main,-0.356122449,-0.25,1,0,0,,0,151,151,104,1,GITTY,LB,old,z,./images/GITTYLB.png,,,,,,,,,,,,,,,,,,,,,,,,,,,,,,,,,
,,,,,,,,,,,,,,,,,5cb63178d946580001e4cef4,29,2022-02-12_13h25.56.510,lexical_decision_task_DD,2021.2.3,iPhone,58.82352941,,,,,,,,,,0.719,1,,,,,,,,,,,,,,,0,-0.318367347,-0.235714286,1,0,0,0.719,button_left_main,-0.318367347,-0.235714286,1,0,0,,0,152,152,151,1,TINKY,HB,old,z,./images/TINKYHB.png,,,,,,,,,,,,,,,,,,,,,,,,,,,,,,,,,
,,,,,,,,,,,,,,,,,5cb63178d946580001e4cef4,29,2022-02-12_13h25.56.510,lexical_decision_task_DD,2021.2.3,iPhone,58.82352941,,,,,,,,,,0.769,1,,,,,,,,,,,,,,,0,-0.325510204,-0.267346939,1,0,0,0.769,button_left_main,-0.325510204,-0.267346939,1,0,0,,0,153,153,150,1,NOOLS,C,old,z,./images/NOOLS.png,,,,,,,,,,,,,,,,,,,,,,,,,,,,,,,,,
,,,,,,,,,,,,,,,,,5cb63178d946580001e4cef4,29,2022-02-12_13h25.56.510,lexical_decision_task_DD,2021.2.3,iPhone,58.82352941,,,,,,,,,,0.67,1,,,,,,,,,,,,,,,0,-0.344897959,-0.258163265,1,0,0,0.67,button_left_main,-0.344897959,-0.258163265,1,0,0,,0,154,154,141,1,PLEET,C,old,z,./images/PLEET.png,,,,,,,,,,,,,,,,,,,,,,,,,,,,,,,,,
,,,,,,,,,,,,,,,,,5cb63178d946580001e4cef4,29,2022-02-12_13h25.56.510,lexical_decision_task_DD,2021.2.3,iPhone,58.82352941,,,,,,,,,,0.836,1,,,,,,,,,,,,,,,0,0.337755102,-0.298979592,1,0,0,0.836,button_right_main,0.337755102,-0.298979592,1,0,0,,0,155,155,53,1,CARPET,LB,old,m,./images/CARPETLB.png,,,,,,,,,,,,,,,,,,,,,,,,,,,,,,,,,
,,,,,,,,,,,,,,,,,5cb63178d946580001e4cef4,29,2022-02-12_13h25.56.510,lexical_decision_task_DD,2021.2.3,iPhone,58.82352941,,,,,,,,,,0.851,1,,,,,,,,,,,,,,,0,0.364285714,-0.31122449,1,0,0,0.851,button_right_main,0.364285714,-0.31122449,1,0,0,,0,156,156,38,1,LADDER,LB,old,m,./images/LADDERLB.png,,,,,,,,,,,,,,,,,,,,,,,,,,,,,,,,,
,,,,,,,,,,,,,,,,,5cb63178d946580001e4cef4,29,2022-02-12_13h25.56.510,lexical_decision_task_DD,2021.2.3,iPhone,58.82352941,,,,,,,,,,0.786,1,,,,,,,,,,,,,,,0,-0.32755102,-0.281632653,1,0,0,0.786,button_left_main,-0.32755102,-0.281632653,1,0,0,,0,157,157,144,1,NAIRY,C,old,z,./images/NAIRY.png,,,,,,,,,,,,,,,,,,,,,,,,,,,,,,,,,
,,,,,,,,,,,,,,,,,5cb63178d946580001e4cef4,29,2022-02-12_13h25.56.510,lexical_decision_task_DD,2021.2.3,iPhone,58.82352941,,,,,,,,,,0.744,0,,,,,,,,,,,,,,,0,-0.336734694,-0.32755102,1,0,0,0.744,button_left_main,-0.336734694,-0.32755102,1,0,0,,0,158,158,67,1,SAILOR,HB,old,m,./images/SAILORHB.png,,,,,,,,,,,,,,,,,,,,,,,,,,,,,,,,,
,,,,,,,,,,,,,,,,,5cb63178d946580001e4cef4,29,2022-02-12_13h25.56.510,lexical_decision_task_DD,2021.2.3,iPhone,58.82352941,,,,,,,,,,0.752,1,,,,,,,,,,,,,,,0,-0.32755102,-0.233673469,1,0,0,0.752,button_left_main,-0.32755102,-0.233673469,1,0,0,,0,159,159,154,1,THINT,HB,old,z,./images/THINTHB.png,,,,,,,,,,,,,,,,,,,,,,,,,,,,,,,,,
,,,,,,,,,,,,,,,,,5cb63178d946580001e4cef4,29,2022-02-12_13h25.56.510,lexical_decision_task_DD,2021.2.3,iPhone,58.82352941,,,,,,,,,,0.57,1,,,,,,,,,,,,,,,0,0.328571429,-0.263265306,1,0,0,0.57,button_right_main,0.328571429,-0.263265306,1,0,0,,0,160,160,26,1,SMOKER,LB,old,m,./images/SMOKERLB.png,,,,,,,,,,,,,,,,,,,,,,,,,,,,,,,,,
,,,,,,,,,,,,,,,,,5cb63178d946580001e4cef4,29,2022-02-12_13h25.56.510,lexical_decision_task_DD,2021.2.3,iPhone,58.82352941,,,,,,,,,,0.97,1,,,,,,,,,,,,,,,0,0.32755102,-0.263265306,1,0,0,0.97,button_right_main,0.32755102,-0.263265306,1,0,0,,0,161,161,55,1,MUFFIN,HB,old,m,./images/MUFFINHB.png,,,,,,,,,,,,,,,,,,,,,,,,,,,,,,,,,
,,,,,,,,,,,,,,,,,5cb63178d946580001e4cef4,29,2022-02-12_13h25.56.510,lexical_decision_task_DD,2021.2.3,iPhone,58.82352941,,,,,,,,,,0.785,1,,,,,,,,,,,,,,,0,0.284693878,-0.274489796,1,0,0,0.785,button_right_main,0.284693878,-0.274489796,1,0,0,,0,162,162,59,1,BURIAL,LB,old,m,./images/BURIALLB.png,,,,,,,,,,,,,,,,,,,,,,,,,,,,,,,,,
,,,,,,,,,,,,,,,,,5cb63178d946580001e4cef4,29,2022-02-12_13h25.56.510,lexical_decision_task_DD,2021.2.3,iPhone,58.82352941,,,,,,,,,,0.618,1,,,,,,,,,,,,,,,0,0.319387755,-0.235714286,1,0,0,0.618,button_right_main,0.319387755,-0.235714286,1,0,0,,0,163,163,41,1,STRING,LB,old,m,./images/STRINGLB.png,,,,,,,,,,,,,,,,,,,,,,,,,,,,,,,,,
,,,,,,,,,,,,,,,,,5cb63178d946580001e4cef4,29,2022-02-12_13h25.56.510,lexical_decision_task_DD,2021.2.3,iPhone,58.82352941,,,,,,,,,,0.601,1,,,,,,,,,,,,,,,0,0.319387755,-0.267346939,1,0,0,0.601,button_right_main,0.319387755,-0.267346939,1,0,0,,0,164,164,20,1,CRADLE,LB,old,m,./images/CRADLELB.png,,,,,,,,,,,,,,,,,,,,,,,,,,,,,,,,,
,,,,,,,,,,,,,,,,,5cb63178d946580001e4cef4,29,2022-02-12_13h25.56.510,lexical_decision_task_DD,2021.2.3,iPhone,58.82352941,,,,,,,,,,0.786,1,,,,,,,,,,,,,,,0,-0.380612245,-0.28877551,1,0,0,0.786,button_left_main,-0.380612245,-0.28877551,1,0,0,,0,165,165,115,1,MAWNS,HB,old,z,./images/MAWNSHB.png,,,,,,,,,,,,,,,,,,,,,,,,,,,,,,,,,
,,,,,,,,,,,,,,,,,5cb63178d946580001e4cef4,29,2022-02-12_13h25.56.510,lexical_decision_task_DD,2021.2.3,iPhone,58.82352941,,,,,,,,,,0.786,1,,,,,,,,,,,,,,,0,-0.320408163,-0.258163265,1,0,0,0.786,button_left_main,-0.320408163,-0.258163265,1,0,0,,0,166,166,90,1,NEAST,C,old,z,./images/NEAST.png,,,,,,,,,,,,,,,,,,,,,,,,,,,,,,,,,
,,,,,,,,,,,,,,,,,5cb63178d946580001e4cef4,29,2022-02-12_13h25.56.510,lexical_decision_task_DD,2021.2.3,iPhone,58.82352941,,,,,,,,,,0.602,1,,,,,,,,,,,,,,,0,-0.355102041,-0.241836735,1,0,0,0.602,button_left_main,-0.355102041,-0.241836735,1,0,0,,0,167,167,165,1,TROWN,C,old,z,./images/TROWN.png,,,,,,,,,,,,,,,,,,,,,,,,,,,,,,,,,
,,,,,,,,,,,,,,,,,5cb63178d946580001e4cef4,29,2022-02-12_13h25.56.510,lexical_decision_task_DD,2021.2.3,iPhone,58.82352941,,,,,,,,,,,,,,,,,,,,,,,,,,,,,,,,,,,,,,,,,,,,,,How likely will it be that you will recognize the words presented slighly blurred on a scale of 0 (not likely) to 100 (most likely)?,,,,,-0.010204082,-0.415306122,1,0,0,jol_adv,5,6.996,0,0,0,1,1,,,,,,,,,,,,,,,,,,,
,,,,,,,,,,,,,,,,,5cb63178d946580001e4cef4,29,2022-02-12_13h25.56.510,lexical_decision_task_DD,2021.2.3,iPhone,58.82352941,,,,,,,,,,,,,,,,,,,,,,,,,,,,,,,,,,,,,,,,,,,,,,How likely will it be that you will recognize the words presented clearly on a scale of 0 (not likely) to 100 (most likely)?,,,,,,,,,,,5,3.955,0,1,1,0,1,,,,,,,,,,,,,,,,,,,
,,,,,,,,,,,,,,,,,5cb63178d946580001e4cef4,29,2022-02-12_13h25.56.510,lexical_decision_task_DD,2021.2.3,iPhone,58.82352941,,,,,,,,,,,,,,,,,,,,,,,,,,,,,,,,,,,,,,,,,,,,,,How likely will it be that you will recognize the words presented very blurred on a scale of 0 (not likely) to 100 (most likely)?,,,,,,,,,,,5,2.008,0,2,2,2,1,,,,,,,,,,,,,,,,,,,
,0.055102041,-0.370408163,1,0,0,instr_done_button,,,,,,1,test,"In the next phase you will be presented with the words from the the first phase. Your job is to decide whether you remember seeing the word or not. If you remember seeing the word press ""old"" or type ""m"". If you do not remember seeing the word press ""new"" or type ""z"". Please press the space bar or click on continue to begin. ",,,5cb63178d946580001e4cef4,29,2022-02-12_13h25.56.510,lexical_decision_task_DD,2021.2.3,iPhone,58.82352941,,,,,,,,,,,,,,,,,,,,,,,,,,,,,,,,,,,,,,,,,,,,,,,,,,,,,,,,,,,,,,,,0,0,0,0,1,,,,,,,,,,,,,,
,0.007142857,-0.374489796,1,0,0,instr_done_button,,,,,,1,test,"In the next phase you will be presented with the words from the the first phase. Your job is to decide whether you remember seeing the word or not. If you remember seeing the word press ""old"" or type ""m"". If you do not remember seeing the word press ""new"" or type ""z"". Please press the space bar or click on continue to begin. ",,,5cb63178d946580001e4cef4,29,2022-02-12_13h25.56.510,lexical_decision_task_DD,2021.2.3,iPhone,58.82352941,,,,,,,,,,,,,,,,,,,,,,,,,,,,,,,,,,,,,,,,,,,,,,,,,,,,,,,,,,,,,,,,1,0,1,0,1,,,,,,,,,,,,,,
,-0.036734694,-0.366326531,1,0,0,instr_done_button,,,,,,1,test,"In the next phase you will be presented with the words from the the first phase. Your job is to decide whether you remember seeing the word or not. If you remember seeing the word press ""old"" or type ""m"". If you do not remember seeing the word press ""new"" or type ""z"". Please press the space bar or click on continue to begin. ",,,5cb63178d946580001e4cef4,29,2022-02-12_13h25.56.510,lexical_decision_task_DD,2021.2.3,iPhone,58.82352941,,,,,,,,,,,,,,,,,,,,,,,,,,,,,,,,,,,,,,,,,,,,,,,,,,,,,,,,,,,,,,,,2,0,2,0,1,,,,,,,,,,,,,,
,0.005102041,-0.371428571,1,0,0,instr_done_button,,,,,,1,test,"In the next phase you will be presented with the words from the the first phase. Your job is to decide whether you remember seeing the word or not. If you remember seeing the word press ""old"" or type ""m"". If you do not remember seeing the word press ""new"" or type ""z"". Please press the space bar or click on continue to begin. ",,,5cb63178d946580001e4cef4,29,2022-02-12_13h25.56.510,lexical_decision_task_DD,2021.2.3,iPhone,58.82352941,,,,,,,,,,,,,,,,,,,,,,,,,,,,,,,,,,,,,,,,,,,,,,,,,,,,,,,,,,,,,,,,3,0,3,0,1,,,,,,,,,,,,,,
,0.003061224,-0.36122449,1,0,0,instr_done_button,,,,,,1,test,"In the next phase you will be presented with the words from the the first phase. Your job is to decide whether you remember seeing the word or not. If you remember seeing the word press ""old"" or type ""m"". If you do not remember seeing the word press ""new"" or type ""z"". Please press the space bar or click on continue to begin. ",,,5cb63178d946580001e4cef4,29,2022-02-12_13h25.56.510,lexical_decision_task_DD,2021.2.3,iPhone,58.82352941,,,,,,,,,,,,,,,,,,,,,,,,,,,,,,,,,,,,,,,,,,,,,,,,,,,,,,,,,,,,,,,,4,0,4,0,1,,,,,,,,,,,,,,
,,,,,,,,,,,,,,,,,5cb63178d946580001e4cef4,29,2022-02-12_13h25.56.510,lexical_decision_task_DD,2021.2.3,iPhone,58.82352941,,,,,,,,,,1.971,0,,,,,,,,,,,,,,,,,,,,,,,0.337755102,-0.289795918,1,0,0,,,,,,,POSTER,LB,z,m,./images/POSTERLB.png,,,,,,,,,,,,,,,,,,,,,0,0.337755102,-0.289795918,1,0,0,1.971,button_right_test,0,0,0,137,1
,,,,,,,,,,,,,,,,,5cb63178d946580001e4cef4,29,2022-02-12_13h25.56.510,lexical_decision_task_DD,2021.2.3,iPhone,58.82352941,,,,,,,,,,1.044,1,,,,,,,,,,,,,,,,,,,,,,,-0.332653061,-0.296938776,1,0,0,,,,,,,TIGER,HB,z,m,./images/TIGERHB.png,,,,,,,,,,,,,,,,,,,,,0,-0.332653061,-0.296938776,1,0,0,1.044,button_left_test,0,1,1,121,1
,,,,,,,,,,,,,,,,,5cb63178d946580001e4cef4,29,2022-02-12_13h25.56.510,lexical_decision_task_DD,2021.2.3,iPhone,58.82352941,,,,,,,,,,0.87,0,,,,,,,,,,,,,,,,,,,,,,,-0.31122449,-0.240816327,1,0,0,,,,,,,BERRY,LB,m,m,./images/BERRYLB.png,,,,,,,,,,,,,,,,,,,,,0,-0.31122449,-0.240816327,1,0,0,0.87,button_left_test,0,2,2,47,1
,,,,,,,,,,,,,,,,,5cb63178d946580001e4cef4,29,2022-02-12_13h25.56.510,lexical_decision_task_DD,2021.2.3,iPhone,58.82352941,,,,,,,,,,1.334,0,,,,,,,,,,,,,,,,,,,,,,,0.318367347,-0.280612245,1,0,0,,,,,,,RAZOR,HB,z,m,./images/RAZORHB.png,,,,,,,,,,,,,,,,,,,,,0,0.318367347,-0.280612245,1,0,0,1.334,button_right_test,0,3,3,118,1
,,,,,,,,,,,,,,,,,5cb63178d946580001e4cef4,29,2022-02-12_13h25.56.510,lexical_decision_task_DD,2021.2.3,iPhone,58.82352941,,,,,,,,,,1.102,1,,,,,,,,,,,,,,,,,,,,,,,-0.344897959,-0.278571429,1,0,0,,,,,,,GRAPE,HB,z,m,./images/GRAPEHB.png,,,,,,,,,,,,,,,,,,,,,0,-0.344897959,-0.278571429,1,0,0,1.102,button_left_test,0,4,4,100,1
,,,,,,,,,,,,,,,,,5cb63178d946580001e4cef4,29,2022-02-12_13h25.56.510,lexical_decision_task_DD,2021.2.3,iPhone,58.82352941,,,,,,,,,,1.433,0,,,,,,,,,,,,,,,,,,,,,,,-0.375510204,-0.28877551,1,0,0,,,,,,,FOLDER,C,m,m,./images/FOLDER.png,,,,,,,,,,,,,,,,,,,,,0,-0.375510204,-0.28877551,1,0,0,1.433,button_left_test,0,5,5,42,1
,,,,,,,,,,,,,,,,,5cb63178d946580001e4cef4,29,2022-02-12_13h25.56.510,lexical_decision_task_DD,2021.2.3,iPhone,58.82352941,,,,,,,,,,1.034,1,,,,,,,,,,,,,,,,,,,,,,,0.281632653,-0.293877551,1,0,0,,,,,,,MOOSE,C,m,m,./images/MOOSE.png,,,,,,,,,,,,,,,,,,,,,0,0.281632653,-0.293877551,1,0,0,1.034,button_right_test,0,6,6,57,1
,,,,,,,,,,,,,,,,,5cb63178d946580001e4cef4,29,2022-02-12_13h25.56.510,lexical_decision_task_DD,2021.2.3,iPhone,58.82352941,,,,,,,,,,1.084,1,,,,,,,,,,,,,,,,,,,,,,,-0.33877551,-0.284693878,1,0,0,,,,,,,DIVER,C,z,m,./images/DIVER.png,,,,,,,,,,,,,,,,,,,,,0,-0.33877551,-0.284693878,1,0,0,1.084,button_left_test,0,7,7,93,1
,,,,,,,,,,,,,,,,,5cb63178d946580001e4cef4,29,2022-02-12_13h25.56.510,lexical_decision_task_DD,2021.2.3,iPhone,58.82352941,,,,,,,,,,1.099,1,,,,,,,,,,,,,,,,,,,,,,,-0.280612245,-0.237755102,1,0,0,,,,,,,MIDGET,HB,z,m,./images/MIDGETHB.png,,,,,,,,,,,,,,,,,,,,,0,-0.280612245,-0.237755102,1,0,0,1.099,button_left_test,0,8,8,160,1
,,,,,,,,,,,,,,,,,5cb63178d946580001e4cef4,29,2022-02-12_13h25.56.510,lexical_decision_task_DD,2021.2.3,iPhone,58.82352941,,,,,,,,,,0.984,1,,,,,,,,,,,,,,,,,,,,,,,0.28877551,-0.280612245,1,0,0,,,,,,,LADDER,LB,m,m,./images/LADDERLB.png,,,,,,,,,,,,,,,,,,,,,0,0.28877551,-0.280612245,1,0,0,0.984,button_right_test,0,9,9,38,1
,,,,,,,,,,,,,,,,,5cb63178d946580001e4cef4,29,2022-02-12_13h25.56.510,lexical_decision_task_DD,2021.2.3,iPhone,58.82352941,,,,,,,,,,0.733,1,,,,,,,,,,,,,,,,,,,,,,,0.315306122,-0.266326531,1,0,0,,,,,,,COUCH,LB,m,m,./images/COUCHLB.png,,,,,,,,,,,,,,,,,,,,,0,0.315306122,-0.266326531,1,0,0,0.733,button_right_test,0,10,10,77,1
,,,,,,,,,,,,,,,,,5cb63178d946580001e4cef4,29,2022-02-12_13h25.56.510,lexical_decision_task_DD,2021.2.3,iPhone,58.82352941,,,,,,,,,,0.934,1,,,,,,,,,,,,,,,,,,,,,,,-0.304081633,-0.291836735,1,0,0,,,,,,,BOILER,C,z,m,./images/BOILER.png,,,,,,,,,,,,,,,,,,,,,0,-0.304081633,-0.291836735,1,0,0,0.934,button_left_test,0,11,11,120,1
,,,,,,,,,,,,,,,,,5cb63178d946580001e4cef4,29,2022-02-12_13h25.56.510,lexical_decision_task_DD,2021.2.3,iPhone,58.82352941,,,,,,,,,,0.918,0,,,,,,,,,,,,,,,,,,,,,,,0.314285714,-0.289795918,1,0,0,,,,,,,ARTIST,HB,z,m,./images/ARTISTHB.png,,,,,,,,,,,,,,,,,,,,,0,0.314285714,-0.289795918,1,0,0,0.918,button_right_test,0,12,12,145,1
,,,,,,,,,,,,,,,,,5cb63178d946580001e4cef4,29,2022-02-12_13h25.56.510,lexical_decision_task_DD,2021.2.3,iPhone,58.82352941,,,,,,,,,,1.399,1,,,,,,,,,,,,,,,,,,,,,,,-0.385714286,-0.295918367,1,0,0,,,,,,,STOOL,HB,z,m,./images/STOOLHB.png,,,,,,,,,,,,,,,,,,,,,0,-0.385714286,-0.295918367,1,0,0,1.399,button_left_test,0,13,13,127,1
,,,,,,,,,,,,,,,,,5cb63178d946580001e4cef4,29,2022-02-12_13h25.56.510,lexical_decision_task_DD,2021.2.3,iPhone,58.82352941,,,,,,,,,,0.984,1,,,,,,,,,,,,,,,,,,,,,,,0.297959184,-0.289795918,1,0,0,,,,,,,PENCE,HB,m,m,./images/PENCEHB.png,,,,,,,,,,,,,,,,,,,,,0,0.297959184,-0.289795918,1,0,0,0.984,button_right_test,0,14,14,16,1
,,,,,,,,,,,,,,,,,5cb63178d946580001e4cef4,29,2022-02-12_13h25.56.510,lexical_decision_task_DD,2021.2.3,iPhone,58.82352941,,,,,,,,,,0.751,1,,,,,,,,,,,,,,,,,,,,,,,0.31122449,-0.248979592,1,0,0,,,,,,,PAINT,HB,m,m,./images/PAINTHB.png,,,,,,,,,,,,,,,,,,,,,0,0.31122449,-0.248979592,1,0,0,0.751,button_right_test,0,15,15,7,1
,,,,,,,,,,,,,,,,,5cb63178d946580001e4cef4,29,2022-02-12_13h25.56.510,lexical_decision_task_DD,2021.2.3,iPhone,58.82352941,,,,,,,,,,0.834,0,,,,,,,,,,,,,,,,,,,,,,,0.266326531,-0.28877551,1,0,0,,,,,,,SLOPE,C,z,m,./images/SLOPE.png,,,,,,,,,,,,,,,,,,,,,0,0.266326531,-0.28877551,1,0,0,0.834,button_right_test,0,16,16,114,1
,,,,,,,,,,,,,,,,,5cb63178d946580001e4cef4,29,2022-02-12_13h25.56.510,lexical_decision_task_DD,2021.2.3,iPhone,58.82352941,,,,,,,,,,0.967,0,,,,,,,,,,,,,,,,,,,,,,,-0.354081633,-0.26122449,1,0,0,,,,,,,SPORT,C,m,m,./images/SPORT.png,,,,,,,,,,,,,,,,,,,,,0,-0.354081633,-0.26122449,1,0,0,0.967,button_left_test,0,17,17,48,1
,,,,,,,,,,,,,,,,,5cb63178d946580001e4cef4,29,2022-02-12_13h25.56.510,lexical_decision_task_DD,2021.2.3,iPhone,58.82352941,,,,,,,,,,1.067,1,,,,,,,,,,,,,,,,,,,,,,,-0.375510204,-0.263265306,1,0,0,,,,,,,DONKEY,HB,z,m,./images/DONKEYHB.png,,,,,,,,,,,,,,,,,,,,,0,-0.375510204,-0.263265306,1,0,0,1.067,button_left_test,0,18,18,103,1
,,,,,,,,,,,,,,,,,5cb63178d946580001e4cef4,29,2022-02-12_13h25.56.510,lexical_decision_task_DD,2021.2.3,iPhone,58.82352941,,,,,,,,,,1.133,1,,,,,,,,,,,,,,,,,,,,,,,-0.320408163,-0.251020408,1,0,0,,,,,,,STAIN,C,z,m,./images/STAIN.png,,,,,,,,,,,,,,,,,,,,,0,-0.320408163,-0.251020408,1,0,0,1.133,button_left_test,0,19,19,90,1
,,,,,,,,,,,,,,,,,5cb63178d946580001e4cef4,29,2022-02-12_13h25.56.510,lexical_decision_task_DD,2021.2.3,iPhone,58.82352941,,,,,,,,,,0.883,1,,,,,,,,,,,,,,,,,,,,,,,0.253061224,-0.297959184,1,0,0,,,,,,,MUFFIN,HB,m,m,./images/MUFFINHB.png,,,,,,,,,,,,,,,,,,,,,0,0.253061224,-0.297959184,1,0,0,0.883,button_right_test,0,20,20,55,1
,,,,,,,,,,,,,,,,,5cb63178d946580001e4cef4,29,2022-02-12_13h25.56.510,lexical_decision_task_DD,2021.2.3,iPhone,58.82352941,,,,,,,,,,0.768,1,,,,,,,,,,,,,,,,,,,,,,,0.253061224,-0.245918367,1,0,0,,,,,,,STORM,C,m,m,./images/STORM.png,,,,,,,,,,,,,,,,,,,,,0,0.253061224,-0.245918367,1,0,0,0.768,button_right_test,0,21,21,30,1
,,,,,,,,,,,,,,,,,5cb63178d946580001e4cef4,29,2022-02-12_13h25.56.510,lexical_decision_task_DD,2021.2.3,iPhone,58.82352941,,,,,,,,,,0.883,1,,,,,,,,,,,,,,,,,,,,,,,0.263265306,-0.271428571,1,0,0,,,,,,,JELLY,HB,m,m,./images/JELLYHB.png,,,,,,,,,,,,,,,,,,,,,0,0.263265306,-0.271428571,1,0,0,0.883,button_right_test,0,22,22,64,1
,,,,,,,,,,,,,,,,,5cb63178d946580001e4cef4,29,2022-02-12_13h25.56.510,lexical_decision_task_DD,2021.2.3,iPhone,58.82352941,,,,,,,,,,1.134,1,,,,,,,,,,,,,,,,,,,,,,,0.27244898,-0.315306122,1,0,0,,,,,,,TRIPOD,C,m,m,./images/TRIPOD.png,,,,,,,,,,,,,,,,,,,,,0,0.27244898,-0.315306122,1,0,0,1.134,button_right_test,0,23,23,54,1
,,,,,,,,,,,,,,,,,5cb63178d946580001e4cef4,29,2022-02-12_13h25.56.510,lexical_decision_task_DD,2021.2.3,iPhone,58.82352941,,,,,,,,,,1.052,1,,,,,,,,,,,,,,,,,,,,,,,-0.376530612,-0.298979592,1,0,0,,,,,,,MUMMY,HB,z,m,./images/MUMMYHB.png,,,,,,,,,,,,,,,,,,,,,0,-0.376530612,-0.298979592,1,0,0,1.052,button_left_test,0,24,24,130,1
,,,,,,,,,,,,,,,,,5cb63178d946580001e4cef4,29,2022-02-12_13h25.56.510,lexical_decision_task_DD,2021.2.3,iPhone,58.82352941,,,,,,,,,,1.433,1,,,,,,,,,,,,,,,,,,,,,,,-0.355102041,-0.271428571,1,0,0,,,,,,,BUNNY,HB,z,m,./images/BUNNYHB.png,,,,,,,,,,,,,,,,,,,,,0,-0.355102041,-0.271428571,1,0,0,1.433,button_left_test,0,25,25,97,1
,,,,,,,,,,,,,,,,,5cb63178d946580001e4cef4,29,2022-02-12_13h25.56.510,lexical_decision_task_DD,2021.2.3,iPhone,58.82352941,,,,,,,,,,1.001,0,,,,,,,,,,,,,,,,,,,,,,,0.35,-0.219387755,1,0,0,,,,,,,BUBBLE,LB,z,m,./images/BUBBLELB.png,,,,,,,,,,,,,,,,,,,,,0,0.35,-0.219387755,1,0,0,1.001,button_right_test,0,26,26,155,1
,,,,,,,,,,,,,,,,,5cb63178d946580001e4cef4,29,2022-02-12_13h25.56.510,lexical_decision_task_DD,2021.2.3,iPhone,58.82352941,,,,,,,,,,0.985,1,,,,,,,,,,,,,,,,,,,,,,,0.314285714,-0.296938776,1,0,0,,,,,,,URINE,HB,m,m,./images/URINEHB.png,,,,,,,,,,,,,,,,,,,,,0,0.314285714,-0.296938776,1,0,0,0.985,button_right_test,0,27,27,70,1
,,,,,,,,,,,,,,,,,5cb63178d946580001e4cef4,29,2022-02-12_13h25.56.510,lexical_decision_task_DD,2021.2.3,iPhone,58.82352941,,,,,,,,,,0.933,1,,,,,,,,,,,,,,,,,,,,,,,0.32755102,-0.262244898,1,0,0,,,,,,,SNACK,HB,m,m,./images/SNACKHB.png,,,,,,,,,,,,,,,,,,,,,0,0.32755102,-0.262244898,1,0,0,0.933,button_right_test,0,28,28,73,1
,,,,,,,,,,,,,,,,,5cb63178d946580001e4cef4,29,2022-02-12_13h25.56.510,lexical_decision_task_DD,2021.2.3,iPhone,58.82352941,,,,,,,,,,1.216,1,,,,,,,,,,,,,,,,,,,,,,,-0.379591837,-0.303061224,1,0,0,,,,,,,CLOWN,HB,z,m,./images/CLOWNHB.png,,,,,,,,,,,,,,,,,,,,,0,-0.379591837,-0.303061224,1,0,0,1.216,button_left_test,0,29,29,106,1
,,,,,,,,,,,,,,,,,5cb63178d946580001e4cef4,29,2022-02-12_13h25.56.510,lexical_decision_task_DD,2021.2.3,iPhone,58.82352941,,,,,,,,,,1.133,1,,,,,,,,,,,,,,,,,,,,,,,0.319387755,-0.275510204,1,0,0,,,,,,,STRING,LB,m,m,./images/STRINGLB.png,,,,,,,,,,,,,,,,,,,,,0,0.319387755,-0.275510204,1,0,0,1.133,button_right_test,0,30,30,41,1
,,,,,,,,,,,,,,,,,5cb63178d946580001e4cef4,29,2022-02-12_13h25.56.510,lexical_decision_task_DD,2021.2.3,iPhone,58.82352941,,,,,,,,,,0.915,1,,,,,,,,,,,,,,,,,,,,,,,0.318367347,-0.292857143,1,0,0,,,,,,,PIMPLE,LB,m,m,./images/PIMPLELB.png,,,,,,,,,,,,,,,,,,,,,0,0.318367347,-0.292857143,1,0,0,0.915,button_right_test,0,31,31,71,1
,,,,,,,,,,,,,,,,,5cb63178d946580001e4cef4,29,2022-02-12_13h25.56.510,lexical_decision_task_DD,2021.2.3,iPhone,58.82352941,,,,,,,,,,0.75,1,,,,,,,,,,,,,,,,,,,,,,,0.298979592,-0.258163265,1,0,0,,,,,,,BURIAL,LB,m,m,./images/BURIALLB.png,,,,,,,,,,,,,,,,,,,,,0,0.298979592,-0.258163265,1,0,0,0.75,button_right_test,0,32,32,59,1
,,,,,,,,,,,,,,,,,5cb63178d946580001e4cef4,29,2022-02-12_13h25.56.510,lexical_decision_task_DD,2021.2.3,iPhone,58.82352941,,,,,,,,,,0.883,0,,,,,,,,,,,,,,,,,,,,,,,-0.321428571,-0.259183673,1,0,0,,,,,,,WEASEL,LB,m,m,./images/WEASELLB.png,,,,,,,,,,,,,,,,,,,,,0,-0.321428571,-0.259183673,1,0,0,0.883,button_left_test,0,33,33,80,1
,,,,,,,,,,,,,,,,,5cb63178d946580001e4cef4,29,2022-02-12_13h25.56.510,lexical_decision_task_DD,2021.2.3,iPhone,58.82352941,,,,,,,,,,1.451,1,,,,,,,,,,,,,,,,,,,,,,,-0.379591837,-0.237755102,1,0,0,,,,,,,TOWEL,HB,z,m,./images/TOWELHB.png,,,,,,,,,,,,,,,,,,,,,0,-0.379591837,-0.237755102,1,0,0,1.451,button_left_test,0,34,34,85,1
,,,,,,,,,,,,,,,,,5cb63178d946580001e4cef4,29,2022-02-12_13h25.56.510,lexical_decision_task_DD,2021.2.3,iPhone,58.82352941,,,,,,,,,,0.801,0,,,,,,,,,,,,,,,,,,,,,,,-0.321428571,-0.247959184,1,0,0,,,,,,,TWINS,C,m,m,./images/TWINS.png,,,,,,,,,,,,,,,,,,,,,0,-0.321428571,-0.247959184,1,0,0,0.801,button_left_test,0,35,35,60,1
,,,,,,,,,,,,,,,,,5cb63178d946580001e4cef4,29,2022-02-12_13h25.56.510,lexical_decision_task_DD,2021.2.3,iPhone,58.82352941,,,,,,,,,,0.883,1,,,,,,,,,,,,,,,,,,,,,,,-0.393877551,-0.297959184,1,0,0,,,,,,,FLESH,C,z,m,./images/FLESH.png,,,,,,,,,,,,,,,,,,,,,0,-0.393877551,-0.297959184,1,0,0,0.883,button_left_test,0,36,36,108,1
,,,,,,,,,,,,,,,,,5cb63178d946580001e4cef4,29,2022-02-12_13h25.56.510,lexical_decision_task_DD,2021.2.3,iPhone,58.82352941,,,,,,,,,,0.986,0,,,,,,,,,,,,,,,,,,,,,,,-0.337755102,-0.28877551,1,0,0,,,,,,,MOTOR,HB,m,m,./images/MOTORHB.png,,,,,,,,,,,,,,,,,,,,,0,-0.337755102,-0.28877551,1,0,0,0.986,button_left_test,0,37,37,13,1
,,,,,,,,,,,,,,,,,5cb63178d946580001e4cef4,29,2022-02-12_13h25.56.510,lexical_decision_task_DD,2021.2.3,iPhone,58.82352941,,,,,,,,,,0.716,1,,,,,,,,,,,,,,,,,,,,,,,-0.281632653,-0.216326531,1,0,0,,,,,,,CASINO,HB,z,m,./images/CASINOHB.png,,,,,,,,,,,,,,,,,,,,,0,-0.281632653,-0.216326531,1,0,0,0.716,button_left_test,0,38,38,112,1
,,,,,,,,,,,,,,,,,5cb63178d946580001e4cef4,29,2022-02-12_13h25.56.510,lexical_decision_task_DD,2021.2.3,iPhone,58.82352941,,,,,,,,,,0.783,1,,,,,,,,,,,,,,,,,,,,,,,0.292857143,-0.289795918,1,0,0,,,,,,,POODLE,C,m,m,./images/POODLE.png,,,,,,,,,,,,,,,,,,,,,0,0.292857143,-0.289795918,1,0,0,0.783,button_right_test,0,39,39,81,1
,,,,,,,,,,,,,,,,,5cb63178d946580001e4cef4,29,2022-02-12_13h25.56.510,lexical_decision_task_DD,2021.2.3,iPhone,58.82352941,,,,,,,,,,0.901,1,,,,,,,,,,,,,,,,,,,,,,,-0.297959184,-0.254081633,1,0,0,,,,,,,WAGON,HB,z,m,./images/WAGONHB.png,,,,,,,,,,,,,,,,,,,,,0,-0.297959184,-0.254081633,1,0,0,0.901,button_left_test,0,40,40,91,1
,,,,,,,,,,,,,,,,,5cb63178d946580001e4cef4,29,2022-02-12_13h25.56.510,lexical_decision_task_DD,2021.2.3,iPhone,58.82352941,,,,,,,,,,0.75,0,,,,,,,,,,,,,,,,,,,,,,,0.048979592,-0.379591837,1,0,0,,,,,,,DRUMS,HB,m,m,./images/DRUMSHB.png,break_done_button,,,,,,,,,,,,,,,,,,,,0,-0.258163265,-0.255102041,1,0,0,0.75,button_left_test,0,41,41,49,1
,,,,,,,,,,,,,,,,,5cb63178d946580001e4cef4,29,2022-02-12_13h25.56.510,lexical_decision_task_DD,2021.2.3,iPhone,58.82352941,,,,,,,,,,1.35,1,,,,,,,,,,,,,,,,,,,,,,,-0.323469388,-0.310204082,1,0,0,,,,,,,LLAMA,LB,z,m,./images/LLAMALB.png,,,,,,,,,,,,,,,,,,,,,0,-0.323469388,-0.310204082,1,0,0,1.35,button_left_test,0,42,42,119,1
,,,,,,,,,,,,,,,,,5cb63178d946580001e4cef4,29,2022-02-12_13h25.56.510,lexical_decision_task_DD,2021.2.3,iPhone,58.82352941,,,,,,,,,,0.933,1,,,,,,,,,,,,,,,,,,,,,,,0.284693878,-0.323469388,1,0,0,,,,,,,SHELF,C,m,m,./images/SHELF.png,,,,,,,,,,,,,,,,,,,,,0,0.284693878,-0.323469388,1,0,0,0.933,button_right_test,0,43,43,39,1
,,,,,,,,,,,,,,,,,5cb63178d946580001e4cef4,29,2022-02-12_13h25.56.510,lexical_decision_task_DD,2021.2.3,iPhone,58.82352941,,,,,,,,,,1.468,0,,,,,,,,,,,,,,,,,,,,,,,0.289795918,-0.309183673,1,0,0,,,,,,,GRANNY,LB,z,m,./images/GRANNYLB.png,,,,,,,,,,,,,,,,,,,,,0,0.289795918,-0.309183673,1,0,0,1.468,button_right_test,0,44,44,104,1
,,,,,,,,,,,,,,,,,5cb63178d946580001e4cef4,29,2022-02-12_13h25.56.510,lexical_decision_task_DD,2021.2.3,iPhone,58.82352941,,,,,,,,,,1.249,1,,,,,,,,,,,,,,,,,,,,,,,0.214285714,-0.25,1,0,0,,,,,,,TOMATO,C,m,m,./images/TOMATO.png,,,,,,,,,,,,,,,,,,,,,0,0.214285714,-0.25,1,0,0,1.249,button_right_test,0,45,45,0,1
,,,,,,,,,,,,,,,,,5cb63178d946580001e4cef4,29,2022-02-12_13h25.56.510,lexical_decision_task_DD,2021.2.3,iPhone,58.82352941,,,,,,,,,,0.833,1,,,,,,,,,,,,,,,,,,,,,,,-0.266326531,-0.243877551,1,0,0,,,,,,,BASKET,LB,z,m,./images/BASKETLB.png,,,,,,,,,,,,,,,,,,,,,0,-0.266326531,-0.243877551,1,0,0,0.833,button_left_test,0,46,46,128,1
,,,,,,,,,,,,,,,,,5cb63178d946580001e4cef4,29,2022-02-12_13h25.56.510,lexical_decision_task_DD,2021.2.3,iPhone,58.82352941,,,,,,,,,,0.651,1,,,,,,,,,,,,,,,,,,,,,,,-0.332653061,-0.26122449,1,0,0,,,,,,,JUMPER,LB,z,m,./images/JUMPERLB.png,,,,,,,,,,,,,,,,,,,,,0,-0.332653061,-0.26122449,1,0,0,0.651,button_left_test,0,47,47,158,1
,,,,,,,,,,,,,,,,,5cb63178d946580001e4cef4,29,2022-02-12_13h25.56.510,lexical_decision_task_DD,2021.2.3,iPhone,58.82352941,,,,,,,,,,0.734,1,,,,,,,,,,,,,,,,,,,,,,,-0.280612245,-0.267346939,1,0,0,,,,,,,STREAM,LB,z,m,./images/STREAMLB.png,,,,,,,,,,,,,,,,,,,,,0,-0.280612245,-0.267346939,1,0,0,0.734,button_left_test,0,48,48,125,1
,,,,,,,,,,,,,,,,,5cb63178d946580001e4cef4,29,2022-02-12_13h25.56.510,lexical_decision_task_DD,2021.2.3,iPhone,58.82352941,,,,,,,,,,0.801,1,,,,,,,,,,,,,,,,,,,,,,,0.268367347,-0.287755102,1,0,0,,,,,,,MAGGOT,C,m,m,./images/MAGGOT.png,,,,,,,,,,,,,,,,,,,,,0,0.268367347,-0.287755102,1,0,0,0.801,button_right_test,0,49,49,33,1
,,,,,,,,,,,,,,,,,5cb63178d946580001e4cef4,29,2022-02-12_13h25.56.510,lexical_decision_task_DD,2021.2.3,iPhone,58.82352941,,,,,,,,,,0.851,0,,,,,,,,,,,,,,,,,,,,,,,-0.352040816,-0.257142857,1,0,0,,,,,,,SWEAT,C,m,m,./images/SWEAT.png,,,,,,,,,,,,,,,,,,,,,0,-0.352040816,-0.257142857,1,0,0,0.851,button_left_test,0,50,50,66,1
,,,,,,,,,,,,,,,,,5cb63178d946580001e4cef4,29,2022-02-12_13h25.56.510,lexical_decision_task_DD,2021.2.3,iPhone,58.82352941,,,,,,,,,,0.835,1,,,,,,,,,,,,,,,,,,,,,,,-0.284693878,-0.307142857,1,0,0,,,,,,,PARADE,LB,z,m,./images/PARADELB.png,,,,,,,,,,,,,,,,,,,,,0,-0.284693878,-0.307142857,1,0,0,0.835,button_left_test,0,51,51,101,1
,,,,,,,,,,,,,,,,,5cb63178d946580001e4cef4,29,2022-02-12_13h25.56.510,lexical_decision_task_DD,2021.2.3,iPhone,58.82352941,,,,,,,,,,0.783,1,,,,,,,,,,,,,,,,,,,,,,,-0.286734694,-0.266326531,1,0,0,,,,,,,FLASK,C,z,m,./images/FLASK.png,,,,,,,,,,,,,,,,,,,,,0,-0.286734694,-0.266326531,1,0,0,0.783,button_left_test,0,52,52,156,1
,,,,,,,,,,,,,,,,,5cb63178d946580001e4cef4,29,2022-02-12_13h25.56.510,lexical_decision_task_DD,2021.2.3,iPhone,58.82352941,,,,,,,,,,0.716,1,,,,,,,,,,,,,,,,,,,,,,,-0.348979592,-0.265306122,1,0,0,,,,,,,BAKER,C,z,m,./images/BAKER.png,,,,,,,,,,,,,,,,,,,,,0,-0.348979592,-0.265306122,1,0,0,0.716,button_left_test,0,53,53,147,1
,,,,,,,,,,,,,,,,,5cb63178d946580001e4cef4,29,2022-02-12_13h25.56.510,lexical_decision_task_DD,2021.2.3,iPhone,58.82352941,,,,,,,,,,0.951,1,,,,,,,,,,,,,,,,,,,,,,,-0.294897959,-0.237755102,1,0,0,,,,,,,MONKEY,C,z,m,./images/MONKEY.png,,,,,,,,,,,,,,,,,,,,,0,-0.294897959,-0.237755102,1,0,0,0.951,button_left_test,0,54,54,129,1
,,,,,,,,,,,,,,,,,5cb63178d946580001e4cef4,29,2022-02-12_13h25.56.510,lexical_decision_task_DD,2021.2.3,iPhone,58.82352941,,,,,,,,,,0.852,1,,,,,,,,,,,,,,,,,,,,,,,-0.314285714,-0.284693878,1,0,0,,,,,,,STATUE,C,z,m,./images/STATUE.png,,,,,,,,,,,,,,,,,,,,,0,-0.314285714,-0.284693878,1,0,0,0.852,button_left_test,0,55,55,150,1
,,,,,,,,,,,,,,,,,5cb63178d946580001e4cef4,29,2022-02-12_13h25.56.510,lexical_decision_task_DD,2021.2.3,iPhone,58.82352941,,,,,,,,,,0.884,1,,,,,,,,,,,,,,,,,,,,,,,-0.298979592,-0.275510204,1,0,0,,,,,,,BISHOP,HB,z,m,./images/BISHOPHB.png,,,,,,,,,,,,,,,,,,,,,0,-0.298979592,-0.275510204,1,0,0,0.884,button_left_test,0,56,56,133,1
,,,,,,,,,,,,,,,,,5cb63178d946580001e4cef4,29,2022-02-12_13h25.56.510,lexical_decision_task_DD,2021.2.3,iPhone,58.82352941,,,,,,,,,,0.917,1,,,,,,,,,,,,,,,,,,,,,,,0.266326531,-0.280612245,1,0,0,,,,,,,LITTER,C,m,m,./images/LITTER.png,,,,,,,,,,,,,,,,,,,,,0,0.266326531,-0.280612245,1,0,0,0.917,button_right_test,0,57,57,78,1
,,,,,,,,,,,,,,,,,5cb63178d946580001e4cef4,29,2022-02-12_13h25.56.510,lexical_decision_task_DD,2021.2.3,iPhone,58.82352941,,,,,,,,,,1.233,1,,,,,,,,,,,,,,,,,,,,,,,0.219387755,-0.270408163,1,0,0,,,,,,,WALRUS,LB,m,m,./images/WALRUSLB.png,,,,,,,,,,,,,,,,,,,,,0,0.219387755,-0.270408163,1,0,0,1.233,button_right_test,0,58,58,23,1
,,,,,,,,,,,,,,,,,5cb63178d946580001e4cef4,29,2022-02-12_13h25.56.510,lexical_decision_task_DD,2021.2.3,iPhone,58.82352941,,,,,,,,,,1,1,,,,,,,,,,,,,,,,,,,,,,,-0.352040816,-0.240816327,1,0,0,,,,,,,PLANET,LB,z,m,./images/PLANETLB.png,,,,,,,,,,,,,,,,,,,,,0,-0.352040816,-0.240816327,1,0,0,1,button_left_test,0,59,59,164,1
,,,,,,,,,,,,,,,,,5cb63178d946580001e4cef4,29,2022-02-12_13h25.56.510,lexical_decision_task_DD,2021.2.3,iPhone,58.82352941,,,,,,,,,,0.733,1,,,,,,,,,,,,,,,,,,,,,,,-0.283673469,-0.257142857,1,0,0,,,,,,,WHEEL,LB,z,m,./images/WHEELLB.png,,,,,,,,,,,,,,,,,,,,,0,-0.283673469,-0.257142857,1,0,0,0.733,button_left_test,0,60,60,161,1
,,,,,,,,,,,,,,,,,5cb63178d946580001e4cef4,29,2022-02-12_13h25.56.510,lexical_decision_task_DD,2021.2.3,iPhone,58.82352941,,,,,,,,,,1.052,0,,,,,,,,,,,,,,,,,,,,,,,-0.294897959,-0.232653061,1,0,0,,,,,,,BIRTH,HB,m,m,./images/BIRTHHB.png,,,,,,,,,,,,,,,,,,,,,0,-0.294897959,-0.232653061,1,0,0,1.052,button_left_test,0,61,61,37,1
,,,,,,,,,,,,,,,,,5cb63178d946580001e4cef4,29,2022-02-12_13h25.56.510,lexical_decision_task_DD,2021.2.3,iPhone,58.82352941,,,,,,,,,,1.019,1,,,,,,,,,,,,,,,,,,,,,,,0.281632653,-0.310204082,1,0,0,,,,,,,SKIING,LB,m,m,./images/SKIINGLB.png,,,,,,,,,,,,,,,,,,,,,0,0.281632653,-0.310204082,1,0,0,1.019,button_right_test,0,62,62,17,1
,,,,,,,,,,,,,,,,,5cb63178d946580001e4cef4,29,2022-02-12_13h25.56.510,lexical_decision_task_DD,2021.2.3,iPhone,58.82352941,,,,,,,,,,0.818,1,,,,,,,,,,,,,,,,,,,,,,,-0.325510204,-0.207142857,1,0,0,,,,,,,ENGINE,LB,z,m,./images/ENGINELB.png,,,,,,,,,,,,,,,,,,,,,0,-0.325510204,-0.207142857,1,0,0,0.818,button_left_test,0,63,63,122,1
,,,,,,,,,,,,,,,,,5cb63178d946580001e4cef4,29,2022-02-12_13h25.56.510,lexical_decision_task_DD,2021.2.3,iPhone,58.82352941,,,,,,,,,,1.033,1,,,,,,,,,,,,,,,,,,,,,,,-0.32755102,-0.266326531,1,0,0,,,,,,,RULER,HB,z,m,./images/RULERHB.png,,,,,,,,,,,,,,,,,,,,,0,-0.32755102,-0.266326531,1,0,0,1.033,button_left_test,0,64,64,163,1
,,,,,,,,,,,,,,,,,5cb63178d946580001e4cef4,29,2022-02-12_13h25.56.510,lexical_decision_task_DD,2021.2.3,iPhone,58.82352941,,,,,,,,,,0.717,1,,,,,,,,,,,,,,,,,,,,,,,-0.256122449,-0.224489796,1,0,0,,,,,,,CRATER,C,z,m,./images/CRATER.png,,,,,,,,,,,,,,,,,,,,,0,-0.256122449,-0.224489796,1,0,0,0.717,button_left_test,0,65,65,87,1
,,,,,,,,,,,,,,,,,5cb63178d946580001e4cef4,29,2022-02-12_13h25.56.510,lexical_decision_task_DD,2021.2.3,iPhone,58.82352941,,,,,,,,,,0.751,1,,,,,,,,,,,,,,,,,,,,,,,-0.308163265,-0.237755102,1,0,0,,,,,,,DRILL,C,z,m,./images/DRILL.png,,,,,,,,,,,,,,,,,,,,,0,-0.308163265,-0.237755102,1,0,0,0.751,button_left_test,0,66,66,165,1
,,,,,,,,,,,,,,,,,5cb63178d946580001e4cef4,29,2022-02-12_13h25.56.510,lexical_decision_task_DD,2021.2.3,iPhone,58.82352941,,,,,,,,,,0.835,0,,,,,,,,,,,,,,,,,,,,,,,-0.290816327,-0.233673469,1,0,0,,,,,,,TULIP,LB,m,m,./images/TULIPLB.png,,,,,,,,,,,,,,,,,,,,,0,-0.290816327,-0.233673469,1,0,0,0.835,button_left_test,0,67,67,8,1
,,,,,,,,,,,,,,,,,5cb63178d946580001e4cef4,29,2022-02-12_13h25.56.510,lexical_decision_task_DD,2021.2.3,iPhone,58.82352941,,,,,,,,,,0.717,1,,,,,,,,,,,,,,,,,,,,,,,-0.273469388,-0.220408163,1,0,0,,,,,,,SAUNA,C,z,m,./images/SAUNA.png,,,,,,,,,,,,,,,,,,,,,0,-0.273469388,-0.220408163,1,0,0,0.717,button_left_test,0,68,68,117,1
,,,,,,,,,,,,,,,,,5cb63178d946580001e4cef4,29,2022-02-12_13h25.56.510,lexical_decision_task_DD,2021.2.3,iPhone,58.82352941,,,,,,,,,,0.718,1,,,,,,,,,,,,,,,,,,,,,,,-0.292857143,-0.255102041,1,0,0,,,,,,,FERRY,C,z,m,./images/FERRY.png,,,,,,,,,,,,,,,,,,,,,0,-0.292857143,-0.255102041,1,0,0,0.718,button_left_test,0,69,69,141,1
,,,,,,,,,,,,,,,,,5cb63178d946580001e4cef4,29,2022-02-12_13h25.56.510,lexical_decision_task_DD,2021.2.3,iPhone,58.82352941,,,,,,,,,,0.968,1,,,,,,,,,,,,,,,,,,,,,,,0.280612245,-0.285714286,1,0,0,,,,,,,SMOKER,LB,m,m,./images/SMOKERLB.png,,,,,,,,,,,,,,,,,,,,,0,0.280612245,-0.285714286,1,0,0,0.968,button_right_test,0,70,70,26,1
,,,,,,,,,,,,,,,,,5cb63178d946580001e4cef4,29,2022-02-12_13h25.56.510,lexical_decision_task_DD,2021.2.3,iPhone,58.82352941,,,,,,,,,,1.033,1,,,,,,,,,,,,,,,,,,,,,,,-0.307142857,-0.247959184,1,0,0,,,,,,,PEBBLE,HB,z,m,./images/PEBBLEHB.png,,,,,,,,,,,,,,,,,,,,,0,-0.307142857,-0.247959184,1,0,0,1.033,button_left_test,0,71,71,166,1
,,,,,,,,,,,,,,,,,5cb63178d946580001e4cef4,29,2022-02-12_13h25.56.510,lexical_decision_task_DD,2021.2.3,iPhone,58.82352941,,,,,,,,,,0.751,1,,,,,,,,,,,,,,,,,,,,,,,-0.290816327,-0.265306122,1,0,0,,,,,,,MAMMAL,LB,z,m,./images/MAMMALLB.png,,,,,,,,,,,,,,,,,,,,,0,-0.290816327,-0.265306122,1,0,0,0.751,button_left_test,0,72,72,146,1
,,,,,,,,,,,,,,,,,5cb63178d946580001e4cef4,29,2022-02-12_13h25.56.510,lexical_decision_task_DD,2021.2.3,iPhone,58.82352941,,,,,,,,,,0.681,1,,,,,,,,,,,,,,,,,,,,,,,-0.312244898,-0.271428571,1,0,0,,,,,,,CANOE,HB,z,m,./images/CANOEHB.png,,,,,,,,,,,,,,,,,,,,,0,-0.312244898,-0.271428571,1,0,0,0.681,button_left_test,0,73,73,142,1
,,,,,,,,,,,,,,,,,5cb63178d946580001e4cef4,29,2022-02-12_13h25.56.510,lexical_decision_task_DD,2021.2.3,iPhone,58.82352941,,,,,,,,,,0.818,0,,,,,,,,,,,,,,,,,,,,,,,-0.254081633,-0.248979592,1,0,0,,,,,,,BABOON,HB,m,m,./images/BABOONHB.png,,,,,,,,,,,,,,,,,,,,,0,-0.254081633,-0.248979592,1,0,0,0.818,button_left_test,0,74,74,58,1
,,,,,,,,,,,,,,,,,5cb63178d946580001e4cef4,29,2022-02-12_13h25.56.510,lexical_decision_task_DD,2021.2.3,iPhone,58.82352941,,,,,,,,,,0.75,1,,,,,,,,,,,,,,,,,,,,,,,-0.268367347,-0.244897959,1,0,0,,,,,,,BLOKE,C,z,m,./images/BLOKE.png,,,,,,,,,,,,,,,,,,,,,0,-0.268367347,-0.244897959,1,0,0,0.75,button_left_test,0,75,75,96,1
,,,,,,,,,,,,,,,,,5cb63178d946580001e4cef4,29,2022-02-12_13h25.56.510,lexical_decision_task_DD,2021.2.3,iPhone,58.82352941,,,,,,,,,,1.134,1,,,,,,,,,,,,,,,,,,,,,,,0.271428571,-0.297959184,1,0,0,,,,,,,KITTEN,C,m,m,./images/KITTEN.png,,,,,,,,,,,,,,,,,,,,,0,0.271428571,-0.297959184,1,0,0,1.134,button_right_test,0,76,76,45,1
,,,,,,,,,,,,,,,,,5cb63178d946580001e4cef4,29,2022-02-12_13h25.56.510,lexical_decision_task_DD,2021.2.3,iPhone,58.82352941,,,,,,,,,,0.667,1,,,,,,,,,,,,,,,,,,,,,,,-0.323469388,-0.25,1,0,0,,,,,,,COLLAR,C,z,m,./images/COLLAR.png,,,,,,,,,,,,,,,,,,,,,0,-0.323469388,-0.25,1,0,0,0.667,button_left_test,0,77,77,99,1
,,,,,,,,,,,,,,,,,5cb63178d946580001e4cef4,29,2022-02-12_13h25.56.510,lexical_decision_task_DD,2021.2.3,iPhone,58.82352941,,,,,,,,,,0.65,1,,,,,,,,,,,,,,,,,,,,,,,-0.280612245,-0.27244898,1,0,0,,,,,,,PILOT,LB,z,m,./images/PILOTLB.png,,,,,,,,,,,,,,,,,,,,,0,-0.280612245,-0.27244898,1,0,0,0.65,button_left_test,0,78,78,134,1
,,,,,,,,,,,,,,,,,5cb63178d946580001e4cef4,29,2022-02-12_13h25.56.510,lexical_decision_task_DD,2021.2.3,iPhone,58.82352941,,,,,,,,,,0.667,1,,,,,,,,,,,,,,,,,,,,,,,-0.293877551,-0.26122449,1,0,0,,,,,,,BROOM,C,z,m,./images/BROOM.png,,,,,,,,,,,,,,,,,,,,,0,-0.293877551,-0.26122449,1,0,0,0.667,button_left_test,0,79,79,162,1
,,,,,,,,,,,,,,,,,5cb63178d946580001e4cef4,29,2022-02-12_13h25.56.510,lexical_decision_task_DD,2021.2.3,iPhone,58.82352941,,,,,,,,,,0.666,1,,,,,,,,,,,,,,,,,,,,,,,-0.297959184,-0.220408163,1,0,0,,,,,,,SPINE,LB,z,m,./images/SPINELB.png,,,,,,,,,,,,,,,,,,,,,0,-0.297959184,-0.220408163,1,0,0,0.666,button_left_test,0,80,80,149,1
,,,,,,,,,,,,,,,,,5cb63178d946580001e4cef4,29,2022-02-12_13h25.56.510,lexical_decision_task_DD,2021.2.3,iPhone,58.82352941,,,,,,,,,,0.752,0,,,,,,,,,,,,,,,,,,,,,,,-0.283673469,-0.292857143,1,0,0,,,,,,,SAILOR,HB,m,m,./images/SAILORHB.png,,,,,,,,,,,,,,,,,,,,,0,-0.283673469,-0.292857143,1,0,0,0.752,button_left_test,0,81,81,67,1
,,,,,,,,,,,,,,,,,5cb63178d946580001e4cef4,29,2022-02-12_13h25.56.510,lexical_decision_task_DD,2021.2.3,iPhone,58.82352941,,,,,,,,,,0.716,0,,,,,,,,,,,,,,,,,,,,,,,-0.303061224,-0.271428571,1,0,0,,,,,,,PACKET,LB,m,m,./images/PACKETLB.png,,,,,,,,,,,,,,,,,,,,,0,-0.303061224,-0.271428571,1,0,0,0.716,button_left_test,0,82,82,56,1
,,,,,,,,,,,,,,,,,5cb63178d946580001e4cef4,29,2022-02-12_13h25.56.510,lexical_decision_task_DD,2021.2.3,iPhone,58.82352941,,,,,,,,,,0.8,1,,,,,,,,,,,,,,,,,,,,,,,0.014285714,-0.389795918,1,0,0,,,,,,,BAMBOO,LB,z,m,./images/BAMBOOLB.png,break_done_button,,,,,,,,,,,,,,,,,,,,0,-0.273469388,-0.266326531,1,0,0,0.8,button_left_test,0,83,83,89,1
,,,,,,,,,,,,,,,,,5cb63178d946580001e4cef4,29,2022-02-12_13h25.56.510,lexical_decision_task_DD,2021.2.3,iPhone,58.82352941,,,,,,,,,,1,1,,,,,,,,,,,,,,,,,,,,,,,-0.333673469,-0.257142857,1,0,0,,,,,,,CHALK,HB,z,m,./images/CHALKHB.png,,,,,,,,,,,,,,,,,,,,,0,-0.333673469,-0.257142857,1,0,0,1,button_left_test,0,84,84,109,1
,,,,,,,,,,,,,,,,,5cb63178d946580001e4cef4,29,2022-02-12_13h25.56.510,lexical_decision_task_DD,2021.2.3,iPhone,58.82352941,,,,,,,,,,0.735,1,,,,,,,,,,,,,,,,,,,,,,,-0.296938776,-0.26122449,1,0,0,,,,,,,SAUCE,C,z,m,./images/SAUCE.png,,,,,,,,,,,,,,,,,,,,,0,-0.296938776,-0.26122449,1,0,0,0.735,button_left_test,0,85,85,135,1
,,,,,,,,,,,,,,,,,5cb63178d946580001e4cef4,29,2022-02-12_13h25.56.510,lexical_decision_task_DD,2021.2.3,iPhone,58.82352941,,,,,,,,,,0.718,0,,,,,,,,,,,,,,,,,,,,,,,-0.310204082,-0.266326531,1,0,0,,,,,,,SHORE,C,m,m,./images/SHORE.png,,,,,,,,,,,,,,,,,,,,,0,-0.310204082,-0.266326531,1,0,0,0.718,button_left_test,0,86,86,12,1
,,,,,,,,,,,,,,,,,5cb63178d946580001e4cef4,29,2022-02-12_13h25.56.510,lexical_decision_task_DD,2021.2.3,iPhone,58.82352941,,,,,,,,,,0.75,1,,,,,,,,,,,,,,,,,,,,,,,-0.273469388,-0.266326531,1,0,0,,,,,,,LAGOON,LB,z,m,./images/LAGOONLB.png,,,,,,,,,,,,,,,,,,,,,0,-0.273469388,-0.266326531,1,0,0,0.75,button_left_test,0,87,87,131,1
,,,,,,,,,,,,,,,,,5cb63178d946580001e4cef4,29,2022-02-12_13h25.56.510,lexical_decision_task_DD,2021.2.3,iPhone,58.82352941,,,,,,,,,,1,1,,,,,,,,,,,,,,,,,,,,,,,-0.323469388,-0.263265306,1,0,0,,,,,,,WALNUT,C,z,m,./images/WALNUT.png,,,,,,,,,,,,,,,,,,,,,0,-0.323469388,-0.263265306,1,0,0,1,button_left_test,0,88,88,84,1
,,,,,,,,,,,,,,,,,5cb63178d946580001e4cef4,29,2022-02-12_13h25.56.510,lexical_decision_task_DD,2021.2.3,iPhone,58.82352941,,,,,,,,,,1.001,1,,,,,,,,,,,,,,,,,,,,,,,-0.306122449,-0.283673469,1,0,0,,,,,,,CHERRY,C,z,m,./images/CHERRY.png,,,,,,,,,,,,,,,,,,,,,0,-0.306122449,-0.283673469,1,0,0,1.001,button_left_test,0,89,89,138,1
,,,,,,,,,,,,,,,,,5cb63178d946580001e4cef4,29,2022-02-12_13h25.56.510,lexical_decision_task_DD,2021.2.3,iPhone,58.82352941,,,,,,,,,,0.967,0,,,,,,,,,,,,,,,,,,,,,,,-0.256122449,-0.255102041,1,0,0,,,,,,,KIDNEY,C,m,m,./images/KIDNEY.png,,,,,,,,,,,,,,,,,,,,,0,-0.256122449,-0.255102041,1,0,0,0.967,button_left_test,0,90,90,21,1
,,,,,,,,,,,,,,,,,5cb63178d946580001e4cef4,29,2022-02-12_13h25.56.510,lexical_decision_task_DD,2021.2.3,iPhone,58.82352941,,,,,,,,,,1.234,0,,,,,,,,,,,,,,,,,,,,,,,0.27244898,-0.293877551,1,0,0,,,,,,,CURRY,C,z,m,./images/CURRY.png,,,,,,,,,,,,,,,,,,,,,0,0.27244898,-0.293877551,1,0,0,1.234,button_right_test,0,91,91,144,1
,,,,,,,,,,,,,,,,,5cb63178d946580001e4cef4,29,2022-02-12_13h25.56.510,lexical_decision_task_DD,2021.2.3,iPhone,58.82352941,,,,,,,,,,1.134,0,,,,,,,,,,,,,,,,,,,,,,,-0.301020408,-0.254081633,1,0,0,,,,,,,FARMER,LB,m,m,./images/FARMERLB.png,,,,,,,,,,,,,,,,,,,,,0,-0.301020408,-0.254081633,1,0,0,1.134,button_left_test,0,92,92,65,1
,,,,,,,,,,,,,,,,,5cb63178d946580001e4cef4,29,2022-02-12_13h25.56.510,lexical_decision_task_DD,2021.2.3,iPhone,58.82352941,,,,,,,,,,0.716,1,,,,,,,,,,,,,,,,,,,,,,,-0.301020408,-0.239795918,1,0,0,,,,,,,MEDAL,LB,z,m,./images/MEDALLB.png,,,,,,,,,,,,,,,,,,,,,0,-0.301020408,-0.239795918,1,0,0,0.716,button_left_test,0,93,93,95,1
,,,,,,,,,,,,,,,,,5cb63178d946580001e4cef4,29,2022-02-12_13h25.56.510,lexical_decision_task_DD,2021.2.3,iPhone,58.82352941,,,,,,,,,,0.717,1,,,,,,,,,,,,,,,,,,,,,,,-0.269387755,-0.254081633,1,0,0,,,,,,,BRUSH,LB,z,m,./images/BRUSHLB.png,,,,,,,,,,,,,,,,,,,,,0,-0.269387755,-0.254081633,1,0,0,0.717,button_left_test,0,94,94,143,1
,,,,,,,,,,,,,,,,,5cb63178d946580001e4cef4,29,2022-02-12_13h25.56.510,lexical_decision_task_DD,2021.2.3,iPhone,58.82352941,,,,,,,,,,0.684,1,,,,,,,,,,,,,,,,,,,,,,,-0.316326531,-0.274489796,1,0,0,,,,,,,VALLEY,LB,z,m,./images/VALLEYLB.png,,,,,,,,,,,,,,,,,,,,,0,-0.316326531,-0.274489796,1,0,0,0.684,button_left_test,0,95,95,152,1
,,,,,,,,,,,,,,,,,5cb63178d946580001e4cef4,29,2022-02-12_13h25.56.510,lexical_decision_task_DD,2021.2.3,iPhone,58.82352941,,,,,,,,,,0.715,0,,,,,,,,,,,,,,,,,,,,,,,-0.292857143,-0.243877551,1,0,0,,,,,,,FALCON,HB,m,m,./images/FALCONHB.png,,,,,,,,,,,,,,,,,,,,,0,-0.292857143,-0.243877551,1,0,0,0.715,button_left_test,0,96,96,28,1
,,,,,,,,,,,,,,,,,5cb63178d946580001e4cef4,29,2022-02-12_13h25.56.510,lexical_decision_task_DD,2021.2.3,iPhone,58.82352941,,,,,,,,,,0.751,0,,,,,,,,,,,,,,,,,,,,,,,-0.290816327,-0.267346939,1,0,0,,,,,,,BARREL,LB,m,m,./images/BARRELLB.png,,,,,,,,,,,,,,,,,,,,,0,-0.290816327,-0.267346939,1,0,0,0.751,button_left_test,0,97,97,32,1
,,,,,,,,,,,,,,,,,5cb63178d946580001e4cef4,29,2022-02-12_13h25.56.510,lexical_decision_task_DD,2021.2.3,iPhone,58.82352941,,,,,,,,,,0.982,1,,,,,,,,,,,,,,,,,,,,,,,0.28877551,-0.255102041,1,0,0,,,,,,,BELLY,HB,m,m,./images/BELLYHB.png,,,,,,,,,,,,,,,,,,,,,0,0.28877551,-0.255102041,1,0,0,0.982,button_right_test,0,98,98,10,1
