key_resp.keys,key_resp.rt,instr_done_touch.x,instr_done_touch.y,instr_done_touch.leftButton,instr_done_touch.midButton,instr_done_touch.rightButton,instruction_pages.thisRepN,instruction_pages.thisTrialN,instruction_pages.thisN,instruction_pages.thisIndex,instruction_pages.ran,pageN,phase,instruct_text,has_image,instruct_image,participant,age,date,expName,psychopyVersion,OS,frameRate,response.keys,response.corr,response.rt,touch_resp.x,touch_resp.y,touch_resp.leftButton,touch_resp.midButton,touch_resp.rightButton,touch_resp.time,touch_resp.clicked_name,rt,corr,practrials.thisRepN,practrials.thisTrialN,practrials.thisN,practrials.thisIndex,practrials.ran,TrialID,Target,corrAns,end_of_practice_trials_pages.thisRepN,end_of_practice_trials_pages.thisTrialN,end_of_practice_trials_pages.thisN,end_of_practice_trials_pages.thisIndex,end_of_practice_trials_pages.ran,key_resp_2.keys,key_resp_2.corr,key_resp_2.rt,targ_click.x,targ_click.y,targ_click.leftButton,targ_click.midButton,targ_click.rightButton,targ_click.time,targ_click.clicked_name,break_done_touch.x,break_done_touch.y,break_done_touch.leftButton,break_done_touch.midButton,break_done_touch.rightButton,break_done_keyboard.keys,maintrials.thisRepN,maintrials.thisTrialN,maintrials.thisN,maintrials.thisIndex,maintrials.ran,string,blur,study,lex,stim_path,break_done_keyboard.rt,mouse_2.x,mouse_2.y,mouse_2.leftButton,mouse_2.midButton,mouse_2.rightButton,mouse_2.clicked_name,slider.response,slider.rt,trials.thisRepN,trials.thisTrialN,trials.thisN,trials.thisIndex,trials.ran,test_instructions.thisRepN,test_instructions.thisTrialN,test_instructions.thisN,test_instructions.thisIndex,test_instructions.ran,instr_done_touch.clicked_name,key_resp_3.keys,key_resp_3.corr,key_resp_3.rt,test_click.x,test_click.y,test_click.leftButton,test_click.midButton,test_click.rightButton,test_click.time,test_click.clicked_name,test_phase.thisRepN,test_phase.thisTrialN,test_phase.thisN,test_phase.thisIndex,test_phase.ran
space,75.033,0.212962979,-0.175925936,0,0,0,0,0,0,0,1,1,instructions,"INSTRUCTIONS
At the start of each trial, look at the plus sign  (+) in the center of the screen.  This tells you that a trial is about to begin and where to look. Second, the plus sign will disappear and a string of letters will appear. Your task is to determine if the string of letters is a word or not. If the item is a word press the M key (on keyboard)  or touch the word button (phone/tablet).  If the item is not a word,  press the  Z key (on keyboard)  or touch the nonword button (on phone/tablet). 
Press the space bar or touch  continue.",0,,5d9eb6d611b7c400172aa975,43,2022-02-12_15h03.40.371,lexical_decision_task_DD,2021.2.3,Win32,60.02040694,,,,,,,,,,,,,,,,,,,,,,,,,,,,,,,,,,,,,,,,,,,,,,,,,,,,,,,,,,,,,,,,,,,,,,,,,,,,,,,,,,,,,,
space,154.8044,0.212962979,-0.175925936,0,0,0,0,1,1,1,1,2,instructions,"If your device has a keyboard, press the 'Z' key for nonwords and the 'M' key for words.





Press the space bar or touch the button below to continue.",0,keyboard-example.gif,5d9eb6d611b7c400172aa975,43,2022-02-12_15h03.40.371,lexical_decision_task_DD,2021.2.3,Win32,60.02040694,,,,,,,,,,,,,,,,,,,,,,,,,,,,,,,,,,,,,,,,,,,,,,,,,,,,,,,,,,,,,,,,,,,,,,,,,,,,,,,,,,,,,,
space,70.4832,0.212962979,-0.175925936,0,0,0,0,2,2,2,1,3,instructions,"If you are using a touchscreen only device, use the buttons on the screen. Do not use the mouse.





Press the space bar or touch the button below to continue.",0,touchscreen-example.gif,5d9eb6d611b7c400172aa975,43,2022-02-12_15h03.40.371,lexical_decision_task_DD,2021.2.3,Win32,60.02040694,,,,,,,,,,,,,,,,,,,,,,,,,,,,,,,,,,,,,,,,,,,,,,,,,,,,,,,,,,,,,,,,,,,,,,,,,,,,,,,,,,,,,,
space,3.8642,0.212962979,-0.175925936,0,0,0,0,3,3,3,1,4,instructions,"It is very important that you respond as quickly and accurately as possible, as each letter string will only be on the screen for two seconds. If you do not respond within this time, the message 'Too slow!' will be displayed and the experiment will progress to the next letter string. The first 20 trials will be practice trials and you will receive feedback on your answers. 

Press the space bar or touch the button below to start the practice trials.",0,,5d9eb6d611b7c400172aa975,43,2022-02-12_15h03.40.371,lexical_decision_task_DD,2021.2.3,Win32,60.02040694,,,,,,,,,,,,,,,,,,,,,,,,,,,,,,,,,,,,,,,,,,,,,,,,,,,,,,,,,,,,,,,,,,,,,,,,,,,,,,,,,,,,,,
,,,,,,,,,,,,,,,,,5d9eb6d611b7c400172aa975,43,2022-02-12_15h03.40.371,lexical_decision_task_DD,2021.2.3,Win32,60.02040694,z,1,2.3951,,,,,,,,2.3951,1,0,0,0,15,1,1001,WHAISE,z,,,,,,,,,,,,,,,,,,,,,,,,,,,,,,,,,,,,,,,,,,,,,,,,,,,,,,,,,,,,,,,,,,
,,,,,,,,,,,,,,,,,5d9eb6d611b7c400172aa975,43,2022-02-12_15h03.40.371,lexical_decision_task_DD,2021.2.3,Win32,60.02040694,m,1,0.7444,,,,,,,,0.7444,1,0,1,1,2,1,1001,ALMOND,m,,,,,,,,,,,,,,,,,,,,,,,,,,,,,,,,,,,,,,,,,,,,,,,,,,,,,,,,,,,,,,,,,,
,,,,,,,,,,,,,,,,,5d9eb6d611b7c400172aa975,43,2022-02-12_15h03.40.371,lexical_decision_task_DD,2021.2.3,Win32,60.02040694,m,1,0.9279,,,,,,,,0.9279,1,0,2,2,5,1,1001,OBTAIN,m,,,,,,,,,,,,,,,,,,,,,,,,,,,,,,,,,,,,,,,,,,,,,,,,,,,,,,,,,,,,,,,,,,
,,,,,,,,,,,,,,,,,5d9eb6d611b7c400172aa975,43,2022-02-12_15h03.40.371,lexical_decision_task_DD,2021.2.3,Win32,60.02040694,z,1,0.8493,,,,,,,,0.8493,1,0,3,3,9,1,1001,FARINY,z,,,,,,,,,,,,,,,,,,,,,,,,,,,,,,,,,,,,,,,,,,,,,,,,,,,,,,,,,,,,,,,,,,
,,,,,,,,,,,,,,,,,5d9eb6d611b7c400172aa975,43,2022-02-12_15h03.40.371,lexical_decision_task_DD,2021.2.3,Win32,60.02040694,z,1,0.9238,,,,,,,,0.9238,1,0,4,4,11,1,1001,RASHET,z,,,,,,,,,,,,,,,,,,,,,,,,,,,,,,,,,,,,,,,,,,,,,,,,,,,,,,,,,,,,,,,,,,
,,,,,,,,,,,,,,,,,5d9eb6d611b7c400172aa975,43,2022-02-12_15h03.40.371,lexical_decision_task_DD,2021.2.3,Win32,60.02040694,m,1,0.6341,,,,,,,,0.6341,1,0,5,5,4,1,1001,SQUEAK,m,,,,,,,,,,,,,,,,,,,,,,,,,,,,,,,,,,,,,,,,,,,,,,,,,,,,,,,,,,,,,,,,,,
,,,,,,,,,,,,,,,,,5d9eb6d611b7c400172aa975,43,2022-02-12_15h03.40.371,lexical_decision_task_DD,2021.2.3,Win32,60.02040694,m,1,0.901,,,,,,,,0.901,1,0,6,6,0,1,1001,UTOPIA,m,,,,,,,,,,,,,,,,,,,,,,,,,,,,,,,,,,,,,,,,,,,,,,,,,,,,,,,,,,,,,,,,,,
,,,,,,,,,,,,,,,,,5d9eb6d611b7c400172aa975,43,2022-02-12_15h03.40.371,lexical_decision_task_DD,2021.2.3,Win32,60.02040694,z,1,0.7551,,,,,,,,0.7551,1,0,7,7,8,1,1001,ASLERT,z,,,,,,,,,,,,,,,,,,,,,,,,,,,,,,,,,,,,,,,,,,,,,,,,,,,,,,,,,,,,,,,,,,
,,,,,,,,,,,,,,,,,5d9eb6d611b7c400172aa975,43,2022-02-12_15h03.40.371,lexical_decision_task_DD,2021.2.3,Win32,60.02040694,z,1,0.6392,,,,,,,,0.6392,1,0,8,8,14,1,1001,THRALE,z,,,,,,,,,,,,,,,,,,,,,,,,,,,,,,,,,,,,,,,,,,,,,,,,,,,,,,,,,,,,,,,,,,
,,,,,,,,,,,,,,,,,5d9eb6d611b7c400172aa975,43,2022-02-12_15h03.40.371,lexical_decision_task_DD,2021.2.3,Win32,60.02040694,z,1,0.7068,,,,,,,,0.7068,1,0,9,9,12,1,1001,SPRINY,z,,,,,,,,,,,,,,,,,,,,,,,,,,,,,,,,,,,,,,,,,,,,,,,,,,,,,,,,,,,,,,,,,,
,,,,,,,,,,,,,,,,,5d9eb6d611b7c400172aa975,43,2022-02-12_15h03.40.371,lexical_decision_task_DD,2021.2.3,Win32,60.02040694,m,1,0.6447,,,,,,,,0.6447,1,0,10,10,6,1,1001,ZOMBIE,m,,,,,,,,,,,,,,,,,,,,,,,,,,,,,,,,,,,,,,,,,,,,,,,,,,,,,,,,,,,,,,,,,,
,,,,,,,,,,,,,,,,,5d9eb6d611b7c400172aa975,43,2022-02-12_15h03.40.371,lexical_decision_task_DD,2021.2.3,Win32,60.02040694,m,1,0.5981,,,,,,,,0.5981,1,0,11,11,1,1,1001,ADJUST,m,,,,,,,,,,,,,,,,,,,,,,,,,,,,,,,,,,,,,,,,,,,,,,,,,,,,,,,,,,,,,,,,,,
,,,,,,,,,,,,,,,,,5d9eb6d611b7c400172aa975,43,2022-02-12_15h03.40.371,lexical_decision_task_DD,2021.2.3,Win32,60.02040694,z,1,0.736,,,,,,,,0.736,1,0,12,12,10,1,1001,INLADE,z,,,,,,,,,,,,,,,,,,,,,,,,,,,,,,,,,,,,,,,,,,,,,,,,,,,,,,,,,,,,,,,,,,
,,,,,,,,,,,,,,,,,5d9eb6d611b7c400172aa975,43,2022-02-12_15h03.40.371,lexical_decision_task_DD,2021.2.3,Win32,60.02040694,m,1,0.5684,,,,,,,,0.5684,1,0,13,13,7,1,1001,VOLUME,m,,,,,,,,,,,,,,,,,,,,,,,,,,,,,,,,,,,,,,,,,,,,,,,,,,,,,,,,,,,,,,,,,,
,,,,,,,,,,,,,,,,,5d9eb6d611b7c400172aa975,43,2022-02-12_15h03.40.371,lexical_decision_task_DD,2021.2.3,Win32,60.02040694,z,1,0.715,,,,,,,,0.715,1,0,14,14,13,1,1001,ROUPET,z,,,,,,,,,,,,,,,,,,,,,,,,,,,,,,,,,,,,,,,,,,,,,,,,,,,,,,,,,,,,,,,,,,
,,,,,,,,,,,,,,,,,5d9eb6d611b7c400172aa975,43,2022-02-12_15h03.40.371,lexical_decision_task_DD,2021.2.3,Win32,60.02040694,m,1,0.7142,,,,,,,,0.7142,1,0,15,15,3,1,1001,MATRIX,m,,,,,,,,,,,,,,,,,,,,,,,,,,,,,,,,,,,,,,,,,,,,,,,,,,,,,,,,,,,,,,,,,,
space,280.6237,0.188888905,-0.20925927,0,0,0,,,,,,1,end_of_practice,"You have completed the practice trials. During the experimental trials, you will not receive feedback. 
Before you begin, please ensure that you are in a comfortable and quiet location and will not be disturbed for about 15 minutes, as we cannot use your data if you do not complete all the trials. 
 When you are ready to start the experimental trials, please press space or touch the button below.",,,5d9eb6d611b7c400172aa975,43,2022-02-12_15h03.40.371,lexical_decision_task_DD,2021.2.3,Win32,60.02040694,,,,,,,,,,,,,,,,,,,,,0,0,0,0,1,,,,,,,,,,,,,,,,,,,,,,,,,,,,,,,,,,,,,,,,,,,,,,,,,,,,,,,,,,,,,
,,,,,,,,,,,,,,,,,5d9eb6d611b7c400172aa975,43,2022-02-12_15h03.40.371,lexical_decision_task_DD,2021.2.3,Win32,60.02040694,,,,,,,,,,,1.8193,1,,,,,,,,,,,,,,z,1,1.8193,,,,,,,,0.188888905,-0.20925927,0,0,0,,0,0,0,102,1,DULLE,C,old,z,./images/DULLE.png,,,,,,,,,,,,,,,,,,,,,,,,,,,,,,,,,,,
,,,,,,,,,,,,,,,,,5d9eb6d611b7c400172aa975,43,2022-02-12_15h03.40.371,lexical_decision_task_DD,2021.2.3,Win32,60.02040694,,,,,,,,,,,1.9139,0,,,,,,,,,,,,,,z,0,1.9139,,,,,,,,0.188888905,-0.20925927,0,0,0,,0,1,1,69,1,COOKER,C,old,m,./images/COOKER.png,,,,,,,,,,,,,,,,,,,,,,,,,,,,,,,,,,,
,,,,,,,,,,,,,,,,,5d9eb6d611b7c400172aa975,43,2022-02-12_15h03.40.371,lexical_decision_task_DD,2021.2.3,Win32,60.02040694,,,,,,,,,,,1.6272,1,,,,,,,,,,,,,,m,1,1.6272,,,,,,,,0.188888905,-0.20925927,0,0,0,,0,2,2,46,1,PEARL,HB,old,m,./images/PEARLHB.png,,,,,,,,,,,,,,,,,,,,,,,,,,,,,,,,,,,
,,,,,,,,,,,,,,,,,5d9eb6d611b7c400172aa975,43,2022-02-12_15h03.40.371,lexical_decision_task_DD,2021.2.3,Win32,60.02040694,,,,,,,,,,,0.634,1,,,,,,,,,,,,,,m,1,0.634,,,,,,,,0.188888905,-0.20925927,0,0,0,,0,3,3,45,1,KITTEN,C,old,m,./images/KITTEN.png,,,,,,,,,,,,,,,,,,,,,,,,,,,,,,,,,,,
,,,,,,,,,,,,,,,,,5d9eb6d611b7c400172aa975,43,2022-02-12_15h03.40.371,lexical_decision_task_DD,2021.2.3,Win32,60.02040694,,,,,,,,,,,1.5651,1,,,,,,,,,,,,,,z,1,1.5651,,,,,,,,0.188888905,-0.20925927,0,0,0,,0,4,4,148,1,JOMS,HB,old,z,./images/JOMSHB.png,,,,,,,,,,,,,,,,,,,,,,,,,,,,,,,,,,,
,,,,,,,,,,,,,,,,,5d9eb6d611b7c400172aa975,43,2022-02-12_15h03.40.371,lexical_decision_task_DD,2021.2.3,Win32,60.02040694,,,,,,,,,,,0.732,1,,,,,,,,,,,,,,z,1,0.732,,,,,,,,0.188888905,-0.20925927,0,0,0,,0,5,5,96,1,KEAMS,C,old,z,./images/KEAMS.png,,,,,,,,,,,,,,,,,,,,,,,,,,,,,,,,,,,
,,,,,,,,,,,,,,,,,5d9eb6d611b7c400172aa975,43,2022-02-12_15h03.40.371,lexical_decision_task_DD,2021.2.3,Win32,60.02040694,,,,,,,,,,,1.0125,1,,,,,,,,,,,,,,z,1,1.0125,,,,,,,,0.188888905,-0.20925927,0,0,0,,0,6,6,104,1,GITTY,LB,old,z,./images/GITTYLB.png,,,,,,,,,,,,,,,,,,,,,,,,,,,,,,,,,,,
,,,,,,,,,,,,,,,,,5d9eb6d611b7c400172aa975,43,2022-02-12_15h03.40.371,lexical_decision_task_DD,2021.2.3,Win32,60.02040694,,,,,,,,,,,0.8344,1,,,,,,,,,,,,,,z,1,0.8344,,,,,,,,0.188888905,-0.20925927,0,0,0,,0,7,7,99,1,BACKY,C,old,z,./images/BACKY.png,,,,,,,,,,,,,,,,,,,,,,,,,,,,,,,,,,,
,,,,,,,,,,,,,,,,,5d9eb6d611b7c400172aa975,43,2022-02-12_15h03.40.371,lexical_decision_task_DD,2021.2.3,Win32,60.02040694,,,,,,,,,,,0.5735,1,,,,,,,,,,,,,,m,1,0.5735,,,,,,,,0.188888905,-0.20925927,0,0,0,,0,8,8,78,1,LITTER,C,old,m,./images/LITTER.png,,,,,,,,,,,,,,,,,,,,,,,,,,,,,,,,,,,
,,,,,,,,,,,,,,,,,5d9eb6d611b7c400172aa975,43,2022-02-12_15h03.40.371,lexical_decision_task_DD,2021.2.3,Win32,60.02040694,,,,,,,,,,,1.3025,1,,,,,,,,,,,,,,m,1,1.3025,,,,,,,,0.188888905,-0.20925927,0,0,0,,0,9,9,34,1,CANYON,HB,old,m,./images/CANYONHB.png,,,,,,,,,,,,,,,,,,,,,,,,,,,,,,,,,,,
,,,,,,,,,,,,,,,,,5d9eb6d611b7c400172aa975,43,2022-02-12_15h03.40.371,lexical_decision_task_DD,2021.2.3,Win32,60.02040694,,,,,,,,,,,0.7848,1,,,,,,,,,,,,,,z,1,0.7848,,,,,,,,0.188888905,-0.20925927,0,0,0,,0,10,10,153,1,CLUPS,C,old,z,./images/CLUPS.png,,,,,,,,,,,,,,,,,,,,,,,,,,,,,,,,,,,
,,,,,,,,,,,,,,,,,5d9eb6d611b7c400172aa975,43,2022-02-12_15h03.40.371,lexical_decision_task_DD,2021.2.3,Win32,60.02040694,,,,,,,,,,,0.7108,1,,,,,,,,,,,,,,m,1,0.7108,,,,,,,,0.188888905,-0.20925927,0,0,0,,0,11,11,57,1,MOOSE,C,old,m,./images/MOOSE.png,,,,,,,,,,,,,,,,,,,,,,,,,,,,,,,,,,,
,,,,,,,,,,,,,,,,,5d9eb6d611b7c400172aa975,43,2022-02-12_15h03.40.371,lexical_decision_task_DD,2021.2.3,Win32,60.02040694,,,,,,,,,,,1.8121,1,,,,,,,,,,,,,,m,1,1.8121,,,,,,,,0.188888905,-0.20925927,0,0,0,,0,12,12,22,1,MELON,HB,old,m,./images/MELONHB.png,,,,,,,,,,,,,,,,,,,,,,,,,,,,,,,,,,,
,,,,,,,,,,,,,,,,,5d9eb6d611b7c400172aa975,43,2022-02-12_15h03.40.371,lexical_decision_task_DD,2021.2.3,Win32,60.02040694,,,,,,,,,,,0.6321,1,,,,,,,,,,,,,,m,1,0.6321,,,,,,,,0.188888905,-0.20925927,0,0,0,,0,13,13,77,1,COUCH,LB,old,m,./images/COUCHLB.png,,,,,,,,,,,,,,,,,,,,,,,,,,,,,,,,,,,
,,,,,,,,,,,,,,,,,5d9eb6d611b7c400172aa975,43,2022-02-12_15h03.40.371,lexical_decision_task_DD,2021.2.3,Win32,60.02040694,,,,,,,,,,,0.6264,1,,,,,,,,,,,,,,m,1,0.6264,,,,,,,,0.188888905,-0.20925927,0,0,0,,0,14,14,68,1,TORCH,LB,old,m,./images/TORCHLB.png,,,,,,,,,,,,,,,,,,,,,,,,,,,,,,,,,,,
,,,,,,,,,,,,,,,,,5d9eb6d611b7c400172aa975,43,2022-02-12_15h03.40.371,lexical_decision_task_DD,2021.2.3,Win32,60.02040694,,,,,,,,,,,0.9034,1,,,,,,,,,,,,,,z,1,0.9034,,,,,,,,0.188888905,-0.20925927,0,0,0,,0,15,15,116,1,BALGY,LB,old,z,./images/BALGYLB.png,,,,,,,,,,,,,,,,,,,,,,,,,,,,,,,,,,,
,,,,,,,,,,,,,,,,,5d9eb6d611b7c400172aa975,43,2022-02-12_15h03.40.371,lexical_decision_task_DD,2021.2.3,Win32,60.02040694,,,,,,,,,,,0.6655,1,,,,,,,,,,,,,,z,1,0.6655,,,,,,,,0.188888905,-0.20925927,0,0,0,,0,16,16,117,1,STEEG,C,old,z,./images/STEEG.png,,,,,,,,,,,,,,,,,,,,,,,,,,,,,,,,,,,
,,,,,,,,,,,,,,,,,5d9eb6d611b7c400172aa975,43,2022-02-12_15h03.40.371,lexical_decision_task_DD,2021.2.3,Win32,60.02040694,,,,,,,,,,,1.4186,1,,,,,,,,,,,,,,z,1,1.4186,,,,,,,,0.188888905,-0.20925927,0,0,0,,0,17,17,112,1,MYING,HB,old,z,./images/MYINGHB.png,,,,,,,,,,,,,,,,,,,,,,,,,,,,,,,,,,,
,,,,,,,,,,,,,,,,,5d9eb6d611b7c400172aa975,43,2022-02-12_15h03.40.371,lexical_decision_task_DD,2021.2.3,Win32,60.02040694,,,,,,,,,,,0.8173,1,,,,,,,,,,,,,,z,1,0.8173,,,,,,,,0.188888905,-0.20925927,0,0,0,,0,18,18,119,1,PAFER,LB,old,z,./images/PAFERLB.png,,,,,,,,,,,,,,,,,,,,,,,,,,,,,,,,,,,
,,,,,,,,,,,,,,,,,5d9eb6d611b7c400172aa975,43,2022-02-12_15h03.40.371,lexical_decision_task_DD,2021.2.3,Win32,60.02040694,,,,,,,,,,,1.6109,1,,,,,,,,,,,,,,m,1,1.6109,,,,,,,,0.188888905,-0.20925927,0,0,0,,0,19,19,7,1,PAINT,HB,old,m,./images/PAINTHB.png,,,,,,,,,,,,,,,,,,,,,,,,,,,,,,,,,,,
,,,,,,,,,,,,,,,,,5d9eb6d611b7c400172aa975,43,2022-02-12_15h03.40.371,lexical_decision_task_DD,2021.2.3,Win32,60.02040694,,,,,,,,,,,2.6342,1,,,,,,,,,,,,,,z,1,2.6342,,,,,,,,0.188888905,-0.20925927,0,0,0,,0,20,20,166,1,SHORY,HB,old,z,./images/SHORYHB.png,,,,,,,,,,,,,,,,,,,,,,,,,,,,,,,,,,,
,,,,,,,,,,,,,,,,,5d9eb6d611b7c400172aa975,43,2022-02-12_15h03.40.371,lexical_decision_task_DD,2021.2.3,Win32,60.02040694,,,,,,,,,,,0.6988,1,,,,,,,,,,,,,,z,1,0.6988,,,,,,,,0.188888905,-0.20925927,0,0,0,,0,21,21,92,1,PAIMS,LB,old,z,./images/PAIMSLB.png,,,,,,,,,,,,,,,,,,,,,,,,,,,,,,,,,,,
,,,,,,,,,,,,,,,,,5d9eb6d611b7c400172aa975,43,2022-02-12_15h03.40.371,lexical_decision_task_DD,2021.2.3,Win32,60.02040694,,,,,,,,,,,1.7841,1,,,,,,,,,,,,,,z,1,1.7841,,,,,,,,0.188888905,-0.20925927,0,0,0,,0,22,22,133,1,POWDY,HB,old,z,./images/POWDYHB.png,,,,,,,,,,,,,,,,,,,,,,,,,,,,,,,,,,,
,,,,,,,,,,,,,,,,,5d9eb6d611b7c400172aa975,43,2022-02-12_15h03.40.371,lexical_decision_task_DD,2021.2.3,Win32,60.02040694,,,,,,,,,,,1.5261,1,,,,,,,,,,,,,,z,1,1.5261,,,,,,,,0.188888905,-0.20925927,0,0,0,,0,23,23,136,1,WERVE,HB,old,z,./images/WERVEHB.png,,,,,,,,,,,,,,,,,,,,,,,,,,,,,,,,,,,
,,,,,,,,,,,,,,,,,5d9eb6d611b7c400172aa975,43,2022-02-12_15h03.40.371,lexical_decision_task_DD,2021.2.3,Win32,60.02040694,,,,,,,,,,,0.7158,1,,,,,,,,,,,,,,m,1,0.7158,,,,,,,,0.188888905,-0.20925927,0,0,0,,0,24,24,75,1,GRAIN,C,old,m,./images/GRAIN.png,,,,,,,,,,,,,,,,,,,,,,,,,,,,,,,,,,,
,,,,,,,,,,,,,,,,,5d9eb6d611b7c400172aa975,43,2022-02-12_15h03.40.371,lexical_decision_task_DD,2021.2.3,Win32,60.02040694,,,,,,,,,,,0.6429,1,,,,,,,,,,,,,,z,1,0.6429,,,,,,,,0.188888905,-0.20925927,0,0,0,,0,25,25,147,1,ZOLES,C,old,z,./images/ZOLES.png,,,,,,,,,,,,,,,,,,,,,,,,,,,,,,,,,,,
,,,,,,,,,,,,,,,,,5d9eb6d611b7c400172aa975,43,2022-02-12_15h03.40.371,lexical_decision_task_DD,2021.2.3,Win32,60.02040694,,,,,,,,,,,2.2991,1,,,,,,,,,,,,,,z,1,2.2991,,,,,,,,0.188888905,-0.20925927,0,0,0,,0,26,26,159,1,CUDDY,C,old,z,./images/CUDDY.png,,,,,,,,,,,,,,,,,,,,,,,,,,,,,,,,,,,
,,,,,,,,,,,,,,,,,5d9eb6d611b7c400172aa975,43,2022-02-12_15h03.40.371,lexical_decision_task_DD,2021.2.3,Win32,60.02040694,,,,,,,,,,,0.9302,1,,,,,,,,,,,,,,m,1,0.9302,,,,,,,,0.188888905,-0.20925927,0,0,0,,0,27,27,28,1,FALCON,HB,old,m,./images/FALCONHB.png,,,,,,,,,,,,,,,,,,,,,,,,,,,,,,,,,,,
,,,,,,,,,,,,,,,,,5d9eb6d611b7c400172aa975,43,2022-02-12_15h03.40.371,lexical_decision_task_DD,2021.2.3,Win32,60.02040694,,,,,,,,,,,1.2785,1,,,,,,,,,,,,,,z,1,1.2785,,,,,,,,0.188888905,-0.20925927,0,0,0,,0,28,28,114,1,RIKES,C,old,z,./images/RIKES.png,,,,,,,,,,,,,,,,,,,,,,,,,,,,,,,,,,,
,,,,,,,,,,,,,,,,,5d9eb6d611b7c400172aa975,43,2022-02-12_15h03.40.371,lexical_decision_task_DD,2021.2.3,Win32,60.02040694,,,,,,,,,,,0.5936,1,,,,,,,,,,,,,,m,1,0.5936,,,,,,,,0.188888905,-0.20925927,0,0,0,,0,29,29,26,1,SMOKER,LB,old,m,./images/SMOKERLB.png,,,,,,,,,,,,,,,,,,,,,,,,,,,,,,,,,,,
,,,,,,,,,,,,,,,,,5d9eb6d611b7c400172aa975,43,2022-02-12_15h03.40.371,lexical_decision_task_DD,2021.2.3,Win32,60.02040694,,,,,,,,,,,0.8544,1,,,,,,,,,,,,,,z,1,0.8544,,,,,,,,0.188888905,-0.20925927,0,0,0,,0,30,30,137,1,JOOST,LB,old,z,./images/JOOSTLB.png,,,,,,,,,,,,,,,,,,,,,,,,,,,,,,,,,,,
,,,,,,,,,,,,,,,,,5d9eb6d611b7c400172aa975,43,2022-02-12_15h03.40.371,lexical_decision_task_DD,2021.2.3,Win32,60.02040694,,,,,,,,,,,0.6535,1,,,,,,,,,,,,,,z,1,0.6535,,,,,,,,0.188888905,-0.20925927,0,0,0,,0,31,31,152,1,FRAIN,LB,old,z,./images/FRAINLB.png,,,,,,,,,,,,,,,,,,,,,,,,,,,,,,,,,,,
,,,,,,,,,,,,,,,,,5d9eb6d611b7c400172aa975,43,2022-02-12_15h03.40.371,lexical_decision_task_DD,2021.2.3,Win32,60.02040694,,,,,,,,,,,0.592,1,,,,,,,,,,,,,,m,1,0.592,,,,,,,,0.188888905,-0.20925927,0,0,0,,0,32,32,12,1,SHORE,C,old,m,./images/SHORE.png,,,,,,,,,,,,,,,,,,,,,,,,,,,,,,,,,,,
,,,,,,,,,,,,,,,,,5d9eb6d611b7c400172aa975,43,2022-02-12_15h03.40.371,lexical_decision_task_DD,2021.2.3,Win32,60.02040694,,,,,,,,,,,0.8342,1,,,,,,,,,,,,,,m,1,0.8342,,,,,,,,0.188888905,-0.20925927,0,0,0,,0,33,33,20,1,CRADLE,LB,old,m,./images/CRADLELB.png,,,,,,,,,,,,,,,,,,,,,,,,,,,,,,,,,,,
,,,,,,,,,,,,,,,,,5d9eb6d611b7c400172aa975,43,2022-02-12_15h03.40.371,lexical_decision_task_DD,2021.2.3,Win32,60.02040694,,,,,,,,,,,1.0133,1,,,,,,,,,,,,,,m,1,1.0133,,,,,,,,0.188888905,-0.20925927,0,0,0,,0,34,34,81,1,POODLE,C,old,m,./images/POODLE.png,,,,,,,,,,,,,,,,,,,,,,,,,,,,,,,,,,,
,,,,,,,,,,,,,,,,,5d9eb6d611b7c400172aa975,43,2022-02-12_15h03.40.371,lexical_decision_task_DD,2021.2.3,Win32,60.02040694,,,,,,,,,,,1.2184,1,,,,,,,,,,,,,,z,1,1.2184,,,,,,,,0.188888905,-0.20925927,0,0,0,,0,35,35,128,1,GRIFT,LB,old,z,./images/GRIFTLB.png,,,,,,,,,,,,,,,,,,,,,,,,,,,,,,,,,,,
,,,,,,,,,,,,,,,,,5d9eb6d611b7c400172aa975,43,2022-02-12_15h03.40.371,lexical_decision_task_DD,2021.2.3,Win32,60.02040694,,,,,,,,,,,0.6852,1,,,,,,,,,,,,,,m,1,0.6852,,,,,,,,0.188888905,-0.20925927,0,0,0,,0,36,36,29,1,CRUMB,LB,old,m,./images/CRUMBLB.png,,,,,,,,,,,,,,,,,,,,,,,,,,,,,,,,,,,
,,,,,,,,,,,,,,,,,5d9eb6d611b7c400172aa975,43,2022-02-12_15h03.40.371,lexical_decision_task_DD,2021.2.3,Win32,60.02040694,,,,,,,,,,,1.2348,1,,,,,,,,,,,,,,z,1,1.2348,,,,,,,,0.188888905,-0.20925927,0,0,0,,0,37,37,160,1,VEETS,HB,old,z,./images/VEETSHB.png,,,,,,,,,,,,,,,,,,,,,,,,,,,,,,,,,,,
,,,,,,,,,,,,,,,,,5d9eb6d611b7c400172aa975,43,2022-02-12_15h03.40.371,lexical_decision_task_DD,2021.2.3,Win32,60.02040694,,,,,,,,,,,2.4405,1,,,,,,,,,,,,,,z,1,2.4405,,,,,,,,0.188888905,-0.20925927,0,0,0,,0,38,38,100,1,DRIBS,HB,old,z,./images/DRIBSHB.png,,,,,,,,,,,,,,,,,,,,,,,,,,,,,,,,,,,
,,,,,,,,,,,,,,,,,5d9eb6d611b7c400172aa975,43,2022-02-12_15h03.40.371,lexical_decision_task_DD,2021.2.3,Win32,60.02040694,,,,,,,,,,,1.1553,1,,,,,,,,,,,,,,z,1,1.1553,,,,,,,,0.188888905,-0.20925927,0,0,0,,0,39,39,124,1,TUNCH,HB,old,z,./images/TUNCHHB.png,,,,,,,,,,,,,,,,,,,,,,,,,,,,,,,,,,,
,,,,,,,,,,,,,,,,,5d9eb6d611b7c400172aa975,43,2022-02-12_15h03.40.371,lexical_decision_task_DD,2021.2.3,Win32,60.02040694,,,,,,,,,,,0.6942,1,,,,,,,,,,,,,,m,1,0.6942,,,,,,,,0.188888905,-0.20925927,0,0,0,,0,40,40,80,1,WEASEL,LB,old,m,./images/WEASELLB.png,,,,,,,,,,,,,,,,,,,,,,,,,,,,,,,,,,,
,,,,,,,,,,,,,,,,,5d9eb6d611b7c400172aa975,43,2022-02-12_15h03.40.371,lexical_decision_task_DD,2021.2.3,Win32,60.02040694,,,,,,,,,,,0.8141,1,,,,,,,,,,,,,,m,1,0.8141,,,,,,,,0.188888905,-0.20925927,0,0,0,space,0,41,41,42,1,FOLDER,C,old,m,./images/FOLDER.png,9.1405,,,,,,,,,,,,,,,,,,,,,,,,,,,,,,,,,,
,,,,,,,,,,,,,,,,,5d9eb6d611b7c400172aa975,43,2022-02-12_15h03.40.371,lexical_decision_task_DD,2021.2.3,Win32,60.02040694,,,,,,,,,,,1.2863,1,,,,,,,,,,,,,,z,1,1.2863,,,,,,,,0.188888905,-0.20925927,0,0,0,,0,42,42,154,1,THINT,HB,old,z,./images/THINTHB.png,,,,,,,,,,,,,,,,,,,,,,,,,,,,,,,,,,,
,,,,,,,,,,,,,,,,,5d9eb6d611b7c400172aa975,43,2022-02-12_15h03.40.371,lexical_decision_task_DD,2021.2.3,Win32,60.02040694,,,,,,,,,,,1.5174,1,,,,,,,,,,,,,,m,1,1.5174,,,,,,,,0.188888905,-0.20925927,0,0,0,,0,43,43,10,1,BELLY,HB,old,m,./images/BELLYHB.png,,,,,,,,,,,,,,,,,,,,,,,,,,,,,,,,,,,
,,,,,,,,,,,,,,,,,5d9eb6d611b7c400172aa975,43,2022-02-12_15h03.40.371,lexical_decision_task_DD,2021.2.3,Win32,60.02040694,,,,,,,,,,,1.7305,1,,,,,,,,,,,,,,z,1,1.7305,,,,,,,,0.188888905,-0.20925927,0,0,0,,0,44,44,145,1,LAMEL,HB,old,z,./images/LAMELHB.png,,,,,,,,,,,,,,,,,,,,,,,,,,,,,,,,,,,
,,,,,,,,,,,,,,,,,5d9eb6d611b7c400172aa975,43,2022-02-12_15h03.40.371,lexical_decision_task_DD,2021.2.3,Win32,60.02040694,,,,,,,,,,,0.5429,1,,,,,,,,,,,,,,m,1,0.5429,,,,,,,,0.188888905,-0.20925927,0,0,0,,0,45,45,39,1,SHELF,C,old,m,./images/SHELF.png,,,,,,,,,,,,,,,,,,,,,,,,,,,,,,,,,,,
,,,,,,,,,,,,,,,,,5d9eb6d611b7c400172aa975,43,2022-02-12_15h03.40.371,lexical_decision_task_DD,2021.2.3,Win32,60.02040694,,,,,,,,,,,1.2367,1,,,,,,,,,,,,,,m,1,1.2367,,,,,,,,0.188888905,-0.20925927,0,0,0,,0,46,46,58,1,BABOON,HB,old,m,./images/BABOONHB.png,,,,,,,,,,,,,,,,,,,,,,,,,,,,,,,,,,,
,,,,,,,,,,,,,,,,,5d9eb6d611b7c400172aa975,43,2022-02-12_15h03.40.371,lexical_decision_task_DD,2021.2.3,Win32,60.02040694,,,,,,,,,,,0.7026,1,,,,,,,,,,,,,,z,1,0.7026,,,,,,,,0.188888905,-0.20925927,0,0,0,,0,47,47,87,1,TRING,C,old,z,./images/TRING.png,,,,,,,,,,,,,,,,,,,,,,,,,,,,,,,,,,,
,,,,,,,,,,,,,,,,,5d9eb6d611b7c400172aa975,43,2022-02-12_15h03.40.371,lexical_decision_task_DD,2021.2.3,Win32,60.02040694,,,,,,,,,,,1.6293,1,,,,,,,,,,,,,,z,1,1.6293,,,,,,,,0.188888905,-0.20925927,0,0,0,,0,48,48,115,1,MAWNS,HB,old,z,./images/MAWNSHB.png,,,,,,,,,,,,,,,,,,,,,,,,,,,,,,,,,,,
,,,,,,,,,,,,,,,,,5d9eb6d611b7c400172aa975,43,2022-02-12_15h03.40.371,lexical_decision_task_DD,2021.2.3,Win32,60.02040694,,,,,,,,,,,0.9345,1,,,,,,,,,,,,,,z,1,0.9345,,,,,,,,0.188888905,-0.20925927,0,0,0,,0,49,49,101,1,GLEET,LB,old,z,./images/GLEETLB.png,,,,,,,,,,,,,,,,,,,,,,,,,,,,,,,,,,,
,,,,,,,,,,,,,,,,,5d9eb6d611b7c400172aa975,43,2022-02-12_15h03.40.371,lexical_decision_task_DD,2021.2.3,Win32,60.02040694,,,,,,,,,,,1.1239,1,,,,,,,,,,,,,,m,1,1.1239,,,,,,,,0.188888905,-0.20925927,0,0,0,,0,50,50,17,1,SKIING,LB,old,m,./images/SKIINGLB.png,,,,,,,,,,,,,,,,,,,,,,,,,,,,,,,,,,,
,,,,,,,,,,,,,,,,,5d9eb6d611b7c400172aa975,43,2022-02-12_15h03.40.371,lexical_decision_task_DD,2021.2.3,Win32,60.02040694,,,,,,,,,,,1.0455,1,,,,,,,,,,,,,,z,1,1.0455,,,,,,,,0.188888905,-0.20925927,0,0,0,,0,51,51,126,1,GUELS,C,old,z,./images/GUELS.png,,,,,,,,,,,,,,,,,,,,,,,,,,,,,,,,,,,
,,,,,,,,,,,,,,,,,5d9eb6d611b7c400172aa975,43,2022-02-12_15h03.40.371,lexical_decision_task_DD,2021.2.3,Win32,60.02040694,,,,,,,,,,,1.7598,1,,,,,,,,,,,,,,z,1,1.7598,,,,,,,,0.188888905,-0.20925927,0,0,0,,0,52,52,85,1,CHULK,HB,old,z,./images/CHULKHB.png,,,,,,,,,,,,,,,,,,,,,,,,,,,,,,,,,,,
,,,,,,,,,,,,,,,,,5d9eb6d611b7c400172aa975,43,2022-02-12_15h03.40.371,lexical_decision_task_DD,2021.2.3,Win32,60.02040694,,,,,,,,,,,0.7282,1,,,,,,,,,,,,,,m,1,0.7282,,,,,,,,0.188888905,-0.20925927,0,0,0,,0,53,53,65,1,FARMER,LB,old,m,./images/FARMERLB.png,,,,,,,,,,,,,,,,,,,,,,,,,,,,,,,,,,,
,,,,,,,,,,,,,,,,,5d9eb6d611b7c400172aa975,43,2022-02-12_15h03.40.371,lexical_decision_task_DD,2021.2.3,Win32,60.02040694,,,,,,,,,,,0.6979,1,,,,,,,,,,,,,,m,1,0.6979,,,,,,,,0.188888905,-0.20925927,0,0,0,,0,54,54,21,1,KIDNEY,C,old,m,./images/KIDNEY.png,,,,,,,,,,,,,,,,,,,,,,,,,,,,,,,,,,,
,,,,,,,,,,,,,,,,,5d9eb6d611b7c400172aa975,43,2022-02-12_15h03.40.371,lexical_decision_task_DD,2021.2.3,Win32,60.02040694,,,,,,,,,,,1.566,1,,,,,,,,,,,,,,m,1,1.566,,,,,,,,0.188888905,-0.20925927,0,0,0,,0,55,55,4,1,MUSCLE,HB,old,m,./images/MUSCLEHB.png,,,,,,,,,,,,,,,,,,,,,,,,,,,,,,,,,,,
,,,,,,,,,,,,,,,,,5d9eb6d611b7c400172aa975,43,2022-02-12_15h03.40.371,lexical_decision_task_DD,2021.2.3,Win32,60.02040694,,,,,,,,,,,0.8917,1,,,,,,,,,,,,,,m,1,0.8917,,,,,,,,0.188888905,-0.20925927,0,0,0,,0,56,56,83,1,JUNGLE,LB,old,m,./images/JUNGLELB.png,,,,,,,,,,,,,,,,,,,,,,,,,,,,,,,,,,,
,,,,,,,,,,,,,,,,,5d9eb6d611b7c400172aa975,43,2022-02-12_15h03.40.371,lexical_decision_task_DD,2021.2.3,Win32,60.02040694,,,,,,,,,,,0.9789,1,,,,,,,,,,,,,,m,1,0.9789,,,,,,,,0.188888905,-0.20925927,0,0,0,,0,57,57,82,1,SUNSET,HB,old,m,./images/SUNSETHB.png,,,,,,,,,,,,,,,,,,,,,,,,,,,,,,,,,,,
,,,,,,,,,,,,,,,,,5d9eb6d611b7c400172aa975,43,2022-02-12_15h03.40.371,lexical_decision_task_DD,2021.2.3,Win32,60.02040694,,,,,,,,,,,0.9511,1,,,,,,,,,,,,,,m,1,0.9511,,,,,,,,0.188888905,-0.20925927,0,0,0,,0,58,58,79,1,CRUST,HB,old,m,./images/CRUSTHB.png,,,,,,,,,,,,,,,,,,,,,,,,,,,,,,,,,,,
,,,,,,,,,,,,,,,,,5d9eb6d611b7c400172aa975,43,2022-02-12_15h03.40.371,lexical_decision_task_DD,2021.2.3,Win32,60.02040694,,,,,,,,,,,2.1477,0,,,,,,,,,,,,,,z,0,2.1477,,,,,,,,0.188888905,-0.20925927,0,0,0,,0,59,59,16,1,PENCE,HB,old,m,./images/PENCEHB.png,,,,,,,,,,,,,,,,,,,,,,,,,,,,,,,,,,,
,,,,,,,,,,,,,,,,,5d9eb6d611b7c400172aa975,43,2022-02-12_15h03.40.371,lexical_decision_task_DD,2021.2.3,Win32,60.02040694,,,,,,,,,,,2.0266,1,,,,,,,,,,,,,,z,1,2.0266,,,,,,,,0.188888905,-0.20925927,0,0,0,,0,60,60,151,1,TINKY,HB,old,z,./images/TINKYHB.png,,,,,,,,,,,,,,,,,,,,,,,,,,,,,,,,,,,
,,,,,,,,,,,,,,,,,5d9eb6d611b7c400172aa975,43,2022-02-12_15h03.40.371,lexical_decision_task_DD,2021.2.3,Win32,60.02040694,,,,,,,,,,,0.6678,1,,,,,,,,,,,,,,m,1,0.6678,,,,,,,,0.188888905,-0.20925927,0,0,0,,0,61,61,71,1,PIMPLE,LB,old,m,./images/PIMPLELB.png,,,,,,,,,,,,,,,,,,,,,,,,,,,,,,,,,,,
,,,,,,,,,,,,,,,,,5d9eb6d611b7c400172aa975,43,2022-02-12_15h03.40.371,lexical_decision_task_DD,2021.2.3,Win32,60.02040694,,,,,,,,,,,0.6872,1,,,,,,,,,,,,,,z,1,0.6872,,,,,,,,0.188888905,-0.20925927,0,0,0,,0,62,62,135,1,JOODY,C,old,z,./images/JOODY.png,,,,,,,,,,,,,,,,,,,,,,,,,,,,,,,,,,,
,,,,,,,,,,,,,,,,,5d9eb6d611b7c400172aa975,43,2022-02-12_15h03.40.371,lexical_decision_task_DD,2021.2.3,Win32,60.02040694,,,,,,,,,,,1.0666,1,,,,,,,,,,,,,,m,1,1.0666,,,,,,,,0.188888905,-0.20925927,0,0,0,,0,63,63,1,1,PLANK,HB,old,m,./images/PLANKHB.png,,,,,,,,,,,,,,,,,,,,,,,,,,,,,,,,,,,
,,,,,,,,,,,,,,,,,5d9eb6d611b7c400172aa975,43,2022-02-12_15h03.40.371,lexical_decision_task_DD,2021.2.3,Win32,60.02040694,,,,,,,,,,,0.7212,1,,,,,,,,,,,,,,z,1,0.7212,,,,,,,,0.188888905,-0.20925927,0,0,0,,0,64,64,111,1,HOSSE,C,old,z,./images/HOSSE.png,,,,,,,,,,,,,,,,,,,,,,,,,,,,,,,,,,,
,,,,,,,,,,,,,,,,,5d9eb6d611b7c400172aa975,43,2022-02-12_15h03.40.371,lexical_decision_task_DD,2021.2.3,Win32,60.02040694,,,,,,,,,,,0.922,1,,,,,,,,,,,,,,m,1,0.922,,,,,,,,0.188888905,-0.20925927,0,0,0,,0,65,65,25,1,WRIST,HB,old,m,./images/WRISTHB.png,,,,,,,,,,,,,,,,,,,,,,,,,,,,,,,,,,,
,,,,,,,,,,,,,,,,,5d9eb6d611b7c400172aa975,43,2022-02-12_15h03.40.371,lexical_decision_task_DD,2021.2.3,Win32,60.02040694,,,,,,,,,,,0.6234,1,,,,,,,,,,,,,,z,1,0.6234,,,,,,,,0.188888905,-0.20925927,0,0,0,,0,66,66,132,1,SCIFF,C,old,z,./images/SCIFF.png,,,,,,,,,,,,,,,,,,,,,,,,,,,,,,,,,,,
,,,,,,,,,,,,,,,,,5d9eb6d611b7c400172aa975,43,2022-02-12_15h03.40.371,lexical_decision_task_DD,2021.2.3,Win32,60.02040694,,,,,,,,,,,0.7371,1,,,,,,,,,,,,,,m,1,0.7371,,,,,,,,0.188888905,-0.20925927,0,0,0,,0,67,67,56,1,PACKET,LB,old,m,./images/PACKETLB.png,,,,,,,,,,,,,,,,,,,,,,,,,,,,,,,,,,,
,,,,,,,,,,,,,,,,,5d9eb6d611b7c400172aa975,43,2022-02-12_15h03.40.371,lexical_decision_task_DD,2021.2.3,Win32,60.02040694,,,,,,,,,,,0.614,1,,,,,,,,,,,,,,m,1,0.614,,,,,,,,0.188888905,-0.20925927,0,0,0,,0,68,68,62,1,PURSE,LB,old,m,./images/PURSELB.png,,,,,,,,,,,,,,,,,,,,,,,,,,,,,,,,,,,
,,,,,,,,,,,,,,,,,5d9eb6d611b7c400172aa975,43,2022-02-12_15h03.40.371,lexical_decision_task_DD,2021.2.3,Win32,60.02040694,,,,,,,,,,,1.5649,1,,,,,,,,,,,,,,z,1,1.5649,,,,,,,,0.188888905,-0.20925927,0,0,0,,0,69,69,94,1,BLANS,HB,old,z,./images/BLANSHB.png,,,,,,,,,,,,,,,,,,,,,,,,,,,,,,,,,,,
,,,,,,,,,,,,,,,,,5d9eb6d611b7c400172aa975,43,2022-02-12_15h03.40.371,lexical_decision_task_DD,2021.2.3,Win32,60.02040694,,,,,,,,,,,0.6363,1,,,,,,,,,,,,,,m,1,0.6363,,,,,,,,0.188888905,-0.20925927,0,0,0,,0,70,70,27,1,ATTIC,C,old,m,./images/ATTIC.png,,,,,,,,,,,,,,,,,,,,,,,,,,,,,,,,,,,
,,,,,,,,,,,,,,,,,5d9eb6d611b7c400172aa975,43,2022-02-12_15h03.40.371,lexical_decision_task_DD,2021.2.3,Win32,60.02040694,,,,,,,,,,,2.2033,1,,,,,,,,,,,,,,z,1,2.2033,,,,,,,,0.188888905,-0.20925927,0,0,0,,0,71,71,130,1,CRILL,HB,old,z,./images/CRILLHB.png,,,,,,,,,,,,,,,,,,,,,,,,,,,,,,,,,,,
,,,,,,,,,,,,,,,,,5d9eb6d611b7c400172aa975,43,2022-02-12_15h03.40.371,lexical_decision_task_DD,2021.2.3,Win32,60.02040694,,,,,,,,,,,0.9861,1,,,,,,,,,,,,,,m,1,0.9861,,,,,,,,0.188888905,-0.20925927,0,0,0,,0,72,72,55,1,MUFFIN,HB,old,m,./images/MUFFINHB.png,,,,,,,,,,,,,,,,,,,,,,,,,,,,,,,,,,,
,,,,,,,,,,,,,,,,,5d9eb6d611b7c400172aa975,43,2022-02-12_15h03.40.371,lexical_decision_task_DD,2021.2.3,Win32,60.02040694,,,,,,,,,,,0.7868,1,,,,,,,,,,,,,,z,1,0.7868,,,,,,,,0.188888905,-0.20925927,0,0,0,,0,73,73,86,1,AIFED,LB,old,z,./images/AIFEDLB.png,,,,,,,,,,,,,,,,,,,,,,,,,,,,,,,,,,,
,,,,,,,,,,,,,,,,,5d9eb6d611b7c400172aa975,43,2022-02-12_15h03.40.371,lexical_decision_task_DD,2021.2.3,Win32,60.02040694,,,,,,,,,,,0.9206,1,,,,,,,,,,,,,,m,1,0.9206,,,,,,,,0.188888905,-0.20925927,0,0,0,,0,74,74,73,1,SNACK,HB,old,m,./images/SNACKHB.png,,,,,,,,,,,,,,,,,,,,,,,,,,,,,,,,,,,
,,,,,,,,,,,,,,,,,5d9eb6d611b7c400172aa975,43,2022-02-12_15h03.40.371,lexical_decision_task_DD,2021.2.3,Win32,60.02040694,,,,,,,,,,,0.6975,1,,,,,,,,,,,,,,m,1,0.6975,,,,,,,,0.188888905,-0.20925927,0,0,0,,0,75,75,11,1,BONNET,LB,old,m,./images/BONNETLB.png,,,,,,,,,,,,,,,,,,,,,,,,,,,,,,,,,,,
,,,,,,,,,,,,,,,,,5d9eb6d611b7c400172aa975,43,2022-02-12_15h03.40.371,lexical_decision_task_DD,2021.2.3,Win32,60.02040694,,,,,,,,,,,0.7465,1,,,,,,,,,,,,,,z,1,0.7465,,,,,,,,0.188888905,-0.20925927,0,0,0,,0,76,76,122,1,BLOOT,LB,old,z,./images/BLOOTLB.png,,,,,,,,,,,,,,,,,,,,,,,,,,,,,,,,,,,
,,,,,,,,,,,,,,,,,5d9eb6d611b7c400172aa975,43,2022-02-12_15h03.40.371,lexical_decision_task_DD,2021.2.3,Win32,60.02040694,,,,,,,,,,,1.3485,1,,,,,,,,,,,,,,z,1,1.3485,,,,,,,,0.188888905,-0.20925927,0,0,0,,0,77,77,139,1,BLEAR,HB,old,z,./images/BLEARHB.png,,,,,,,,,,,,,,,,,,,,,,,,,,,,,,,,,,,
,,,,,,,,,,,,,,,,,5d9eb6d611b7c400172aa975,43,2022-02-12_15h03.40.371,lexical_decision_task_DD,2021.2.3,Win32,60.02040694,,,,,,,,,,,0.6764,1,,,,,,,,,,,,,,z,1,0.6764,,,,,,,,0.188888905,-0.20925927,0,0,0,,0,78,78,144,1,NAIRY,C,old,z,./images/NAIRY.png,,,,,,,,,,,,,,,,,,,,,,,,,,,,,,,,,,,
,,,,,,,,,,,,,,,,,5d9eb6d611b7c400172aa975,43,2022-02-12_15h03.40.371,lexical_decision_task_DD,2021.2.3,Win32,60.02040694,,,,,,,,,,,0.5305,1,,,,,,,,,,,,,,m,1,0.5305,,,,,,,,0.188888905,-0.20925927,0,0,0,,0,79,79,60,1,TWINS,C,old,m,./images/TWINS.png,,,,,,,,,,,,,,,,,,,,,,,,,,,,,,,,,,,
,,,,,,,,,,,,,,,,,5d9eb6d611b7c400172aa975,43,2022-02-12_15h03.40.371,lexical_decision_task_DD,2021.2.3,Win32,60.02040694,,,,,,,,,,,0.7337,1,,,,,,,,,,,,,,m,1,0.7337,,,,,,,,0.188888905,-0.20925927,0,0,0,,0,80,80,53,1,CARPET,LB,old,m,./images/CARPETLB.png,,,,,,,,,,,,,,,,,,,,,,,,,,,,,,,,,,,
,,,,,,,,,,,,,,,,,5d9eb6d611b7c400172aa975,43,2022-02-12_15h03.40.371,lexical_decision_task_DD,2021.2.3,Win32,60.02040694,,,,,,,,,,,0.7348,1,,,,,,,,,,,,,,m,1,0.7348,,,,,,,,0.188888905,-0.20925927,0,0,0,,0,81,81,5,1,PASTA,LB,old,m,./images/PASTALB.png,,,,,,,,,,,,,,,,,,,,,,,,,,,,,,,,,,,
,,,,,,,,,,,,,,,,,5d9eb6d611b7c400172aa975,43,2022-02-12_15h03.40.371,lexical_decision_task_DD,2021.2.3,Win32,60.02040694,,,,,,,,,,,0.5517,1,,,,,,,,,,,,,,m,1,0.5517,,,,,,,,0.188888905,-0.20925927,0,0,0,,0,82,82,51,1,ONION,C,old,m,./images/ONION.png,,,,,,,,,,,,,,,,,,,,,,,,,,,,,,,,,,,
,,,,,,,,,,,,,,,,,5d9eb6d611b7c400172aa975,43,2022-02-12_15h03.40.371,lexical_decision_task_DD,2021.2.3,Win32,60.02040694,,,,,,,,,,,0.6176,1,,,,,,,,,,,,,,m,1,0.6176,,,,,,,,0.188888905,-0.20925927,0,0,0,space,0,83,83,0,1,TOMATO,C,old,m,./images/TOMATO.png,1.6855,,,,,,,,,,,,,,,,,,,,,,,,,,,,,,,,,,
,,,,,,,,,,,,,,,,,5d9eb6d611b7c400172aa975,43,2022-02-12_15h03.40.371,lexical_decision_task_DD,2021.2.3,Win32,60.02040694,,,,,,,,,,,0.9759,1,,,,,,,,,,,,,,z,1,0.9759,,,,,,,,0.188888905,-0.20925927,0,0,0,,0,84,84,103,1,FLORT,HB,old,z,./images/FLORTHB.png,,,,,,,,,,,,,,,,,,,,,,,,,,,,,,,,,,,
,,,,,,,,,,,,,,,,,5d9eb6d611b7c400172aa975,43,2022-02-12_15h03.40.371,lexical_decision_task_DD,2021.2.3,Win32,60.02040694,,,,,,,,,,,0.5665,1,,,,,,,,,,,,,,z,1,0.5665,,,,,,,,0.188888905,-0.20925927,0,0,0,,0,85,85,141,1,PLEET,C,old,z,./images/PLEET.png,,,,,,,,,,,,,,,,,,,,,,,,,,,,,,,,,,,
,,,,,,,,,,,,,,,,,5d9eb6d611b7c400172aa975,43,2022-02-12_15h03.40.371,lexical_decision_task_DD,2021.2.3,Win32,60.02040694,,,,,,,,,,,0.8748,1,,,,,,,,,,,,,,m,1,0.8748,,,,,,,,0.188888905,-0.20925927,0,0,0,,0,86,86,13,1,MOTOR,HB,old,m,./images/MOTORHB.png,,,,,,,,,,,,,,,,,,,,,,,,,,,,,,,,,,,
,,,,,,,,,,,,,,,,,5d9eb6d611b7c400172aa975,43,2022-02-12_15h03.40.371,lexical_decision_task_DD,2021.2.3,Win32,60.02040694,,,,,,,,,,,2.1004,1,,,,,,,,,,,,,,z,1,2.1004,,,,,,,,0.188888905,-0.20925927,0,0,0,,0,87,87,93,1,SMONE,C,old,z,./images/SMONE.png,,,,,,,,,,,,,,,,,,,,,,,,,,,,,,,,,,,
,,,,,,,,,,,,,,,,,5d9eb6d611b7c400172aa975,43,2022-02-12_15h03.40.371,lexical_decision_task_DD,2021.2.3,Win32,60.02040694,,,,,,,,,,,0.6086,1,,,,,,,,,,,,,,m,1,0.6086,,,,,,,,0.188888905,-0.20925927,0,0,0,,0,88,88,6,1,SQUARE,C,old,m,./images/SQUARE.png,,,,,,,,,,,,,,,,,,,,,,,,,,,,,,,,,,,
,,,,,,,,,,,,,,,,,5d9eb6d611b7c400172aa975,43,2022-02-12_15h03.40.371,lexical_decision_task_DD,2021.2.3,Win32,60.02040694,,,,,,,,,,,1.4606,1,,,,,,,,,,,,,,m,1,1.4606,,,,,,,,0.188888905,-0.20925927,0,0,0,,0,89,89,70,1,URINE,HB,old,m,./images/URINEHB.png,,,,,,,,,,,,,,,,,,,,,,,,,,,,,,,,,,,
,,,,,,,,,,,,,,,,,5d9eb6d611b7c400172aa975,43,2022-02-12_15h03.40.371,lexical_decision_task_DD,2021.2.3,Win32,60.02040694,,,,,,,,,,,1.0199,1,,,,,,,,,,,,,,m,1,1.0199,,,,,,,,0.188888905,-0.20925927,0,0,0,,0,90,90,76,1,INFANT,HB,old,m,./images/INFANTHB.png,,,,,,,,,,,,,,,,,,,,,,,,,,,,,,,,,,,
,,,,,,,,,,,,,,,,,5d9eb6d611b7c400172aa975,43,2022-02-12_15h03.40.371,lexical_decision_task_DD,2021.2.3,Win32,60.02040694,,,,,,,,,,,0.6975,1,,,,,,,,,,,,,,m,1,0.6975,,,,,,,,0.188888905,-0.20925927,0,0,0,,0,91,91,48,1,SPORT,C,old,m,./images/SPORT.png,,,,,,,,,,,,,,,,,,,,,,,,,,,,,,,,,,,
,,,,,,,,,,,,,,,,,5d9eb6d611b7c400172aa975,43,2022-02-12_15h03.40.371,lexical_decision_task_DD,2021.2.3,Win32,60.02040694,,,,,,,,,,,0.7178,1,,,,,,,,,,,,,,m,1,0.7178,,,,,,,,0.188888905,-0.20925927,0,0,0,,0,92,92,38,1,LADDER,LB,old,m,./images/LADDERLB.png,,,,,,,,,,,,,,,,,,,,,,,,,,,,,,,,,,,
,,,,,,,,,,,,,,,,,5d9eb6d611b7c400172aa975,43,2022-02-12_15h03.40.371,lexical_decision_task_DD,2021.2.3,Win32,60.02040694,,,,,,,,,,,0.7364,1,,,,,,,,,,,,,,m,1,0.7364,,,,,,,,0.188888905,-0.20925927,0,0,0,,0,93,93,23,1,WALRUS,LB,old,m,./images/WALRUSLB.png,,,,,,,,,,,,,,,,,,,,,,,,,,,,,,,,,,,
,,,,,,,,,,,,,,,,,5d9eb6d611b7c400172aa975,43,2022-02-12_15h03.40.371,lexical_decision_task_DD,2021.2.3,Win32,60.02040694,,,,,,,,,,,1.8315,1,,,,,,,,,,,,,,z,1,1.8315,,,,,,,,0.188888905,-0.20925927,0,0,0,,0,94,94,118,1,BAVEL,HB,old,z,./images/BAVELHB.png,,,,,,,,,,,,,,,,,,,,,,,,,,,,,,,,,,,
,,,,,,,,,,,,,,,,,5d9eb6d611b7c400172aa975,43,2022-02-12_15h03.40.371,lexical_decision_task_DD,2021.2.3,Win32,60.02040694,,,,,,,,,,,1.609,1,,,,,,,,,,,,,,m,1,1.609,,,,,,,,0.188888905,-0.20925927,0,0,0,,0,95,95,67,1,SAILOR,HB,old,m,./images/SAILORHB.png,,,,,,,,,,,,,,,,,,,,,,,,,,,,,,,,,,,
,,,,,,,,,,,,,,,,,5d9eb6d611b7c400172aa975,43,2022-02-12_15h03.40.371,lexical_decision_task_DD,2021.2.3,Win32,60.02040694,,,,,,,,,,,0.6177,1,,,,,,,,,,,,,,z,1,0.6177,,,,,,,,0.188888905,-0.20925927,0,0,0,,0,96,96,167,1,ZONET,LB,old,z,./images/ZONETLB.png,,,,,,,,,,,,,,,,,,,,,,,,,,,,,,,,,,,
,,,,,,,,,,,,,,,,,5d9eb6d611b7c400172aa975,43,2022-02-12_15h03.40.371,lexical_decision_task_DD,2021.2.3,Win32,60.02040694,,,,,,,,,,,0.6401,1,,,,,,,,,,,,,,z,1,0.6401,,,,,,,,0.188888905,-0.20925927,0,0,0,,0,97,97,129,1,PRANS,C,old,z,./images/PRANS.png,,,,,,,,,,,,,,,,,,,,,,,,,,,,,,,,,,,
,,,,,,,,,,,,,,,,,5d9eb6d611b7c400172aa975,43,2022-02-12_15h03.40.371,lexical_decision_task_DD,2021.2.3,Win32,60.02040694,,,,,,,,,,,0.5651,1,,,,,,,,,,,,,,z,1,0.5651,,,,,,,,0.188888905,-0.20925927,0,0,0,,0,98,98,156,1,HIXES,C,old,z,./images/HIXES.png,,,,,,,,,,,,,,,,,,,,,,,,,,,,,,,,,,,
,,,,,,,,,,,,,,,,,5d9eb6d611b7c400172aa975,43,2022-02-12_15h03.40.371,lexical_decision_task_DD,2021.2.3,Win32,60.02040694,,,,,,,,,,,2.7095,1,,,,,,,,,,,,,,z,1,2.7095,,,,,,,,0.188888905,-0.20925927,0,0,0,,0,99,99,91,1,SHENS,HB,old,z,./images/SHENSHB.png,,,,,,,,,,,,,,,,,,,,,,,,,,,,,,,,,,,
,,,,,,,,,,,,,,,,,5d9eb6d611b7c400172aa975,43,2022-02-12_15h03.40.371,lexical_decision_task_DD,2021.2.3,Win32,60.02040694,,,,,,,,,,,0.7367,1,,,,,,,,,,,,,,m,1,0.7367,,,,,,,,0.188888905,-0.20925927,0,0,0,,0,100,100,59,1,BURIAL,LB,old,m,./images/BURIALLB.png,,,,,,,,,,,,,,,,,,,,,,,,,,,,,,,,,,,
,,,,,,,,,,,,,,,,,5d9eb6d611b7c400172aa975,43,2022-02-12_15h03.40.371,lexical_decision_task_DD,2021.2.3,Win32,60.02040694,,,,,,,,,,,0.7359,1,,,,,,,,,,,,,,z,1,0.7359,,,,,,,,0.188888905,-0.20925927,0,0,0,,0,101,101,113,1,LINEW,LB,old,z,./images/LINEWLB.png,,,,,,,,,,,,,,,,,,,,,,,,,,,,,,,,,,,
,,,,,,,,,,,,,,,,,5d9eb6d611b7c400172aa975,43,2022-02-12_15h03.40.371,lexical_decision_task_DD,2021.2.3,Win32,60.02040694,,,,,,,,,,,1.8714,0,,,,,,,,,,,,,,m,0,1.8714,,,,,,,,0.188888905,-0.20925927,0,0,0,,0,102,102,110,1,CRUNK,LB,old,z,./images/CRUNKLB.png,,,,,,,,,,,,,,,,,,,,,,,,,,,,,,,,,,,
,,,,,,,,,,,,,,,,,5d9eb6d611b7c400172aa975,43,2022-02-12_15h03.40.371,lexical_decision_task_DD,2021.2.3,Win32,60.02040694,,,,,,,,,,,0.6471,1,,,,,,,,,,,,,,z,1,0.6471,,,,,,,,0.188888905,-0.20925927,0,0,0,,0,103,103,138,1,PLICE,C,old,z,./images/PLICE.png,,,,,,,,,,,,,,,,,,,,,,,,,,,,,,,,,,,
,,,,,,,,,,,,,,,,,5d9eb6d611b7c400172aa975,43,2022-02-12_15h03.40.371,lexical_decision_task_DD,2021.2.3,Win32,60.02040694,,,,,,,,,,,1.0976,1,,,,,,,,,,,,,,z,1,1.0976,,,,,,,,0.188888905,-0.20925927,0,0,0,,0,104,104,158,1,EGECT,LB,old,z,./images/EGECTLB.png,,,,,,,,,,,,,,,,,,,,,,,,,,,,,,,,,,,
,,,,,,,,,,,,,,,,,5d9eb6d611b7c400172aa975,43,2022-02-12_15h03.40.371,lexical_decision_task_DD,2021.2.3,Win32,60.02040694,,,,,,,,,,,0.5452,1,,,,,,,,,,,,,,m,1,0.5452,,,,,,,,0.188888905,-0.20925927,0,0,0,,0,105,105,66,1,SWEAT,C,old,m,./images/SWEAT.png,,,,,,,,,,,,,,,,,,,,,,,,,,,,,,,,,,,
,,,,,,,,,,,,,,,,,5d9eb6d611b7c400172aa975,43,2022-02-12_15h03.40.371,lexical_decision_task_DD,2021.2.3,Win32,60.02040694,,,,,,,,,,,1.4824,1,,,,,,,,,,,,,,m,1,1.4824,,,,,,,,0.188888905,-0.20925927,0,0,0,,0,106,106,19,1,DOUGH,HB,old,m,./images/DOUGHHB.png,,,,,,,,,,,,,,,,,,,,,,,,,,,,,,,,,,,
,,,,,,,,,,,,,,,,,5d9eb6d611b7c400172aa975,43,2022-02-12_15h03.40.371,lexical_decision_task_DD,2021.2.3,Win32,60.02040694,,,,,,,,,,,2.8372,1,,,,,,,,,,,,,,z,1,2.8372,,,,,,,,0.188888905,-0.20925927,0,0,0,,0,107,107,157,1,INLER,HB,old,z,./images/INLERHB.png,,,,,,,,,,,,,,,,,,,,,,,,,,,,,,,,,,,
,,,,,,,,,,,,,,,,,5d9eb6d611b7c400172aa975,43,2022-02-12_15h03.40.371,lexical_decision_task_DD,2021.2.3,Win32,60.02040694,,,,,,,,,,,0.7144,1,,,,,,,,,,,,,,m,1,0.7144,,,,,,,,0.188888905,-0.20925927,0,0,0,,0,108,108,9,1,RHINO,C,old,m,./images/RHINO.png,,,,,,,,,,,,,,,,,,,,,,,,,,,,,,,,,,,
,,,,,,,,,,,,,,,,,5d9eb6d611b7c400172aa975,43,2022-02-12_15h03.40.371,lexical_decision_task_DD,2021.2.3,Win32,60.02040694,,,,,,,,,,,0.5935,1,,,,,,,,,,,,,,m,1,0.5935,,,,,,,,0.188888905,-0.20925927,0,0,0,,0,109,109,74,1,CEMENT,LB,old,m,./images/CEMENTLB.png,,,,,,,,,,,,,,,,,,,,,,,,,,,,,,,,,,,
,,,,,,,,,,,,,,,,,5d9eb6d611b7c400172aa975,43,2022-02-12_15h03.40.371,lexical_decision_task_DD,2021.2.3,Win32,60.02040694,,,,,,,,,,,1.8125,1,,,,,,,,,,,,,,z,1,1.8125,,,,,,,,0.188888905,-0.20925927,0,0,0,,0,110,110,121,1,CEERS,HB,old,z,./images/CEERSHB.png,,,,,,,,,,,,,,,,,,,,,,,,,,,,,,,,,,,
,,,,,,,,,,,,,,,,,5d9eb6d611b7c400172aa975,43,2022-02-12_15h03.40.371,lexical_decision_task_DD,2021.2.3,Win32,60.02040694,,,,,,,,,,,0.7797,1,,,,,,,,,,,,,,z,1,0.7797,,,,,,,,0.188888905,-0.20925927,0,0,0,,0,111,111,165,1,TROWN,C,old,z,./images/TROWN.png,,,,,,,,,,,,,,,,,,,,,,,,,,,,,,,,,,,
,,,,,,,,,,,,,,,,,5d9eb6d611b7c400172aa975,43,2022-02-12_15h03.40.371,lexical_decision_task_DD,2021.2.3,Win32,60.02040694,,,,,,,,,,,0.6368,1,,,,,,,,,,,,,,z,1,0.6368,,,,,,,,0.188888905,-0.20925927,0,0,0,,0,112,112,123,1,SEDGE,C,old,z,./images/SEDGE.png,,,,,,,,,,,,,,,,,,,,,,,,,,,,,,,,,,,
,,,,,,,,,,,,,,,,,5d9eb6d611b7c400172aa975,43,2022-02-12_15h03.40.371,lexical_decision_task_DD,2021.2.3,Win32,60.02040694,,,,,,,,,,,2.844,0,,,,,,,,,,,,,,z,0,2.844,,,,,,,,0.188888905,-0.20925927,0,0,0,,0,113,113,31,1,QUILL,HB,old,m,./images/QUILLHB.png,,,,,,,,,,,,,,,,,,,,,,,,,,,,,,,,,,,
,,,,,,,,,,,,,,,,,5d9eb6d611b7c400172aa975,43,2022-02-12_15h03.40.371,lexical_decision_task_DD,2021.2.3,Win32,60.02040694,,,,,,,,,,,2.0266,1,,,,,,,,,,,,,,z,1,2.0266,,,,,,,,0.188888905,-0.20925927,0,0,0,,0,114,114,106,1,CLUMS,HB,old,z,./images/CLUMSHB.png,,,,,,,,,,,,,,,,,,,,,,,,,,,,,,,,,,,
,,,,,,,,,,,,,,,,,5d9eb6d611b7c400172aa975,43,2022-02-12_15h03.40.371,lexical_decision_task_DD,2021.2.3,Win32,60.02040694,,,,,,,,,,,0.7361,1,,,,,,,,,,,,,,z,1,0.7361,,,,,,,,0.188888905,-0.20925927,0,0,0,,0,115,115,146,1,MOOST,LB,old,z,./images/MOOSTLB.png,,,,,,,,,,,,,,,,,,,,,,,,,,,,,,,,,,,
,,,,,,,,,,,,,,,,,5d9eb6d611b7c400172aa975,43,2022-02-12_15h03.40.371,lexical_decision_task_DD,2021.2.3,Win32,60.02040694,,,,,,,,,,,0.6522,1,,,,,,,,,,,,,,m,1,0.6522,,,,,,,,0.188888905,-0.20925927,0,0,0,,0,116,116,32,1,BARREL,LB,old,m,./images/BARRELLB.png,,,,,,,,,,,,,,,,,,,,,,,,,,,,,,,,,,,
,,,,,,,,,,,,,,,,,5d9eb6d611b7c400172aa975,43,2022-02-12_15h03.40.371,lexical_decision_task_DD,2021.2.3,Win32,60.02040694,,,,,,,,,,,1.4845,1,,,,,,,,,,,,,,m,1,1.4845,,,,,,,,0.188888905,-0.20925927,0,0,0,,0,117,117,33,1,MAGGOT,C,old,m,./images/MAGGOT.png,,,,,,,,,,,,,,,,,,,,,,,,,,,,,,,,,,,
,,,,,,,,,,,,,,,,,5d9eb6d611b7c400172aa975,43,2022-02-12_15h03.40.371,lexical_decision_task_DD,2021.2.3,Win32,60.02040694,,,,,,,,,,,0.7985,1,,,,,,,,,,,,,,z,1,0.7985,,,,,,,,0.188888905,-0.20925927,0,0,0,,0,118,118,125,1,MOOKY,LB,old,z,./images/MOOKYLB.png,,,,,,,,,,,,,,,,,,,,,,,,,,,,,,,,,,,
,,,,,,,,,,,,,,,,,5d9eb6d611b7c400172aa975,43,2022-02-12_15h03.40.371,lexical_decision_task_DD,2021.2.3,Win32,60.02040694,,,,,,,,,,,0.5327,1,,,,,,,,,,,,,,z,1,0.5327,,,,,,,,0.188888905,-0.20925927,0,0,0,,0,119,119,162,1,LEICH,C,old,z,./images/LEICH.png,,,,,,,,,,,,,,,,,,,,,,,,,,,,,,,,,,,
,,,,,,,,,,,,,,,,,5d9eb6d611b7c400172aa975,43,2022-02-12_15h03.40.371,lexical_decision_task_DD,2021.2.3,Win32,60.02040694,,,,,,,,,,,0.7195,1,,,,,,,,,,,,,,m,1,0.7195,,,,,,,,0.188888905,-0.20925927,0,0,0,,0,120,120,8,1,TULIP,LB,old,m,./images/TULIPLB.png,,,,,,,,,,,,,,,,,,,,,,,,,,,,,,,,,,,
,,,,,,,,,,,,,,,,,5d9eb6d611b7c400172aa975,43,2022-02-12_15h03.40.371,lexical_decision_task_DD,2021.2.3,Win32,60.02040694,,,,,,,,,,,0.6469,1,,,,,,,,,,,,,,z,1,0.6469,,,,,,,,0.188888905,-0.20925927,0,0,0,,0,121,121,150,1,NOOLS,C,old,z,./images/NOOLS.png,,,,,,,,,,,,,,,,,,,,,,,,,,,,,,,,,,,
,,,,,,,,,,,,,,,,,5d9eb6d611b7c400172aa975,43,2022-02-12_15h03.40.371,lexical_decision_task_DD,2021.2.3,Win32,60.02040694,,,,,,,,,,,1.9433,1,,,,,,,,,,,,,,z,1,1.9433,,,,,,,,0.188888905,-0.20925927,0,0,0,,0,122,122,127,1,NINDY,HB,old,z,./images/NINDYHB.png,,,,,,,,,,,,,,,,,,,,,,,,,,,,,,,,,,,
,,,,,,,,,,,,,,,,,5d9eb6d611b7c400172aa975,43,2022-02-12_15h03.40.371,lexical_decision_task_DD,2021.2.3,Win32,60.02040694,,,,,,,,,,,0.685,1,,,,,,,,,,,,,,m,1,0.685,,,,,,,,0.188888905,-0.20925927,0,0,0,,0,123,123,47,1,BERRY,LB,old,m,./images/BERRYLB.png,,,,,,,,,,,,,,,,,,,,,,,,,,,,,,,,,,,
,,,,,,,,,,,,,,,,,5d9eb6d611b7c400172aa975,43,2022-02-12_15h03.40.371,lexical_decision_task_DD,2021.2.3,Win32,60.02040694,,,,,,,,,,,0.5401,1,,,,,,,,,,,,,,m,1,0.5401,,,,,,,,0.188888905,-0.20925927,0,0,0,,0,124,124,63,1,MIRROR,C,old,m,./images/MIRROR.png,,,,,,,,,,,,,,,,,,,,,,,,,,,,,,,,,,,
,,,,,,,,,,,,,,,,,5d9eb6d611b7c400172aa975,43,2022-02-12_15h03.40.371,lexical_decision_task_DD,2021.2.3,Win32,60.02040694,,,,,,,,,,,1.4925,1,,,,,,,,,,,,,,z,1,1.4925,,,,,,,,0.188888905,-0.20925927,0,0,0,space,0,125,125,163,1,GAMBA,HB,old,z,./images/GAMBAHB.png,11.0933,,,,,,,,,,,,,,,,,,,,,,,,,,,,,,,,,,
,,,,,,,,,,,,,,,,,5d9eb6d611b7c400172aa975,43,2022-02-12_15h03.40.371,lexical_decision_task_DD,2021.2.3,Win32,60.02040694,,,,,,,,,,,1.2523,1,,,,,,,,,,,,,,m,1,1.2523,,,,,,,,0.188888905,-0.20925927,0,0,0,,0,126,126,35,1,PEACH,LB,old,m,./images/PEACHLB.png,,,,,,,,,,,,,,,,,,,,,,,,,,,,,,,,,,,
,,,,,,,,,,,,,,,,,5d9eb6d611b7c400172aa975,43,2022-02-12_15h03.40.371,lexical_decision_task_DD,2021.2.3,Win32,60.02040694,,,,,,,,,,,0.6415,1,,,,,,,,,,,,,,m,1,0.6415,,,,,,,,0.188888905,-0.20925927,0,0,0,,0,127,127,30,1,STORM,C,old,m,./images/STORM.png,,,,,,,,,,,,,,,,,,,,,,,,,,,,,,,,,,,
,,,,,,,,,,,,,,,,,5d9eb6d611b7c400172aa975,43,2022-02-12_15h03.40.371,lexical_decision_task_DD,2021.2.3,Win32,60.02040694,,,,,,,,,,,0.789,1,,,,,,,,,,,,,,z,1,0.789,,,,,,,,0.188888905,-0.20925927,0,0,0,,0,128,128,155,1,CANGY,LB,old,z,./images/CANGYLB.png,,,,,,,,,,,,,,,,,,,,,,,,,,,,,,,,,,,
,,,,,,,,,,,,,,,,,5d9eb6d611b7c400172aa975,43,2022-02-12_15h03.40.371,lexical_decision_task_DD,2021.2.3,Win32,60.02040694,,,,,,,,,,,0.5826,1,,,,,,,,,,,,,,z,1,0.5826,,,,,,,,0.188888905,-0.20925927,0,0,0,,0,129,129,120,1,RINED,C,old,z,./images/RINED.png,,,,,,,,,,,,,,,,,,,,,,,,,,,,,,,,,,,
,,,,,,,,,,,,,,,,,5d9eb6d611b7c400172aa975,43,2022-02-12_15h03.40.371,lexical_decision_task_DD,2021.2.3,Win32,60.02040694,,,,,,,,,,,0.5849,1,,,,,,,,,,,,,,m,1,0.5849,,,,,,,,0.188888905,-0.20925927,0,0,0,,0,130,130,41,1,STRING,LB,old,m,./images/STRINGLB.png,,,,,,,,,,,,,,,,,,,,,,,,,,,,,,,,,,,
,,,,,,,,,,,,,,,,,5d9eb6d611b7c400172aa975,43,2022-02-12_15h03.40.371,lexical_decision_task_DD,2021.2.3,Win32,60.02040694,,,,,,,,,,,1.2844,1,,,,,,,,,,,,,,m,1,1.2844,,,,,,,,0.188888905,-0.20925927,0,0,0,,0,131,131,40,1,SWING,HB,old,m,./images/SWINGHB.png,,,,,,,,,,,,,,,,,,,,,,,,,,,,,,,,,,,
,,,,,,,,,,,,,,,,,5d9eb6d611b7c400172aa975,43,2022-02-12_15h03.40.371,lexical_decision_task_DD,2021.2.3,Win32,60.02040694,,,,,,,,,,,0.6445,1,,,,,,,,,,,,,,z,1,0.6445,,,,,,,,0.188888905,-0.20925927,0,0,0,,0,132,132,108,1,GRUET,C,old,z,./images/GRUET.png,,,,,,,,,,,,,,,,,,,,,,,,,,,,,,,,,,,
,,,,,,,,,,,,,,,,,5d9eb6d611b7c400172aa975,43,2022-02-12_15h03.40.371,lexical_decision_task_DD,2021.2.3,Win32,60.02040694,,,,,,,,,,,0.5218,0,,,,,,,,,,,,,,m,0,0.5218,,,,,,,,0.188888905,-0.20925927,0,0,0,,0,133,133,105,1,MOKER,C,old,z,./images/MOKER.png,,,,,,,,,,,,,,,,,,,,,,,,,,,,,,,,,,,
,,,,,,,,,,,,,,,,,5d9eb6d611b7c400172aa975,43,2022-02-12_15h03.40.371,lexical_decision_task_DD,2021.2.3,Win32,60.02040694,,,,,,,,,,,1.4189,1,,,,,,,,,,,,,,m,1,1.4189,,,,,,,,0.188888905,-0.20925927,0,0,0,,0,134,134,37,1,BIRTH,HB,old,m,./images/BIRTHHB.png,,,,,,,,,,,,,,,,,,,,,,,,,,,,,,,,,,,
,,,,,,,,,,,,,,,,,5d9eb6d611b7c400172aa975,43,2022-02-12_15h03.40.371,lexical_decision_task_DD,2021.2.3,Win32,60.02040694,,,,,,,,,,,0.6758,1,,,,,,,,,,,,,,z,1,0.6758,,,,,,,,0.188888905,-0.20925927,0,0,0,,0,135,135,131,1,NACES,LB,old,z,./images/NACESLB.png,,,,,,,,,,,,,,,,,,,,,,,,,,,,,,,,,,,
,,,,,,,,,,,,,,,,,5d9eb6d611b7c400172aa975,43,2022-02-12_15h03.40.371,lexical_decision_task_DD,2021.2.3,Win32,60.02040694,,,,,,,,,,,0.9691,1,,,,,,,,,,,,,,z,1,0.9691,,,,,,,,0.188888905,-0.20925927,0,0,0,,0,136,136,107,1,FASKS,LB,old,z,./images/FASKSLB.png,,,,,,,,,,,,,,,,,,,,,,,,,,,,,,,,,,,
,,,,,,,,,,,,,,,,,5d9eb6d611b7c400172aa975,43,2022-02-12_15h03.40.371,lexical_decision_task_DD,2021.2.3,Win32,60.02040694,,,,,,,,,,,0.8769,1,,,,,,,,,,,,,,m,1,0.8769,,,,,,,,0.188888905,-0.20925927,0,0,0,,0,137,137,18,1,JAGUAR,C,old,m,./images/JAGUAR.png,,,,,,,,,,,,,,,,,,,,,,,,,,,,,,,,,,,
,,,,,,,,,,,,,,,,,5d9eb6d611b7c400172aa975,43,2022-02-12_15h03.40.371,lexical_decision_task_DD,2021.2.3,Win32,60.02040694,,,,,,,,,,,0.9614,1,,,,,,,,,,,,,,m,1,0.9614,,,,,,,,0.188888905,-0.20925927,0,0,0,,0,138,138,64,1,JELLY,HB,old,m,./images/JELLYHB.png,,,,,,,,,,,,,,,,,,,,,,,,,,,,,,,,,,,
,,,,,,,,,,,,,,,,,5d9eb6d611b7c400172aa975,43,2022-02-12_15h03.40.371,lexical_decision_task_DD,2021.2.3,Win32,60.02040694,,,,,,,,,,,0.6318,1,,,,,,,,,,,,,,z,1,0.6318,,,,,,,,0.188888905,-0.20925927,0,0,0,,0,139,139,84,1,HAXES,C,old,z,./images/HAXES.png,,,,,,,,,,,,,,,,,,,,,,,,,,,,,,,,,,,
,,,,,,,,,,,,,,,,,5d9eb6d611b7c400172aa975,43,2022-02-12_15h03.40.371,lexical_decision_task_DD,2021.2.3,Win32,60.02040694,,,,,,,,,,,0.6765,1,,,,,,,,,,,,,,z,1,0.6765,,,,,,,,0.188888905,-0.20925927,0,0,0,,0,140,140,89,1,DRIEK,LB,old,z,./images/DRIEKLB.png,,,,,,,,,,,,,,,,,,,,,,,,,,,,,,,,,,,
,,,,,,,,,,,,,,,,,5d9eb6d611b7c400172aa975,43,2022-02-12_15h03.40.371,lexical_decision_task_DD,2021.2.3,Win32,60.02040694,,,,,,,,,,,1.6329,1,,,,,,,,,,,,,,m,1,1.6329,,,,,,,,0.188888905,-0.20925927,0,0,0,,0,141,141,52,1,BANNER,HB,old,m,./images/BANNERHB.png,,,,,,,,,,,,,,,,,,,,,,,,,,,,,,,,,,,
,,,,,,,,,,,,,,,,,5d9eb6d611b7c400172aa975,43,2022-02-12_15h03.40.371,lexical_decision_task_DD,2021.2.3,Win32,60.02040694,,,,,,,,,,,0.6311,1,,,,,,,,,,,,,,m,1,0.6311,,,,,,,,0.188888905,-0.20925927,0,0,0,,0,142,142,36,1,THROAT,C,old,m,./images/THROAT.png,,,,,,,,,,,,,,,,,,,,,,,,,,,,,,,,,,,
,,,,,,,,,,,,,,,,,5d9eb6d611b7c400172aa975,43,2022-02-12_15h03.40.371,lexical_decision_task_DD,2021.2.3,Win32,60.02040694,,,,,,,,,,,1.608,1,,,,,,,,,,,,,,m,1,1.608,,,,,,,,0.188888905,-0.20925927,0,0,0,,0,143,143,50,1,MALLET,LB,old,m,./images/MALLETLB.png,,,,,,,,,,,,,,,,,,,,,,,,,,,,,,,,,,,
,,,,,,,,,,,,,,,,,5d9eb6d611b7c400172aa975,43,2022-02-12_15h03.40.371,lexical_decision_task_DD,2021.2.3,Win32,60.02040694,,,,,,,,,,,0.5478,1,,,,,,,,,,,,,,m,1,0.5478,,,,,,,,0.188888905,-0.20925927,0,0,0,,0,144,144,24,1,SCREW,C,old,m,./images/SCREW.png,,,,,,,,,,,,,,,,,,,,,,,,,,,,,,,,,,,
,,,,,,,,,,,,,,,,,5d9eb6d611b7c400172aa975,43,2022-02-12_15h03.40.371,lexical_decision_task_DD,2021.2.3,Win32,60.02040694,,,,,,,,,,,2.6196,1,,,,,,,,,,,,,,m,1,2.6196,,,,,,,,0.188888905,-0.20925927,0,0,0,,0,145,145,43,1,MOSQUE,HB,old,m,./images/MOSQUEHB.png,,,,,,,,,,,,,,,,,,,,,,,,,,,,,,,,,,,
,,,,,,,,,,,,,,,,,5d9eb6d611b7c400172aa975,43,2022-02-12_15h03.40.371,lexical_decision_task_DD,2021.2.3,Win32,60.02040694,,,,,,,,,,,0.6663,1,,,,,,,,,,,,,,z,1,0.6663,,,,,,,,0.188888905,-0.20925927,0,0,0,,0,146,146,161,1,BLAPS,LB,old,z,./images/BLAPSLB.png,,,,,,,,,,,,,,,,,,,,,,,,,,,,,,,,,,,
,,,,,,,,,,,,,,,,,5d9eb6d611b7c400172aa975,43,2022-02-12_15h03.40.371,lexical_decision_task_DD,2021.2.3,Win32,60.02040694,,,,,,,,,,,0.9963,1,,,,,,,,,,,,,,m,1,0.9963,,,,,,,,0.188888905,-0.20925927,0,0,0,,0,147,147,54,1,TRIPOD,C,old,m,./images/TRIPOD.png,,,,,,,,,,,,,,,,,,,,,,,,,,,,,,,,,,,
,,,,,,,,,,,,,,,,,5d9eb6d611b7c400172aa975,43,2022-02-12_15h03.40.371,lexical_decision_task_DD,2021.2.3,Win32,60.02040694,,,,,,,,,,,3.372,1,,,,,,,,,,,,,,m,1,3.372,,,,,,,,0.188888905,-0.20925927,0,0,0,,0,148,148,49,1,DRUMS,HB,old,m,./images/DRUMSHB.png,,,,,,,,,,,,,,,,,,,,,,,,,,,,,,,,,,,
,,,,,,,,,,,,,,,,,5d9eb6d611b7c400172aa975,43,2022-02-12_15h03.40.371,lexical_decision_task_DD,2021.2.3,Win32,60.02040694,,,,,,,,,,,4.6499,1,,,,,,,,,,,,,,z,1,4.6499,,,,,,,,0.188888905,-0.20925927,0,0,0,,0,149,149,95,1,HANTY,LB,old,z,./images/HANTYLB.png,,,,,,,,,,,,,,,,,,,,,,,,,,,,,,,,,,,
,,,,,,,,,,,,,,,,,5d9eb6d611b7c400172aa975,43,2022-02-12_15h03.40.371,lexical_decision_task_DD,2021.2.3,Win32,60.02040694,,,,,,,,,,,0.6632,1,,,,,,,,,,,,,,m,1,0.6632,,,,,,,,0.188888905,-0.20925927,0,0,0,,0,150,150,15,1,GREASE,C,old,m,./images/GREASE.png,,,,,,,,,,,,,,,,,,,,,,,,,,,,,,,,,,,
,,,,,,,,,,,,,,,,,5d9eb6d611b7c400172aa975,43,2022-02-12_15h03.40.371,lexical_decision_task_DD,2021.2.3,Win32,60.02040694,,,,,,,,,,,1.3605,1,,,,,,,,,,,,,,z,1,1.3605,,,,,,,,0.188888905,-0.20925927,0,0,0,,0,151,151,109,1,BURGE,HB,old,z,./images/BURGEHB.png,,,,,,,,,,,,,,,,,,,,,,,,,,,,,,,,,,,
,,,,,,,,,,,,,,,,,5d9eb6d611b7c400172aa975,43,2022-02-12_15h03.40.371,lexical_decision_task_DD,2021.2.3,Win32,60.02040694,,,,,,,,,,,0.7355,1,,,,,,,,,,,,,,m,1,0.7355,,,,,,,,0.188888905,-0.20925927,0,0,0,,0,152,152,14,1,PICKLE,LB,old,m,./images/PICKLELB.png,,,,,,,,,,,,,,,,,,,,,,,,,,,,,,,,,,,
,,,,,,,,,,,,,,,,,5d9eb6d611b7c400172aa975,43,2022-02-12_15h03.40.371,lexical_decision_task_DD,2021.2.3,Win32,60.02040694,,,,,,,,,,,0.7393,1,,,,,,,,,,,,,,z,1,0.7393,,,,,,,,0.188888905,-0.20925927,0,0,0,,0,153,153,98,1,BAMPS,LB,old,z,./images/BAMPSLB.png,,,,,,,,,,,,,,,,,,,,,,,,,,,,,,,,,,,
,,,,,,,,,,,,,,,,,5d9eb6d611b7c400172aa975,43,2022-02-12_15h03.40.371,lexical_decision_task_DD,2021.2.3,Win32,60.02040694,,,,,,,,,,,1.3346,1,,,,,,,,,,,,,,m,1,1.3346,,,,,,,,0.188888905,-0.20925927,0,0,0,,0,154,154,72,1,NOOSE,C,old,m,./images/NOOSE.png,,,,,,,,,,,,,,,,,,,,,,,,,,,,,,,,,,,
,,,,,,,,,,,,,,,,,5d9eb6d611b7c400172aa975,43,2022-02-12_15h03.40.371,lexical_decision_task_DD,2021.2.3,Win32,60.02040694,,,,,,,,,,,2.1565,1,,,,,,,,,,,,,,z,1,2.1565,,,,,,,,0.188888905,-0.20925927,0,0,0,,0,155,155,97,1,CHIDS,HB,old,z,./images/CHIDSHB.png,,,,,,,,,,,,,,,,,,,,,,,,,,,,,,,,,,,
,,,,,,,,,,,,,,,,,5d9eb6d611b7c400172aa975,43,2022-02-12_15h03.40.371,lexical_decision_task_DD,2021.2.3,Win32,60.02040694,,,,,,,,,,,0.6707,1,,,,,,,,,,,,,,m,1,0.6707,,,,,,,,0.188888905,-0.20925927,0,0,0,,0,156,156,2,1,BEARD,LB,old,m,./images/BEARDLB.png,,,,,,,,,,,,,,,,,,,,,,,,,,,,,,,,,,,
,,,,,,,,,,,,,,,,,5d9eb6d611b7c400172aa975,43,2022-02-12_15h03.40.371,lexical_decision_task_DD,2021.2.3,Win32,60.02040694,,,,,,,,,,,0.5135,1,,,,,,,,,,,,,,m,1,0.5135,,,,,,,,0.188888905,-0.20925927,0,0,0,,0,157,157,44,1,LIZARD,LB,old,m,./images/LIZARDLB.png,,,,,,,,,,,,,,,,,,,,,,,,,,,,,,,,,,,
,,,,,,,,,,,,,,,,,5d9eb6d611b7c400172aa975,43,2022-02-12_15h03.40.371,lexical_decision_task_DD,2021.2.3,Win32,60.02040694,,,,,,,,,,,0.8664,1,,,,,,,,,,,,,,z,1,0.8664,,,,,,,,0.188888905,-0.20925927,0,0,0,,0,158,158,140,1,DOVET,LB,old,z,./images/DOVETLB.png,,,,,,,,,,,,,,,,,,,,,,,,,,,,,,,,,,,
,,,,,,,,,,,,,,,,,5d9eb6d611b7c400172aa975,43,2022-02-12_15h03.40.371,lexical_decision_task_DD,2021.2.3,Win32,60.02040694,,,,,,,,,,,1.4774,1,,,,,,,,,,,,,,z,1,1.4774,,,,,,,,0.188888905,-0.20925927,0,0,0,,0,159,159,164,1,SGREW,LB,old,z,./images/SGREWLB.png,,,,,,,,,,,,,,,,,,,,,,,,,,,,,,,,,,,
,,,,,,,,,,,,,,,,,5d9eb6d611b7c400172aa975,43,2022-02-12_15h03.40.371,lexical_decision_task_DD,2021.2.3,Win32,60.02040694,,,,,,,,,,,1.251,1,,,,,,,,,,,,,,z,1,1.251,,,,,,,,0.188888905,-0.20925927,0,0,0,,0,160,160,142,1,PLASK,HB,old,z,./images/PLASKHB.png,,,,,,,,,,,,,,,,,,,,,,,,,,,,,,,,,,,
,,,,,,,,,,,,,,,,,5d9eb6d611b7c400172aa975,43,2022-02-12_15h03.40.371,lexical_decision_task_DD,2021.2.3,Win32,60.02040694,,,,,,,,,,,1.5245,1,,,,,,,,,,,,,,z,1,1.5245,,,,,,,,0.188888905,-0.20925927,0,0,0,,0,161,161,149,1,VEASE,LB,old,z,./images/VEASELB.png,,,,,,,,,,,,,,,,,,,,,,,,,,,,,,,,,,,
,,,,,,,,,,,,,,,,,5d9eb6d611b7c400172aa975,43,2022-02-12_15h03.40.371,lexical_decision_task_DD,2021.2.3,Win32,60.02040694,,,,,,,,,,,0.6286,1,,,,,,,,,,,,,,z,1,0.6286,,,,,,,,0.188888905,-0.20925927,0,0,0,,0,162,162,143,1,MONGS,LB,old,z,./images/MONGSLB.png,,,,,,,,,,,,,,,,,,,,,,,,,,,,,,,,,,,
,,,,,,,,,,,,,,,,,5d9eb6d611b7c400172aa975,43,2022-02-12_15h03.40.371,lexical_decision_task_DD,2021.2.3,Win32,60.02040694,,,,,,,,,,,0.9067,1,,,,,,,,,,,,,,z,1,0.9067,,,,,,,,0.188888905,-0.20925927,0,0,0,,0,163,163,90,1,NEAST,C,old,z,./images/NEAST.png,,,,,,,,,,,,,,,,,,,,,,,,,,,,,,,,,,,
,,,,,,,,,,,,,,,,,5d9eb6d611b7c400172aa975,43,2022-02-12_15h03.40.371,lexical_decision_task_DD,2021.2.3,Win32,60.02040694,,,,,,,,,,,1.995,1,,,,,,,,,,,,,,z,1,1.995,,,,,,,,0.188888905,-0.20925927,0,0,0,,0,164,164,88,1,GLUSH,HB,old,z,./images/GLUSHHB.png,,,,,,,,,,,,,,,,,,,,,,,,,,,,,,,,,,,
,,,,,,,,,,,,,,,,,5d9eb6d611b7c400172aa975,43,2022-02-12_15h03.40.371,lexical_decision_task_DD,2021.2.3,Win32,60.02040694,,,,,,,,,,,1.0482,1,,,,,,,,,,,,,,m,1,1.0482,,,,,,,,0.188888905,-0.20925927,0,0,0,,0,165,165,61,1,CANDLE,HB,old,m,./images/CANDLEHB.png,,,,,,,,,,,,,,,,,,,,,,,,,,,,,,,,,,,
,,,,,,,,,,,,,,,,,5d9eb6d611b7c400172aa975,43,2022-02-12_15h03.40.371,lexical_decision_task_DD,2021.2.3,Win32,60.02040694,,,,,,,,,,,0.6379,1,,,,,,,,,,,,,,z,1,0.6379,,,,,,,,0.188888905,-0.20925927,0,0,0,,0,166,166,134,1,TROSS,LB,old,z,./images/TROSSLB.png,,,,,,,,,,,,,,,,,,,,,,,,,,,,,,,,,,,
,,,,,,,,,,,,,,,,,5d9eb6d611b7c400172aa975,43,2022-02-12_15h03.40.371,lexical_decision_task_DD,2021.2.3,Win32,60.02040694,,,,,,,,,,,0.6029,1,,,,,,,,,,,,,,m,1,0.6029,,,,,,,,0.188888905,-0.20925927,0,0,0,,0,167,167,3,1,FINGER,C,old,m,./images/FINGER.png,,,,,,,,,,,,,,,,,,,,,,,,,,,,,,,,,,,
,,,,,,,,,,,,,,,,,5d9eb6d611b7c400172aa975,43,2022-02-12_15h03.40.371,lexical_decision_task_DD,2021.2.3,Win32,60.02040694,,,,,,,,,,,,,,,,,,,,,,,,,,,,,,,,,,,,,,,,,,,,,,,,How likely will it be that you will recognize the words presented slighly blurred on a scale of 0 (not likely) to 100 (most likely)?,,,,,-0.01759258,-0.424074088,1,0,0,jol_adv,4,6.0855,0,0,0,1,1,,,,,,,,,,,,,,,,,,,,,
,,,,,,,,,,,,,,,,,5d9eb6d611b7c400172aa975,43,2022-02-12_15h03.40.371,lexical_decision_task_DD,2021.2.3,Win32,60.02040694,,,,,,,,,,,,,,,,,,,,,,,,,,,,,,,,,,,,,,,,,,,,,,,,How likely will it be that you will recognize the words presented clearly on a scale of 0 (not likely) to 100 (most likely)?,,,,,,,,,,,4,10.2032,0,1,1,0,1,,,,,,,,,,,,,,,,,,,,,
,,,,,,,,,,,,,,,,,5d9eb6d611b7c400172aa975,43,2022-02-12_15h03.40.371,lexical_decision_task_DD,2021.2.3,Win32,60.02040694,,,,,,,,,,,,,,,,,,,,,,,,,,,,,,,,,,,,,,,,,,,,,,,,How likely will it be that you will recognize the words presented very blurred on a scale of 0 (not likely) to 100 (most likely)?,,,,,,,,,,,4,3.3882,0,2,2,2,1,,,,,,,,,,,,,,,,,,,,,
space,17.8353,0.01666668,-0.199074084,0,0,0,,,,,,1,test,"In the next phase you will be presented with the words from the the first phase. Your job is to decide whether you remember seeing the word or not. If you remember seeing the word press ""old"" or type ""m"". If you do not remember seeing the word press ""new"" or type ""z"". Please press the space bar or click on continue to begin. ",,,5d9eb6d611b7c400172aa975,43,2022-02-12_15h03.40.371,lexical_decision_task_DD,2021.2.3,Win32,60.02040694,,,,,,,,,,,,,,,,,,,,,,,,,,,,,,,,,,,,,,,,,,,,,,,,,,,,,,,,,,,,,,,,,,0,0,0,0,1,,,,,,,,,,,,,,,,
space,1.9972,0.01666668,-0.199074084,0,0,0,,,,,,1,test,"In the next phase you will be presented with the words from the the first phase. Your job is to decide whether you remember seeing the word or not. If you remember seeing the word press ""old"" or type ""m"". If you do not remember seeing the word press ""new"" or type ""z"". Please press the space bar or click on continue to begin. ",,,5d9eb6d611b7c400172aa975,43,2022-02-12_15h03.40.371,lexical_decision_task_DD,2021.2.3,Win32,60.02040694,,,,,,,,,,,,,,,,,,,,,,,,,,,,,,,,,,,,,,,,,,,,,,,,,,,,,,,,,,,,,,,,,,1,0,1,0,1,,,,,,,,,,,,,,,,
,,-0.026851839,-0.384259272,1,0,0,,,,,,1,test,"In the next phase you will be presented with the words from the the first phase. Your job is to decide whether you remember seeing the word or not. If you remember seeing the word press ""old"" or type ""m"". If you do not remember seeing the word press ""new"" or type ""z"". Please press the space bar or click on continue to begin. ",,,5d9eb6d611b7c400172aa975,43,2022-02-12_15h03.40.371,lexical_decision_task_DD,2021.2.3,Win32,60.02040694,,,,,,,,,,,,,,,,,,,,,,,,,,,,,,,,,,,,,,,,,,,,,,,,,,,,,,,,,,,,,,,,,,2,0,2,0,1,instr_done_button,,,,,,,,,,,,,,,
,,-0.026851839,-0.384259272,1,0,0,,,,,,1,test,"In the next phase you will be presented with the words from the the first phase. Your job is to decide whether you remember seeing the word or not. If you remember seeing the word press ""old"" or type ""m"". If you do not remember seeing the word press ""new"" or type ""z"". Please press the space bar or click on continue to begin. ",,,5d9eb6d611b7c400172aa975,43,2022-02-12_15h03.40.371,lexical_decision_task_DD,2021.2.3,Win32,60.02040694,,,,,,,,,,,,,,,,,,,,,,,,,,,,,,,,,,,,,,,,,,,,,,,,,,,,,,,,,,,,,,,,,,3,0,3,0,1,instr_done_button,,,,,,,,,,,,,,,
,,-0.026851839,-0.384259272,1,0,0,,,,,,1,test,"In the next phase you will be presented with the words from the the first phase. Your job is to decide whether you remember seeing the word or not. If you remember seeing the word press ""old"" or type ""m"". If you do not remember seeing the word press ""new"" or type ""z"". Please press the space bar or click on continue to begin. ",,,5d9eb6d611b7c400172aa975,43,2022-02-12_15h03.40.371,lexical_decision_task_DD,2021.2.3,Win32,60.02040694,,,,,,,,,,,,,,,,,,,,,,,,,,,,,,,,,,,,,,,,,,,,,,,,,,,,,,,,,,,,,,,,,,4,0,4,0,1,instr_done_button,,,,,,,,,,,,,,,
,,,,,,,,,,,,,,,,,5d9eb6d611b7c400172aa975,43,2022-02-12_15h03.40.371,lexical_decision_task_DD,2021.2.3,Win32,60.02040694,,,,,,,,,,,3.5161,0,,,,,,,,,,,,,,,,,,,,,,,,-0.026851839,-0.384259272,0,0,0,,,,,,,SPINE,LB,z,m,./images/SPINELB.png,,,,,,,,,,,,,,,,,,,,,m,0,3.5161,,,,,,,,0,0,0,149,1
,,,,,,,,,,,,,,,,,5d9eb6d611b7c400172aa975,43,2022-02-12_15h03.40.371,lexical_decision_task_DD,2021.2.3,Win32,60.02040694,,,,,,,,,,,3.1128,0,,,,,,,,,,,,,,,,,,,,,,,,-0.026851839,-0.384259272,0,0,0,,,,,,,POODLE,C,m,m,./images/POODLE.png,,,,,,,,,,,,,,,,,,,,,z,0,3.1128,,,,,,,,0,1,1,81,1
,,,,,,,,,,,,,,,,,5d9eb6d611b7c400172aa975,43,2022-02-12_15h03.40.371,lexical_decision_task_DD,2021.2.3,Win32,60.02040694,,,,,,,,,,,1.1412,1,,,,,,,,,,,,,,,,,,,,,,,,-0.026851839,-0.384259272,0,0,0,,,,,,,SAILOR,HB,m,m,./images/SAILORHB.png,,,,,,,,,,,,,,,,,,,,,m,1,1.1412,,,,,,,,0,2,2,67,1
,,,,,,,,,,,,,,,,,5d9eb6d611b7c400172aa975,43,2022-02-12_15h03.40.371,lexical_decision_task_DD,2021.2.3,Win32,60.02040694,,,,,,,,,,,2.0564,1,,,,,,,,,,,,,,,,,,,,,,,,-0.026851839,-0.384259272,0,0,0,,,,,,,BLOKE,C,z,m,./images/BLOKE.png,,,,,,,,,,,,,,,,,,,,,z,1,2.0564,,,,,,,,0,3,3,96,1
,,,,,,,,,,,,,,,,,5d9eb6d611b7c400172aa975,43,2022-02-12_15h03.40.371,lexical_decision_task_DD,2021.2.3,Win32,60.02040694,,,,,,,,,,,3.8527,1,,,,,,,,,,,,,,,,,,,,,,,,-0.026851839,-0.384259272,0,0,0,,,,,,,WHISKY,LB,z,m,./images/WHISKYLB.png,,,,,,,,,,,,,,,,,,,,,z,1,3.8527,,,,,,,,0,4,4,167,1
,,,,,,,,,,,,,,,,,5d9eb6d611b7c400172aa975,43,2022-02-12_15h03.40.371,lexical_decision_task_DD,2021.2.3,Win32,60.02040694,,,,,,,,,,,1.8103,1,,,,,,,,,,,,,,,,,,,,,,,,-0.026851839,-0.384259272,0,0,0,,,,,,,SAUCE,C,z,m,./images/SAUCE.png,,,,,,,,,,,,,,,,,,,,,z,1,1.8103,,,,,,,,0,5,5,135,1
,,,,,,,,,,,,,,,,,5d9eb6d611b7c400172aa975,43,2022-02-12_15h03.40.371,lexical_decision_task_DD,2021.2.3,Win32,60.02040694,,,,,,,,,,,2.2347,1,,,,,,,,,,,,,,,,,,,,,,,,-0.026851839,-0.384259272,0,0,0,,,,,,,CRATER,C,z,m,./images/CRATER.png,,,,,,,,,,,,,,,,,,,,,z,1,2.2347,,,,,,,,0,6,6,87,1
,,,,,,,,,,,,,,,,,5d9eb6d611b7c400172aa975,43,2022-02-12_15h03.40.371,lexical_decision_task_DD,2021.2.3,Win32,60.02040694,,,,,,,,,,,1.1688,1,,,,,,,,,,,,,,,,,,,,,,,,-0.026851839,-0.384259272,0,0,0,,,,,,,BISHOP,HB,z,m,./images/BISHOPHB.png,,,,,,,,,,,,,,,,,,,,,z,1,1.1688,,,,,,,,0,7,7,133,1
,,,,,,,,,,,,,,,,,5d9eb6d611b7c400172aa975,43,2022-02-12_15h03.40.371,lexical_decision_task_DD,2021.2.3,Win32,60.02040694,,,,,,,,,,,1.5002,1,,,,,,,,,,,,,,,,,,,,,,,,-0.026851839,-0.384259272,0,0,0,,,,,,,CRADLE,LB,m,m,./images/CRADLELB.png,,,,,,,,,,,,,,,,,,,,,m,1,1.5002,,,,,,,,0,8,8,20,1
,,,,,,,,,,,,,,,,,5d9eb6d611b7c400172aa975,43,2022-02-12_15h03.40.371,lexical_decision_task_DD,2021.2.3,Win32,60.02040694,,,,,,,,,,,0.9809,1,,,,,,,,,,,,,,,,,,,,,,,,-0.026851839,-0.384259272,0,0,0,,,,,,,MOOSE,C,m,m,./images/MOOSE.png,,,,,,,,,,,,,,,,,,,,,m,1,0.9809,,,,,,,,0,9,9,57,1
,,,,,,,,,,,,,,,,,5d9eb6d611b7c400172aa975,43,2022-02-12_15h03.40.371,lexical_decision_task_DD,2021.2.3,Win32,60.02040694,,,,,,,,,,,1.0005,1,,,,,,,,,,,,,,,,,,,,,,,,-0.026851839,-0.384259272,0,0,0,,,,,,,PICKLE,LB,m,m,./images/PICKLELB.png,,,,,,,,,,,,,,,,,,,,,m,1,1.0005,,,,,,,,0,10,10,14,1
,,,,,,,,,,,,,,,,,5d9eb6d611b7c400172aa975,43,2022-02-12_15h03.40.371,lexical_decision_task_DD,2021.2.3,Win32,60.02040694,,,,,,,,,,,0.9845,1,,,,,,,,,,,,,,,,,,,,,,,,-0.026851839,-0.384259272,0,0,0,,,,,,,BANNER,HB,m,m,./images/BANNERHB.png,,,,,,,,,,,,,,,,,,,,,m,1,0.9845,,,,,,,,0,11,11,52,1
,,,,,,,,,,,,,,,,,5d9eb6d611b7c400172aa975,43,2022-02-12_15h03.40.371,lexical_decision_task_DD,2021.2.3,Win32,60.02040694,,,,,,,,,,,0.9693,1,,,,,,,,,,,,,,,,,,,,,,,,-0.026851839,-0.384259272,0,0,0,,,,,,,HEATER,LB,z,m,./images/HEATERLB.png,,,,,,,,,,,,,,,,,,,,,z,1,0.9693,,,,,,,,0,12,12,140,1
,,,,,,,,,,,,,,,,,5d9eb6d611b7c400172aa975,43,2022-02-12_15h03.40.371,lexical_decision_task_DD,2021.2.3,Win32,60.02040694,,,,,,,,,,,1.4938,1,,,,,,,,,,,,,,,,,,,,,,,,-0.026851839,-0.384259272,0,0,0,,,,,,,CANDLE,HB,m,m,./images/CANDLEHB.png,,,,,,,,,,,,,,,,,,,,,m,1,1.4938,,,,,,,,0,13,13,61,1
,,,,,,,,,,,,,,,,,5d9eb6d611b7c400172aa975,43,2022-02-12_15h03.40.371,lexical_decision_task_DD,2021.2.3,Win32,60.02040694,,,,,,,,,,,1.152,1,,,,,,,,,,,,,,,,,,,,,,,,-0.026851839,-0.384259272,0,0,0,,,,,,,ENGINE,LB,z,m,./images/ENGINELB.png,,,,,,,,,,,,,,,,,,,,,z,1,1.152,,,,,,,,0,14,14,122,1
,,,,,,,,,,,,,,,,,5d9eb6d611b7c400172aa975,43,2022-02-12_15h03.40.371,lexical_decision_task_DD,2021.2.3,Win32,60.02040694,,,,,,,,,,,3.4163,1,,,,,,,,,,,,,,,,,,,,,,,,-0.026851839,-0.384259272,0,0,0,,,,,,,WALRUS,LB,m,m,./images/WALRUSLB.png,,,,,,,,,,,,,,,,,,,,,m,1,3.4163,,,,,,,,0,15,15,23,1
,,,,,,,,,,,,,,,,,5d9eb6d611b7c400172aa975,43,2022-02-12_15h03.40.371,lexical_decision_task_DD,2021.2.3,Win32,60.02040694,,,,,,,,,,,4.5194,1,,,,,,,,,,,,,,,,,,,,,,,,-0.026851839,-0.384259272,0,0,0,,,,,,,SCREW,C,m,m,./images/SCREW.png,,,,,,,,,,,,,,,,,,,,,m,1,4.5194,,,,,,,,0,16,16,24,1
,,,,,,,,,,,,,,,,,5d9eb6d611b7c400172aa975,43,2022-02-12_15h03.40.371,lexical_decision_task_DD,2021.2.3,Win32,60.02040694,,,,,,,,,,,1.5687,1,,,,,,,,,,,,,,,,,,,,,,,,-0.026851839,-0.384259272,0,0,0,,,,,,,POSTER,LB,z,m,./images/POSTERLB.png,,,,,,,,,,,,,,,,,,,,,z,1,1.5687,,,,,,,,0,17,17,137,1
,,,,,,,,,,,,,,,,,5d9eb6d611b7c400172aa975,43,2022-02-12_15h03.40.371,lexical_decision_task_DD,2021.2.3,Win32,60.02040694,,,,,,,,,,,3.2007,0,,,,,,,,,,,,,,,,,,,,,,,,-0.026851839,-0.384259272,0,0,0,,,,,,,GLOVE,HB,z,m,./images/GLOVEHB.png,,,,,,,,,,,,,,,,,,,,,m,0,3.2007,,,,,,,,0,18,18,157,1
,,,,,,,,,,,,,,,,,5d9eb6d611b7c400172aa975,43,2022-02-12_15h03.40.371,lexical_decision_task_DD,2021.2.3,Win32,60.02040694,,,,,,,,,,,1.0552,1,,,,,,,,,,,,,,,,,,,,,,,,-0.026851839,-0.384259272,0,0,0,,,,,,,WEASEL,LB,m,m,./images/WEASELLB.png,,,,,,,,,,,,,,,,,,,,,m,1,1.0552,,,,,,,,0,19,19,80,1
,,,,,,,,,,,,,,,,,5d9eb6d611b7c400172aa975,43,2022-02-12_15h03.40.371,lexical_decision_task_DD,2021.2.3,Win32,60.02040694,,,,,,,,,,,1.3021,1,,,,,,,,,,,,,,,,,,,,,,,,-0.026851839,-0.384259272,0,0,0,,,,,,,CHERRY,C,z,m,./images/CHERRY.png,,,,,,,,,,,,,,,,,,,,,z,1,1.3021,,,,,,,,0,20,20,138,1
,,,,,,,,,,,,,,,,,5d9eb6d611b7c400172aa975,43,2022-02-12_15h03.40.371,lexical_decision_task_DD,2021.2.3,Win32,60.02040694,,,,,,,,,,,1.4202,0,,,,,,,,,,,,,,,,,,,,,,,,-0.026851839,-0.384259272,0,0,0,,,,,,,FINGER,C,m,m,./images/FINGER.png,,,,,,,,,,,,,,,,,,,,,z,0,1.4202,,,,,,,,0,21,21,3,1
,,,,,,,,,,,,,,,,,5d9eb6d611b7c400172aa975,43,2022-02-12_15h03.40.371,lexical_decision_task_DD,2021.2.3,Win32,60.02040694,,,,,,,,,,,1.1197,0,,,,,,,,,,,,,,,,,,,,,,,,-0.026851839,-0.384259272,0,0,0,,,,,,,CLIFF,LB,z,m,./images/CLIFFLB.png,,,,,,,,,,,,,,,,,,,,,m,0,1.1197,,,,,,,,0,22,22,92,1
,,,,,,,,,,,,,,,,,5d9eb6d611b7c400172aa975,43,2022-02-12_15h03.40.371,lexical_decision_task_DD,2021.2.3,Win32,60.02040694,,,,,,,,,,,1.5174,0,,,,,,,,,,,,,,,,,,,,,,,,-0.026851839,-0.384259272,0,0,0,,,,,,,POKER,HB,z,m,./images/POKERHB.png,,,,,,,,,,,,,,,,,,,,,m,0,1.5174,,,,,,,,0,23,23,151,1
,,,,,,,,,,,,,,,,,5d9eb6d611b7c400172aa975,43,2022-02-12_15h03.40.371,lexical_decision_task_DD,2021.2.3,Win32,60.02040694,,,,,,,,,,,0.8118,1,,,,,,,,,,,,,,,,,,,,,,,,-0.026851839,-0.384259272,0,0,0,,,,,,,GREASE,C,m,m,./images/GREASE.png,,,,,,,,,,,,,,,,,,,,,m,1,0.8118,,,,,,,,0,24,24,15,1
,,,,,,,,,,,,,,,,,5d9eb6d611b7c400172aa975,43,2022-02-12_15h03.40.371,lexical_decision_task_DD,2021.2.3,Win32,60.02040694,,,,,,,,,,,1.1779,1,,,,,,,,,,,,,,,,,,,,,,,,-0.026851839,-0.384259272,0,0,0,,,,,,,MEDAL,LB,z,m,./images/MEDALLB.png,,,,,,,,,,,,,,,,,,,,,z,1,1.1779,,,,,,,,0,25,25,95,1
,,,,,,,,,,,,,,,,,5d9eb6d611b7c400172aa975,43,2022-02-12_15h03.40.371,lexical_decision_task_DD,2021.2.3,Win32,60.02040694,,,,,,,,,,,1.0062,1,,,,,,,,,,,,,,,,,,,,,,,,-0.026851839,-0.384259272,0,0,0,,,,,,,TOWEL,HB,z,m,./images/TOWELHB.png,,,,,,,,,,,,,,,,,,,,,z,1,1.0062,,,,,,,,0,26,26,85,1
,,,,,,,,,,,,,,,,,5d9eb6d611b7c400172aa975,43,2022-02-12_15h03.40.371,lexical_decision_task_DD,2021.2.3,Win32,60.02040694,,,,,,,,,,,1.9063,1,,,,,,,,,,,,,,,,,,,,,,,,-0.026851839,-0.384259272,0,0,0,,,,,,,INFANT,HB,m,m,./images/INFANTHB.png,,,,,,,,,,,,,,,,,,,,,m,1,1.9063,,,,,,,,0,27,27,76,1
,,,,,,,,,,,,,,,,,5d9eb6d611b7c400172aa975,43,2022-02-12_15h03.40.371,lexical_decision_task_DD,2021.2.3,Win32,60.02040694,,,,,,,,,,,1.7639,1,,,,,,,,,,,,,,,,,,,,,,,,-0.026851839,-0.384259272,0,0,0,,,,,,,BASKET,LB,z,m,./images/BASKETLB.png,,,,,,,,,,,,,,,,,,,,,z,1,1.7639,,,,,,,,0,28,28,128,1
,,,,,,,,,,,,,,,,,5d9eb6d611b7c400172aa975,43,2022-02-12_15h03.40.371,lexical_decision_task_DD,2021.2.3,Win32,60.02040694,,,,,,,,,,,0.6496,0,,,,,,,,,,,,,,,,,,,,,,,,-0.026851839,-0.384259272,0,0,0,,,,,,,PURSE,LB,m,m,./images/PURSELB.png,,,,,,,,,,,,,,,,,,,,,z,0,0.6496,,,,,,,,0,29,29,62,1
,,,,,,,,,,,,,,,,,5d9eb6d611b7c400172aa975,43,2022-02-12_15h03.40.371,lexical_decision_task_DD,2021.2.3,Win32,60.02040694,,,,,,,,,,,0.7489,1,,,,,,,,,,,,,,,,,,,,,,,,-0.026851839,-0.384259272,0,0,0,,,,,,,FLESH,C,z,m,./images/FLESH.png,,,,,,,,,,,,,,,,,,,,,z,1,0.7489,,,,,,,,0,30,30,108,1
,,,,,,,,,,,,,,,,,5d9eb6d611b7c400172aa975,43,2022-02-12_15h03.40.371,lexical_decision_task_DD,2021.2.3,Win32,60.02040694,,,,,,,,,,,0.8407,1,,,,,,,,,,,,,,,,,,,,,,,,-0.026851839,-0.384259272,0,0,0,,,,,,,TOMATO,C,m,m,./images/TOMATO.png,,,,,,,,,,,,,,,,,,,,,m,1,0.8407,,,,,,,,0,31,31,0,1
,,,,,,,,,,,,,,,,,5d9eb6d611b7c400172aa975,43,2022-02-12_15h03.40.371,lexical_decision_task_DD,2021.2.3,Win32,60.02040694,,,,,,,,,,,1.386,0,,,,,,,,,,,,,,,,,,,,,,,,-0.026851839,-0.384259272,0,0,0,,,,,,,CEMENT,LB,m,m,./images/CEMENTLB.png,,,,,,,,,,,,,,,,,,,,,z,0,1.386,,,,,,,,0,32,32,74,1
,,,,,,,,,,,,,,,,,5d9eb6d611b7c400172aa975,43,2022-02-12_15h03.40.371,lexical_decision_task_DD,2021.2.3,Win32,60.02040694,,,,,,,,,,,0.9526,1,,,,,,,,,,,,,,,,,,,,,,,,-0.026851839,-0.384259272,0,0,0,,,,,,,MUMMY,HB,z,m,./images/MUMMYHB.png,,,,,,,,,,,,,,,,,,,,,z,1,0.9526,,,,,,,,0,33,33,130,1
,,,,,,,,,,,,,,,,,5d9eb6d611b7c400172aa975,43,2022-02-12_15h03.40.371,lexical_decision_task_DD,2021.2.3,Win32,60.02040694,,,,,,,,,,,0.9676,0,,,,,,,,,,,,,,,,,,,,,,,,-0.026851839,-0.384259272,0,0,0,,,,,,,LAGOON,LB,z,m,./images/LAGOONLB.png,,,,,,,,,,,,,,,,,,,,,m,0,0.9676,,,,,,,,0,34,34,131,1
,,,,,,,,,,,,,,,,,5d9eb6d611b7c400172aa975,43,2022-02-12_15h03.40.371,lexical_decision_task_DD,2021.2.3,Win32,60.02040694,,,,,,,,,,,1.18,1,,,,,,,,,,,,,,,,,,,,,,,,-0.026851839,-0.384259272,0,0,0,,,,,,,STOOL,HB,z,m,./images/STOOLHB.png,,,,,,,,,,,,,,,,,,,,,z,1,1.18,,,,,,,,0,35,35,127,1
,,,,,,,,,,,,,,,,,5d9eb6d611b7c400172aa975,43,2022-02-12_15h03.40.371,lexical_decision_task_DD,2021.2.3,Win32,60.02040694,,,,,,,,,,,1.3687,1,,,,,,,,,,,,,,,,,,,,,,,,-0.026851839,-0.384259272,0,0,0,,,,,,,DESERT,HB,z,m,./images/DESERTHB.png,,,,,,,,,,,,,,,,,,,,,z,1,1.3687,,,,,,,,0,36,36,136,1
,,,,,,,,,,,,,,,,,5d9eb6d611b7c400172aa975,43,2022-02-12_15h03.40.371,lexical_decision_task_DD,2021.2.3,Win32,60.02040694,,,,,,,,,,,1.1437,1,,,,,,,,,,,,,,,,,,,,,,,,-0.026851839,-0.384259272,0,0,0,,,,,,,STORM,C,m,m,./images/STORM.png,,,,,,,,,,,,,,,,,,,,,m,1,1.1437,,,,,,,,0,37,37,30,1
,,,,,,,,,,,,,,,,,5d9eb6d611b7c400172aa975,43,2022-02-12_15h03.40.371,lexical_decision_task_DD,2021.2.3,Win32,60.02040694,,,,,,,,,,,1.1207,1,,,,,,,,,,,,,,,,,,,,,,,,-0.026851839,-0.384259272,0,0,0,,,,,,,CASINO,HB,z,m,./images/CASINOHB.png,,,,,,,,,,,,,,,,,,,,,z,1,1.1207,,,,,,,,0,38,38,112,1
,,,,,,,,,,,,,,,,,5d9eb6d611b7c400172aa975,43,2022-02-12_15h03.40.371,lexical_decision_task_DD,2021.2.3,Win32,60.02040694,,,,,,,,,,,1.4335,1,,,,,,,,,,,,,,,,,,,,,,,,-0.026851839,-0.384259272,0,0,0,,,,,,,SHIELD,C,z,m,./images/SHIELD.png,,,,,,,,,,,,,,,,,,,,,z,1,1.4335,,,,,,,,0,39,39,132,1
,,,,,,,,,,,,,,,,,5d9eb6d611b7c400172aa975,43,2022-02-12_15h03.40.371,lexical_decision_task_DD,2021.2.3,Win32,60.02040694,,,,,,,,,,,0.7361,1,,,,,,,,,,,,,,,,,,,,,,,,-0.026851839,-0.384259272,0,0,0,,,,,,,TULIP,LB,m,m,./images/TULIPLB.png,,,,,,,,,,,,,,,,,,,,,m,1,0.7361,,,,,,,,0,40,40,8,1
,,,,,,,,,,,,,,,,,5d9eb6d611b7c400172aa975,43,2022-02-12_15h03.40.371,lexical_decision_task_DD,2021.2.3,Win32,60.02040694,,,,,,,,,,,0.818,1,,,,,,,,,,,,,,,,,,,,,,,,-0.026851839,-0.384259272,0,0,0,space,,,,,,MUSCLE,HB,m,m,./images/MUSCLEHB.png,1.6662,,,,,,,,,,,,,,,,,,,,m,1,0.818,,,,,,,,0,41,41,4,1
,,,,,,,,,,,,,,,,,5d9eb6d611b7c400172aa975,43,2022-02-12_15h03.40.371,lexical_decision_task_DD,2021.2.3,Win32,60.02040694,,,,,,,,,,,1.1688,1,,,,,,,,,,,,,,,,,,,,,,,,-0.026851839,-0.384259272,0,0,0,,,,,,,GRAIN,C,m,m,./images/GRAIN.png,,,,,,,,,,,,,,,,,,,,,m,1,1.1688,,,,,,,,0,42,42,75,1
,,,,,,,,,,,,,,,,,5d9eb6d611b7c400172aa975,43,2022-02-12_15h03.40.371,lexical_decision_task_DD,2021.2.3,Win32,60.02040694,,,,,,,,,,,1.9808,1,,,,,,,,,,,,,,,,,,,,,,,,-0.026851839,-0.384259272,0,0,0,,,,,,,SLOPE,C,z,m,./images/SLOPE.png,,,,,,,,,,,,,,,,,,,,,z,1,1.9808,,,,,,,,0,43,43,114,1
,,,,,,,,,,,,,,,,,5d9eb6d611b7c400172aa975,43,2022-02-12_15h03.40.371,lexical_decision_task_DD,2021.2.3,Win32,60.02040694,,,,,,,,,,,1.165,0,,,,,,,,,,,,,,,,,,,,,,,,-0.026851839,-0.384259272,0,0,0,,,,,,,BUBBLE,LB,z,m,./images/BUBBLELB.png,,,,,,,,,,,,,,,,,,,,,m,0,1.165,,,,,,,,0,44,44,155,1
,,,,,,,,,,,,,,,,,5d9eb6d611b7c400172aa975,43,2022-02-12_15h03.40.371,lexical_decision_task_DD,2021.2.3,Win32,60.02040694,,,,,,,,,,,1.3503,0,,,,,,,,,,,,,,,,,,,,,,,,-0.026851839,-0.384259272,0,0,0,,,,,,,PASTA,LB,m,m,./images/PASTALB.png,,,,,,,,,,,,,,,,,,,,,z,0,1.3503,,,,,,,,0,45,45,5,1
,,,,,,,,,,,,,,,,,5d9eb6d611b7c400172aa975,43,2022-02-12_15h03.40.371,lexical_decision_task_DD,2021.2.3,Win32,60.02040694,,,,,,,,,,,1.302,1,,,,,,,,,,,,,,,,,,,,,,,,-0.026851839,-0.384259272,0,0,0,,,,,,,SHORE,C,m,m,./images/SHORE.png,,,,,,,,,,,,,,,,,,,,,m,1,1.302,,,,,,,,0,46,46,12,1
,,,,,,,,,,,,,,,,,5d9eb6d611b7c400172aa975,43,2022-02-12_15h03.40.371,lexical_decision_task_DD,2021.2.3,Win32,60.02040694,,,,,,,,,,,1.6916,0,,,,,,,,,,,,,,,,,,,,,,,,-0.026851839,-0.384259272,0,0,0,,,,,,,CHALK,HB,z,m,./images/CHALKHB.png,,,,,,,,,,,,,,,,,,,,,m,0,1.6916,,,,,,,,0,47,47,109,1
,,,,,,,,,,,,,,,,,5d9eb6d611b7c400172aa975,43,2022-02-12_15h03.40.371,lexical_decision_task_DD,2021.2.3,Win32,60.02040694,,,,,,,,,,,0.9009,1,,,,,,,,,,,,,,,,,,,,,,,,-0.026851839,-0.384259272,0,0,0,,,,,,,KITTEN,C,m,m,./images/KITTEN.png,,,,,,,,,,,,,,,,,,,,,m,1,0.9009,,,,,,,,0,48,48,45,1
,,,,,,,,,,,,,,,,,5d9eb6d611b7c400172aa975,43,2022-02-12_15h03.40.371,lexical_decision_task_DD,2021.2.3,Win32,60.02040694,,,,,,,,,,,1.5532,1,,,,,,,,,,,,,,,,,,,,,,,,-0.026851839,-0.384259272,0,0,0,,,,,,,ALLEY,HB,z,m,./images/ALLEYHB.png,,,,,,,,,,,,,,,,,,,,,z,1,1.5532,,,,,,,,0,49,49,139,1
,,,,,,,,,,,,,,,,,5d9eb6d611b7c400172aa975,43,2022-02-12_15h03.40.371,lexical_decision_task_DD,2021.2.3,Win32,60.02040694,,,,,,,,,,,0.9877,0,,,,,,,,,,,,,,,,,,,,,,,,-0.026851839,-0.384259272,0,0,0,,,,,,,GRAPE,HB,z,m,./images/GRAPEHB.png,,,,,,,,,,,,,,,,,,,,,m,0,0.9877,,,,,,,,0,50,50,100,1
,,,,,,,,,,,,,,,,,5d9eb6d611b7c400172aa975,43,2022-02-12_15h03.40.371,lexical_decision_task_DD,2021.2.3,Win32,60.02040694,,,,,,,,,,,2.0727,0,,,,,,,,,,,,,,,,,,,,,,,,-0.026851839,-0.384259272,0,0,0,,,,,,,PLANET,LB,z,m,./images/PLANETLB.png,,,,,,,,,,,,,,,,,,,,,m,0,2.0727,,,,,,,,0,51,51,164,1
,,,,,,,,,,,,,,,,,5d9eb6d611b7c400172aa975,43,2022-02-12_15h03.40.371,lexical_decision_task_DD,2021.2.3,Win32,60.02040694,,,,,,,,,,,1.1796,0,,,,,,,,,,,,,,,,,,,,,,,,-0.026851839,-0.384259272,0,0,0,,,,,,,SWING,HB,m,m,./images/SWINGHB.png,,,,,,,,,,,,,,,,,,,,,z,0,1.1796,,,,,,,,0,52,52,40,1
,,,,,,,,,,,,,,,,,5d9eb6d611b7c400172aa975,43,2022-02-12_15h03.40.371,lexical_decision_task_DD,2021.2.3,Win32,60.02040694,,,,,,,,,,,2.0307,1,,,,,,,,,,,,,,,,,,,,,,,,-0.026851839,-0.384259272,0,0,0,,,,,,,MONKEY,C,z,m,./images/MONKEY.png,,,,,,,,,,,,,,,,,,,,,z,1,2.0307,,,,,,,,0,53,53,129,1
,,,,,,,,,,,,,,,,,5d9eb6d611b7c400172aa975,43,2022-02-12_15h03.40.371,lexical_decision_task_DD,2021.2.3,Win32,60.02040694,,,,,,,,,,,1.3359,1,,,,,,,,,,,,,,,,,,,,,,,,-0.026851839,-0.384259272,0,0,0,,,,,,,CANYON,HB,m,m,./images/CANYONHB.png,,,,,,,,,,,,,,,,,,,,,m,1,1.3359,,,,,,,,0,54,54,34,1
,,,,,,,,,,,,,,,,,5d9eb6d611b7c400172aa975,43,2022-02-12_15h03.40.371,lexical_decision_task_DD,2021.2.3,Win32,60.02040694,,,,,,,,,,,1.6029,0,,,,,,,,,,,,,,,,,,,,,,,,-0.026851839,-0.384259272,0,0,0,,,,,,,BURIAL,LB,m,m,./images/BURIALLB.png,,,,,,,,,,,,,,,,,,,,,z,0,1.6029,,,,,,,,0,55,55,59,1
,,,,,,,,,,,,,,,,,5d9eb6d611b7c400172aa975,43,2022-02-12_15h03.40.371,lexical_decision_task_DD,2021.2.3,Win32,60.02040694,,,,,,,,,,,1.0023,0,,,,,,,,,,,,,,,,,,,,,,,,-0.026851839,-0.384259272,0,0,0,,,,,,,SQUARE,C,m,m,./images/SQUARE.png,,,,,,,,,,,,,,,,,,,,,z,0,1.0023,,,,,,,,0,56,56,6,1
,,,,,,,,,,,,,,,,,5d9eb6d611b7c400172aa975,43,2022-02-12_15h03.40.371,lexical_decision_task_DD,2021.2.3,Win32,60.02040694,,,,,,,,,,,1.2311,0,,,,,,,,,,,,,,,,,,,,,,,,-0.026851839,-0.384259272,0,0,0,,,,,,,ARTIST,HB,z,m,./images/ARTISTHB.png,,,,,,,,,,,,,,,,,,,,,m,0,1.2311,,,,,,,,0,57,57,145,1
,,,,,,,,,,,,,,,,,5d9eb6d611b7c400172aa975,43,2022-02-12_15h03.40.371,lexical_decision_task_DD,2021.2.3,Win32,60.02040694,,,,,,,,,,,0.7332,1,,,,,,,,,,,,,,,,,,,,,,,,-0.026851839,-0.384259272,0,0,0,,,,,,,RHINO,C,m,m,./images/RHINO.png,,,,,,,,,,,,,,,,,,,,,m,1,0.7332,,,,,,,,0,58,58,9,1
,,,,,,,,,,,,,,,,,5d9eb6d611b7c400172aa975,43,2022-02-12_15h03.40.371,lexical_decision_task_DD,2021.2.3,Win32,60.02040694,,,,,,,,,,,0.8859,1,,,,,,,,,,,,,,,,,,,,,,,,-0.026851839,-0.384259272,0,0,0,,,,,,,GARDEN,HB,z,m,./images/GARDENHB.png,,,,,,,,,,,,,,,,,,,,,z,1,0.8859,,,,,,,,0,59,59,94,1
,,,,,,,,,,,,,,,,,5d9eb6d611b7c400172aa975,43,2022-02-12_15h03.40.371,lexical_decision_task_DD,2021.2.3,Win32,60.02040694,,,,,,,,,,,0.9026,1,,,,,,,,,,,,,,,,,,,,,,,,-0.026851839,-0.384259272,0,0,0,,,,,,,BERRY,LB,m,m,./images/BERRYLB.png,,,,,,,,,,,,,,,,,,,,,m,1,0.9026,,,,,,,,0,60,60,47,1
,,,,,,,,,,,,,,,,,5d9eb6d611b7c400172aa975,43,2022-02-12_15h03.40.371,lexical_decision_task_DD,2021.2.3,Win32,60.02040694,,,,,,,,,,,0.9858,1,,,,,,,,,,,,,,,,,,,,,,,,-0.026851839,-0.384259272,0,0,0,,,,,,,MELON,HB,m,m,./images/MELONHB.png,,,,,,,,,,,,,,,,,,,,,m,1,0.9858,,,,,,,,0,61,61,22,1
,,,,,,,,,,,,,,,,,5d9eb6d611b7c400172aa975,43,2022-02-12_15h03.40.371,lexical_decision_task_DD,2021.2.3,Win32,60.02040694,,,,,,,,,,,0.8857,0,,,,,,,,,,,,,,,,,,,,,,,,-0.026851839,-0.384259272,0,0,0,,,,,,,PEACH,LB,m,m,./images/PEACHLB.png,,,,,,,,,,,,,,,,,,,,,z,0,0.8857,,,,,,,,0,62,62,35,1
,,,,,,,,,,,,,,,,,5d9eb6d611b7c400172aa975,43,2022-02-12_15h03.40.371,lexical_decision_task_DD,2021.2.3,Win32,60.02040694,,,,,,,,,,,0.7879,1,,,,,,,,,,,,,,,,,,,,,,,,-0.026851839,-0.384259272,0,0,0,,,,,,,TORCH,LB,m,m,./images/TORCHLB.png,,,,,,,,,,,,,,,,,,,,,m,1,0.7879,,,,,,,,0,63,63,68,1
,,,,,,,,,,,,,,,,,5d9eb6d611b7c400172aa975,43,2022-02-12_15h03.40.371,lexical_decision_task_DD,2021.2.3,Win32,60.02040694,,,,,,,,,,,0.7487,1,,,,,,,,,,,,,,,,,,,,,,,,-0.026851839,-0.384259272,0,0,0,,,,,,,MOTOR,HB,m,m,./images/MOTORHB.png,,,,,,,,,,,,,,,,,,,,,m,1,0.7487,,,,,,,,0,64,64,13,1
,,,,,,,,,,,,,,,,,5d9eb6d611b7c400172aa975,43,2022-02-12_15h03.40.371,lexical_decision_task_DD,2021.2.3,Win32,60.02040694,,,,,,,,,,,1.0758,0,,,,,,,,,,,,,,,,,,,,,,,,-0.026851839,-0.384259272,0,0,0,,,,,,,KIDNEY,C,m,m,./images/KIDNEY.png,,,,,,,,,,,,,,,,,,,,,z,0,1.0758,,,,,,,,0,65,65,21,1
,,,,,,,,,,,,,,,,,5d9eb6d611b7c400172aa975,43,2022-02-12_15h03.40.371,lexical_decision_task_DD,2021.2.3,Win32,60.02040694,,,,,,,,,,,0.7234,0,,,,,,,,,,,,,,,,,,,,,,,,-0.026851839,-0.384259272,0,0,0,,,,,,,RAZOR,HB,z,m,./images/RAZORHB.png,,,,,,,,,,,,,,,,,,,,,m,0,0.7234,,,,,,,,0,66,66,118,1
,,,,,,,,,,,,,,,,,5d9eb6d611b7c400172aa975,43,2022-02-12_15h03.40.371,lexical_decision_task_DD,2021.2.3,Win32,60.02040694,,,,,,,,,,,0.6322,1,,,,,,,,,,,,,,,,,,,,,,,,-0.026851839,-0.384259272,0,0,0,,,,,,,FALCON,HB,m,m,./images/FALCONHB.png,,,,,,,,,,,,,,,,,,,,,m,1,0.6322,,,,,,,,0,67,67,28,1
,,,,,,,,,,,,,,,,,5d9eb6d611b7c400172aa975,43,2022-02-12_15h03.40.371,lexical_decision_task_DD,2021.2.3,Win32,60.02040694,,,,,,,,,,,0.9122,0,,,,,,,,,,,,,,,,,,,,,,,,-0.026851839,-0.384259272,0,0,0,,,,,,,JUNGLE,LB,m,m,./images/JUNGLELB.png,,,,,,,,,,,,,,,,,,,,,z,0,0.9122,,,,,,,,0,68,68,83,1
,,,,,,,,,,,,,,,,,5d9eb6d611b7c400172aa975,43,2022-02-12_15h03.40.371,lexical_decision_task_DD,2021.2.3,Win32,60.02040694,,,,,,,,,,,1.0526,1,,,,,,,,,,,,,,,,,,,,,,,,-0.026851839,-0.384259272,0,0,0,,,,,,,WAGON,HB,z,m,./images/WAGONHB.png,,,,,,,,,,,,,,,,,,,,,z,1,1.0526,,,,,,,,0,69,69,91,1
,,,,,,,,,,,,,,,,,5d9eb6d611b7c400172aa975,43,2022-02-12_15h03.40.371,lexical_decision_task_DD,2021.2.3,Win32,60.02040694,,,,,,,,,,,0.5343,1,,,,,,,,,,,,,,,,,,,,,,,,-0.026851839,-0.384259272,0,0,0,,,,,,,BELLY,HB,m,m,./images/BELLYHB.png,,,,,,,,,,,,,,,,,,,,,m,1,0.5343,,,,,,,,0,70,70,10,1
,,,,,,,,,,,,,,,,,5d9eb6d611b7c400172aa975,43,2022-02-12_15h03.40.371,lexical_decision_task_DD,2021.2.3,Win32,60.02040694,,,,,,,,,,,0.7569,0,,,,,,,,,,,,,,,,,,,,,,,,-0.026851839,-0.384259272,0,0,0,,,,,,,PISTOL,LB,z,m,./images/PISTOLLB.png,,,,,,,,,,,,,,,,,,,,,m,0,0.7569,,,,,,,,0,71,71,113,1
,,,,,,,,,,,,,,,,,5d9eb6d611b7c400172aa975,43,2022-02-12_15h03.40.371,lexical_decision_task_DD,2021.2.3,Win32,60.02040694,,,,,,,,,,,0.589,1,,,,,,,,,,,,,,,,,,,,,,,,-0.026851839,-0.384259272,0,0,0,,,,,,,MIRROR,C,m,m,./images/MIRROR.png,,,,,,,,,,,,,,,,,,,,,m,1,0.589,,,,,,,,0,72,72,63,1
,,,,,,,,,,,,,,,,,5d9eb6d611b7c400172aa975,43,2022-02-12_15h03.40.371,lexical_decision_task_DD,2021.2.3,Win32,60.02040694,,,,,,,,,,,1.4126,1,,,,,,,,,,,,,,,,,,,,,,,,-0.026851839,-0.384259272,0,0,0,,,,,,,CURRY,C,z,m,./images/CURRY.png,,,,,,,,,,,,,,,,,,,,,z,1,1.4126,,,,,,,,0,73,73,144,1
,,,,,,,,,,,,,,,,,5d9eb6d611b7c400172aa975,43,2022-02-12_15h03.40.371,lexical_decision_task_DD,2021.2.3,Win32,60.02040694,,,,,,,,,,,0.7844,1,,,,,,,,,,,,,,,,,,,,,,,,-0.026851839,-0.384259272,0,0,0,,,,,,,LIZARD,LB,m,m,./images/LIZARDLB.png,,,,,,,,,,,,,,,,,,,,,m,1,0.7844,,,,,,,,0,74,74,44,1
,,,,,,,,,,,,,,,,,5d9eb6d611b7c400172aa975,43,2022-02-12_15h03.40.371,lexical_decision_task_DD,2021.2.3,Win32,60.02040694,,,,,,,,,,,1.0219,1,,,,,,,,,,,,,,,,,,,,,,,,-0.026851839,-0.384259272,0,0,0,,,,,,,PLANK,HB,m,m,./images/PLANKHB.png,,,,,,,,,,,,,,,,,,,,,m,1,1.0219,,,,,,,,0,75,75,1,1
,,,,,,,,,,,,,,,,,5d9eb6d611b7c400172aa975,43,2022-02-12_15h03.40.371,lexical_decision_task_DD,2021.2.3,Win32,60.02040694,,,,,,,,,,,0.8196,0,,,,,,,,,,,,,,,,,,,,,,,,-0.026851839,-0.384259272,0,0,0,,,,,,,SAUNA,C,z,m,./images/SAUNA.png,,,,,,,,,,,,,,,,,,,,,m,0,0.8196,,,,,,,,0,76,76,117,1
,,,,,,,,,,,,,,,,,5d9eb6d611b7c400172aa975,43,2022-02-12_15h03.40.371,lexical_decision_task_DD,2021.2.3,Win32,60.02040694,,,,,,,,,,,0.9886,0,,,,,,,,,,,,,,,,,,,,,,,,-0.026851839,-0.384259272,0,0,0,,,,,,,PAINT,HB,m,m,./images/PAINTHB.png,,,,,,,,,,,,,,,,,,,,,z,0,0.9886,,,,,,,,0,77,77,7,1
,,,,,,,,,,,,,,,,,5d9eb6d611b7c400172aa975,43,2022-02-12_15h03.40.371,lexical_decision_task_DD,2021.2.3,Win32,60.02040694,,,,,,,,,,,1.3311,1,,,,,,,,,,,,,,,,,,,,,,,,-0.026851839,-0.384259272,0,0,0,,,,,,,PEBBLE,HB,z,m,./images/PEBBLEHB.png,,,,,,,,,,,,,,,,,,,,,z,1,1.3311,,,,,,,,0,78,78,166,1
,,,,,,,,,,,,,,,,,5d9eb6d611b7c400172aa975,43,2022-02-12_15h03.40.371,lexical_decision_task_DD,2021.2.3,Win32,60.02040694,,,,,,,,,,,0.8816,1,,,,,,,,,,,,,,,,,,,,,,,,-0.026851839,-0.384259272,0,0,0,,,,,,,ATTIC,C,m,m,./images/ATTIC.png,,,,,,,,,,,,,,,,,,,,,m,1,0.8816,,,,,,,,0,79,79,27,1
,,,,,,,,,,,,,,,,,5d9eb6d611b7c400172aa975,43,2022-02-12_15h03.40.371,lexical_decision_task_DD,2021.2.3,Win32,60.02040694,,,,,,,,,,,1.3148,0,,,,,,,,,,,,,,,,,,,,,,,,-0.026851839,-0.384259272,0,0,0,,,,,,,FARMER,LB,m,m,./images/FARMERLB.png,,,,,,,,,,,,,,,,,,,,,z,0,1.3148,,,,,,,,0,80,80,65,1
,,,,,,,,,,,,,,,,,5d9eb6d611b7c400172aa975,43,2022-02-12_15h03.40.371,lexical_decision_task_DD,2021.2.3,Win32,60.02040694,,,,,,,,,,,1.7525,0,,,,,,,,,,,,,,,,,,,,,,,,-0.026851839,-0.384259272,0,0,0,,,,,,,PEARL,HB,m,m,./images/PEARLHB.png,,,,,,,,,,,,,,,,,,,,,z,0,1.7525,,,,,,,,0,81,81,46,1
,,,,,,,,,,,,,,,,,5d9eb6d611b7c400172aa975,43,2022-02-12_15h03.40.371,lexical_decision_task_DD,2021.2.3,Win32,60.02040694,,,,,,,,,,,0.9175,1,,,,,,,,,,,,,,,,,,,,,,,,-0.026851839,-0.384259272,0,0,0,,,,,,,CANDY,C,z,m,./images/CANDY.png,,,,,,,,,,,,,,,,,,,,,z,1,0.9175,,,,,,,,0,82,82,123,1
,,,,,,,,,,,,,,,,,5d9eb6d611b7c400172aa975,43,2022-02-12_15h03.40.371,lexical_decision_task_DD,2021.2.3,Win32,60.02040694,,,,,,,,,,,0.888,1,,,,,,,,,,,,,,,,,,,,,,,,-0.026851839,-0.384259272,0,0,0,space,,,,,,STOVE,LB,z,m,./images/STOVELB.png,75.1282,,,,,,,,,,,,,,,,,,,,z,1,0.888,,,,,,,,0,83,83,86,1
,,,,,,,,,,,,,,,,,5d9eb6d611b7c400172aa975,43,2022-02-12_15h03.40.371,lexical_decision_task_DD,2021.2.3,Win32,60.02040694,,,,,,,,,,,1.3189,0,,,,,,,,,,,,,,,,,,,,,,,,-0.026851839,-0.384259272,0,0,0,,,,,,,CLOWN,HB,z,m,./images/CLOWNHB.png,,,,,,,,,,,,,,,,,,,,,m,0,1.3189,,,,,,,,0,84,84,106,1
,,,,,,,,,,,,,,,,,5d9eb6d611b7c400172aa975,43,2022-02-12_15h03.40.371,lexical_decision_task_DD,2021.2.3,Win32,60.02040694,,,,,,,,,,,0.8532,0,,,,,,,,,,,,,,,,,,,,,,,,-0.026851839,-0.384259272,0,0,0,,,,,,,TIGER,HB,z,m,./images/TIGERHB.png,,,,,,,,,,,,,,,,,,,,,m,0,0.8532,,,,,,,,0,85,85,121,1
,,,,,,,,,,,,,,,,,5d9eb6d611b7c400172aa975,43,2022-02-12_15h03.40.371,lexical_decision_task_DD,2021.2.3,Win32,60.02040694,,,,,,,,,,,0.9057,1,,,,,,,,,,,,,,,,,,,,,,,,-0.026851839,-0.384259272,0,0,0,,,,,,,SMOKER,LB,m,m,./images/SMOKERLB.png,,,,,,,,,,,,,,,,,,,,,m,1,0.9057,,,,,,,,0,86,86,26,1
,,,,,,,,,,,,,,,,,5d9eb6d611b7c400172aa975,43,2022-02-12_15h03.40.371,lexical_decision_task_DD,2021.2.3,Win32,60.02040694,,,,,,,,,,,0.9338,1,,,,,,,,,,,,,,,,,,,,,,,,-0.026851839,-0.384259272,0,0,0,,,,,,,RULER,HB,z,m,./images/RULERHB.png,,,,,,,,,,,,,,,,,,,,,z,1,0.9338,,,,,,,,0,87,87,163,1
,,,,,,,,,,,,,,,,,5d9eb6d611b7c400172aa975,43,2022-02-12_15h03.40.371,lexical_decision_task_DD,2021.2.3,Win32,60.02040694,,,,,,,,,,,1.0712,0,,,,,,,,,,,,,,,,,,,,,,,,-0.026851839,-0.384259272,0,0,0,,,,,,,CARPET,LB,m,m,./images/CARPETLB.png,,,,,,,,,,,,,,,,,,,,,z,0,1.0712,,,,,,,,0,88,88,53,1
,,,,,,,,,,,,,,,,,5d9eb6d611b7c400172aa975,43,2022-02-12_15h03.40.371,lexical_decision_task_DD,2021.2.3,Win32,60.02040694,,,,,,,,,,,0.9155,1,,,,,,,,,,,,,,,,,,,,,,,,-0.026851839,-0.384259272,0,0,0,,,,,,,SWEAT,C,m,m,./images/SWEAT.png,,,,,,,,,,,,,,,,,,,,,m,1,0.9155,,,,,,,,0,89,89,66,1
,,,,,,,,,,,,,,,,,5d9eb6d611b7c400172aa975,43,2022-02-12_15h03.40.371,lexical_decision_task_DD,2021.2.3,Win32,60.02040694,,,,,,,,,,,1.3376,1,,,,,,,,,,,,,,,,,,,,,,,,-0.026851839,-0.384259272,0,0,0,,,,,,,THROAT,C,m,m,./images/THROAT.png,,,,,,,,,,,,,,,,,,,,,m,1,1.3376,,,,,,,,0,90,90,36,1
,,,,,,,,,,,,,,,,,5d9eb6d611b7c400172aa975,43,2022-02-12_15h03.40.371,lexical_decision_task_DD,2021.2.3,Win32,60.02040694,,,,,,,,,,,0.7882,0,,,,,,,,,,,,,,,,,,,,,,,,-0.026851839,-0.384259272,0,0,0,,,,,,,BEARD,LB,m,m,./images/BEARDLB.png,,,,,,,,,,,,,,,,,,,,,z,0,0.7882,,,,,,,,0,91,91,2,1
,,,,,,,,,,,,,,,,,5d9eb6d611b7c400172aa975,43,2022-02-12_15h03.40.371,lexical_decision_task_DD,2021.2.3,Win32,60.02040694,,,,,,,,,,,0.7543,0,,,,,,,,,,,,,,,,,,,,,,,,-0.026851839,-0.384259272,0,0,0,,,,,,,BIRTH,HB,m,m,./images/BIRTHHB.png,,,,,,,,,,,,,,,,,,,,,z,0,0.7543,,,,,,,,0,92,92,37,1
,,,,,,,,,,,,,,,,,5d9eb6d611b7c400172aa975,43,2022-02-12_15h03.40.371,lexical_decision_task_DD,2021.2.3,Win32,60.02040694,,,,,,,,,,,0.6477,1,,,,,,,,,,,,,,,,,,,,,,,,-0.026851839,-0.384259272,0,0,0,,,,,,,DOUGH,HB,m,m,./images/DOUGHHB.png,,,,,,,,,,,,,,,,,,,,,m,1,0.6477,,,,,,,,0,93,93,19,1
,,,,,,,,,,,,,,,,,5d9eb6d611b7c400172aa975,43,2022-02-12_15h03.40.371,lexical_decision_task_DD,2021.2.3,Win32,60.02040694,,,,,,,,,,,1.1794,1,,,,,,,,,,,,,,,,,,,,,,,,-0.026851839,-0.384259272,0,0,0,,,,,,,HOCKEY,LB,z,m,./images/HOCKEYLB.png,,,,,,,,,,,,,,,,,,,,,z,1,1.1794,,,,,,,,0,94,94,116,1
,,,,,,,,,,,,,,,,,5d9eb6d611b7c400172aa975,43,2022-02-12_15h03.40.371,lexical_decision_task_DD,2021.2.3,Win32,60.02040694,,,,,,,,,,,1.8644,1,,,,,,,,,,,,,,,,,,,,,,,,-0.026851839,-0.384259272,0,0,0,,,,,,,DRILL,C,z,m,./images/DRILL.png,,,,,,,,,,,,,,,,,,,,,z,1,1.8644,,,,,,,,0,95,95,165,1
,,,,,,,,,,,,,,,,,5d9eb6d611b7c400172aa975,43,2022-02-12_15h03.40.371,lexical_decision_task_DD,2021.2.3,Win32,60.02040694,,,,,,,,,,,0.9308,1,,,,,,,,,,,,,,,,,,,,,,,,-0.026851839,-0.384259272,0,0,0,,,,,,,COUCH,LB,m,m,./images/COUCHLB.png,,,,,,,,,,,,,,,,,,,,,m,1,0.9308,,,,,,,,0,96,96,77,1
,,,,,,,,,,,,,,,,,5d9eb6d611b7c400172aa975,43,2022-02-12_15h03.40.371,lexical_decision_task_DD,2021.2.3,Win32,60.02040694,,,,,,,,,,,0.847,0,,,,,,,,,,,,,,,,,,,,,,,,-0.026851839,-0.384259272,0,0,0,,,,,,,CRUST,HB,m,m,./images/CRUSTHB.png,,,,,,,,,,,,,,,,,,,,,z,0,0.847,,,,,,,,0,97,97,79,1
,,,,,,,,,,,,,,,,,5d9eb6d611b7c400172aa975,43,2022-02-12_15h03.40.371,lexical_decision_task_DD,2021.2.3,Win32,60.02040694,,,,,,,,,,,0.7665,0,,,,,,,,,,,,,,,,,,,,,,,,-0.026851839,-0.384259272,0,0,0,,,,,,,BAMBOO,LB,z,m,./images/BAMBOOLB.png,,,,,,,,,,,,,,,,,,,,,m,0,0.7665,,,,,,,,0,98,98,89,1
,,,,,,,,,,,,,,,,,5d9eb6d611b7c400172aa975,43,2022-02-12_15h03.40.371,lexical_decision_task_DD,2021.2.3,Win32,60.02040694,,,,,,,,,,,0.6851,0,,,,,,,,,,,,,,,,,,,,,,,,-0.026851839,-0.384259272,0,0,0,,,,,,,PILOT,LB,z,m,./images/PILOTLB.png,,,,,,,,,,,,,,,,,,,,,m,0,0.6851,,,,,,,,0,99,99,134,1
,,,,,,,,,,,,,,,,,5d9eb6d611b7c400172aa975,43,2022-02-12_15h03.40.371,lexical_decision_task_DD,2021.2.3,Win32,60.02040694,,,,,,,,,,,0.8023,0,,,,,,,,,,,,,,,,,,,,,,,,-0.026851839,-0.384259272,0,0,0,,,,,,,CANOE,HB,z,m,./images/CANOEHB.png,,,,,,,,,,,,,,,,,,,,,m,0,0.8023,,,,,,,,0,100,100,142,1
,,,,,,,,,,,,,,,,,5d9eb6d611b7c400172aa975,43,2022-02-12_15h03.40.371,lexical_decision_task_DD,2021.2.3,Win32,60.02040694,,,,,,,,,,,0.7357,0,,,,,,,,,,,,,,,,,,,,,,,,-0.026851839,-0.384259272,0,0,0,,,,,,,HAMMER,C,z,m,./images/HAMMER.png,,,,,,,,,,,,,,,,,,,,,m,0,0.7357,,,,,,,,0,101,101,159,1
,,,,,,,,,,,,,,,,,5d9eb6d611b7c400172aa975,43,2022-02-12_15h03.40.371,lexical_decision_task_DD,2021.2.3,Win32,60.02040694,,,,,,,,,,,1.7344,0,,,,,,,,,,,,,,,,,,,,,,,,-0.026851839,-0.384259272,0,0,0,,,,,,,MAMMAL,LB,z,m,./images/MAMMALLB.png,,,,,,,,,,,,,,,,,,,,,m,0,1.7344,,,,,,,,0,102,102,146,1
,,,,,,,,,,,,,,,,,5d9eb6d611b7c400172aa975,43,2022-02-12_15h03.40.371,lexical_decision_task_DD,2021.2.3,Win32,60.02040694,,,,,,,,,,,0.9513,1,,,,,,,,,,,,,,,,,,,,,,,,-0.026851839,-0.384259272,0,0,0,,,,,,,BANANA,HB,z,m,./images/BANANAHB.png,,,,,,,,,,,,,,,,,,,,,z,1,0.9513,,,,,,,,0,103,103,154,1
,,,,,,,,,,,,,,,,,5d9eb6d611b7c400172aa975,43,2022-02-12_15h03.40.371,lexical_decision_task_DD,2021.2.3,Win32,60.02040694,,,,,,,,,,,0.7385,1,,,,,,,,,,,,,,,,,,,,,,,,-0.026851839,-0.384259272,0,0,0,,,,,,,BUTTER,C,z,m,./images/BUTTER.png,,,,,,,,,,,,,,,,,,,,,z,1,0.7385,,,,,,,,0,104,104,111,1
,,,,,,,,,,,,,,,,,5d9eb6d611b7c400172aa975,43,2022-02-12_15h03.40.371,lexical_decision_task_DD,2021.2.3,Win32,60.02040694,,,,,,,,,,,0.6545,1,,,,,,,,,,,,,,,,,,,,,,,,-0.026851839,-0.384259272,0,0,0,,,,,,,MOSQUE,HB,m,m,./images/MOSQUEHB.png,,,,,,,,,,,,,,,,,,,,,m,1,0.6545,,,,,,,,0,105,105,43,1
,,,,,,,,,,,,,,,,,5d9eb6d611b7c400172aa975,43,2022-02-12_15h03.40.371,lexical_decision_task_DD,2021.2.3,Win32,60.02040694,,,,,,,,,,,1.6208,1,,,,,,,,,,,,,,,,,,,,,,,,-0.026851839,-0.384259272,0,0,0,,,,,,,STREAM,LB,z,m,./images/STREAMLB.png,,,,,,,,,,,,,,,,,,,,,z,1,1.6208,,,,,,,,0,106,106,125,1
,,,,,,,,,,,,,,,,,5d9eb6d611b7c400172aa975,43,2022-02-12_15h03.40.371,lexical_decision_task_DD,2021.2.3,Win32,60.02040694,,,,,,,,,,,0.9729,1,,,,,,,,,,,,,,,,,,,,,,,,-0.026851839,-0.384259272,0,0,0,,,,,,,PARADE,LB,z,m,./images/PARADELB.png,,,,,,,,,,,,,,,,,,,,,z,1,0.9729,,,,,,,,0,107,107,101,1
,,,,,,,,,,,,,,,,,5d9eb6d611b7c400172aa975,43,2022-02-12_15h03.40.371,lexical_decision_task_DD,2021.2.3,Win32,60.02040694,,,,,,,,,,,0.8759,0,,,,,,,,,,,,,,,,,,,,,,,,-0.026851839,-0.384259272,0,0,0,,,,,,,WHEEL,LB,z,m,./images/WHEELLB.png,,,,,,,,,,,,,,,,,,,,,m,0,0.8759,,,,,,,,0,108,108,161,1
,,,,,,,,,,,,,,,,,5d9eb6d611b7c400172aa975,43,2022-02-12_15h03.40.371,lexical_decision_task_DD,2021.2.3,Win32,60.02040694,,,,,,,,,,,0.8306,0,,,,,,,,,,,,,,,,,,,,,,,,-0.026851839,-0.384259272,0,0,0,,,,,,,PACKET,LB,m,m,./images/PACKETLB.png,,,,,,,,,,,,,,,,,,,,,z,0,0.8306,,,,,,,,0,109,109,56,1
,,,,,,,,,,,,,,,,,5d9eb6d611b7c400172aa975,43,2022-02-12_15h03.40.371,lexical_decision_task_DD,2021.2.3,Win32,60.02040694,,,,,,,,,,,0.8005,1,,,,,,,,,,,,,,,,,,,,,,,,-0.026851839,-0.384259272,0,0,0,,,,,,,BRIDE,HB,z,m,./images/BRIDEHB.png,,,,,,,,,,,,,,,,,,,,,z,1,0.8005,,,,,,,,0,110,110,148,1
,,,,,,,,,,,,,,,,,5d9eb6d611b7c400172aa975,43,2022-02-12_15h03.40.371,lexical_decision_task_DD,2021.2.3,Win32,60.02040694,,,,,,,,,,,0.935,1,,,,,,,,,,,,,,,,,,,,,,,,-0.026851839,-0.384259272,0,0,0,,,,,,,MUFFIN,HB,m,m,./images/MUFFINHB.png,,,,,,,,,,,,,,,,,,,,,m,1,0.935,,,,,,,,0,111,111,55,1
,,,,,,,,,,,,,,,,,5d9eb6d611b7c400172aa975,43,2022-02-12_15h03.40.371,lexical_decision_task_DD,2021.2.3,Win32,60.02040694,,,,,,,,,,,0.9956,1,,,,,,,,,,,,,,,,,,,,,,,,-0.026851839,-0.384259272,0,0,0,,,,,,,NOOSE,C,m,m,./images/NOOSE.png,,,,,,,,,,,,,,,,,,,,,m,1,0.9956,,,,,,,,0,112,112,72,1
,,,,,,,,,,,,,,,,,5d9eb6d611b7c400172aa975,43,2022-02-12_15h03.40.371,lexical_decision_task_DD,2021.2.3,Win32,60.02040694,,,,,,,,,,,0.7686,1,,,,,,,,,,,,,,,,,,,,,,,,-0.026851839,-0.384259272,0,0,0,,,,,,,LLAMA,LB,z,m,./images/LLAMALB.png,,,,,,,,,,,,,,,,,,,,,z,1,0.7686,,,,,,,,0,113,113,119,1
,,,,,,,,,,,,,,,,,5d9eb6d611b7c400172aa975,43,2022-02-12_15h03.40.371,lexical_decision_task_DD,2021.2.3,Win32,60.02040694,,,,,,,,,,,1.1605,1,,,,,,,,,,,,,,,,,,,,,,,,-0.026851839,-0.384259272,0,0,0,,,,,,,CLOUD,LB,z,m,./images/CLOUDLB.png,,,,,,,,,,,,,,,,,,,,,z,1,1.1605,,,,,,,,0,114,114,110,1
,,,,,,,,,,,,,,,,,5d9eb6d611b7c400172aa975,43,2022-02-12_15h03.40.371,lexical_decision_task_DD,2021.2.3,Win32,60.02040694,,,,,,,,,,,0.7399,0,,,,,,,,,,,,,,,,,,,,,,,,-0.026851839,-0.384259272,0,0,0,,,,,,,PARCEL,C,z,m,./images/PARCEL.png,,,,,,,,,,,,,,,,,,,,,m,0,0.7399,,,,,,,,0,115,115,102,1
,,,,,,,,,,,,,,,,,5d9eb6d611b7c400172aa975,43,2022-02-12_15h03.40.371,lexical_decision_task_DD,2021.2.3,Win32,60.02040694,,,,,,,,,,,2.2016,1,,,,,,,,,,,,,,,,,,,,,,,,-0.026851839,-0.384259272,0,0,0,,,,,,,BAKER,C,z,m,./images/BAKER.png,,,,,,,,,,,,,,,,,,,,,z,1,2.2016,,,,,,,,0,116,116,147,1
,,,,,,,,,,,,,,,,,5d9eb6d611b7c400172aa975,43,2022-02-12_15h03.40.371,lexical_decision_task_DD,2021.2.3,Win32,60.02040694,,,,,,,,,,,0.9903,1,,,,,,,,,,,,,,,,,,,,,,,,-0.026851839,-0.384259272,0,0,0,,,,,,,SHELF,C,m,m,./images/SHELF.png,,,,,,,,,,,,,,,,,,,,,m,1,0.9903,,,,,,,,0,117,117,39,1
,,,,,,,,,,,,,,,,,5d9eb6d611b7c400172aa975,43,2022-02-12_15h03.40.371,lexical_decision_task_DD,2021.2.3,Win32,60.02040694,,,,,,,,,,,0.9344,1,,,,,,,,,,,,,,,,,,,,,,,,-0.026851839,-0.384259272,0,0,0,,,,,,,BOILER,C,z,m,./images/BOILER.png,,,,,,,,,,,,,,,,,,,,,z,1,0.9344,,,,,,,,0,118,118,120,1
,,,,,,,,,,,,,,,,,5d9eb6d611b7c400172aa975,43,2022-02-12_15h03.40.371,lexical_decision_task_DD,2021.2.3,Win32,60.02040694,,,,,,,,,,,0.7833,1,,,,,,,,,,,,,,,,,,,,,,,,-0.026851839,-0.384259272,0,0,0,,,,,,,DRUMS,HB,m,m,./images/DRUMSHB.png,,,,,,,,,,,,,,,,,,,,,m,1,0.7833,,,,,,,,0,119,119,49,1
,,,,,,,,,,,,,,,,,5d9eb6d611b7c400172aa975,43,2022-02-12_15h03.40.371,lexical_decision_task_DD,2021.2.3,Win32,60.02040694,,,,,,,,,,,1.1552,1,,,,,,,,,,,,,,,,,,,,,,,,-0.026851839,-0.384259272,0,0,0,,,,,,,VALLEY,LB,z,m,./images/VALLEYLB.png,,,,,,,,,,,,,,,,,,,,,z,1,1.1552,,,,,,,,0,120,120,152,1
,,,,,,,,,,,,,,,,,5d9eb6d611b7c400172aa975,43,2022-02-12_15h03.40.371,lexical_decision_task_DD,2021.2.3,Win32,60.02040694,,,,,,,,,,,1.8838,1,,,,,,,,,,,,,,,,,,,,,,,,-0.026851839,-0.384259272,0,0,0,,,,,,,CLOTH,LB,z,m,./images/CLOTHLB.png,,,,,,,,,,,,,,,,,,,,,z,1,1.8838,,,,,,,,0,121,121,107,1
,,,,,,,,,,,,,,,,,5d9eb6d611b7c400172aa975,43,2022-02-12_15h03.40.371,lexical_decision_task_DD,2021.2.3,Win32,60.02040694,,,,,,,,,,,0.8143,1,,,,,,,,,,,,,,,,,,,,,,,,-0.026851839,-0.384259272,0,0,0,,,,,,,SNACK,HB,m,m,./images/SNACKHB.png,,,,,,,,,,,,,,,,,,,,,m,1,0.8143,,,,,,,,0,122,122,73,1
,,,,,,,,,,,,,,,,,5d9eb6d611b7c400172aa975,43,2022-02-12_15h03.40.371,lexical_decision_task_DD,2021.2.3,Win32,60.02040694,,,,,,,,,,,1.6563,1,,,,,,,,,,,,,,,,,,,,,,,,-0.026851839,-0.384259272,0,0,0,,,,,,,JUMPER,LB,z,m,./images/JUMPERLB.png,,,,,,,,,,,,,,,,,,,,,z,1,1.6563,,,,,,,,0,123,123,158,1
,,,,,,,,,,,,,,,,,5d9eb6d611b7c400172aa975,43,2022-02-12_15h03.40.371,lexical_decision_task_DD,2021.2.3,Win32,60.02040694,,,,,,,,,,,0.9893,1,,,,,,,,,,,,,,,,,,,,,,,,-0.026851839,-0.384259272,0,0,0,,,,,,,DONKEY,HB,z,m,./images/DONKEYHB.png,,,,,,,,,,,,,,,,,,,,,z,1,0.9893,,,,,,,,0,124,124,103,1
,,,,,,,,,,,,,,,,,5d9eb6d611b7c400172aa975,43,2022-02-12_15h03.40.371,lexical_decision_task_DD,2021.2.3,Win32,60.02040694,,,,,,,,,,,0.5687,1,,,,,,,,,,,,,,,,,,,,,,,,-0.026851839,-0.384259272,0,0,0,space,,,,,,ONION,C,m,m,./images/ONION.png,4.2378,,,,,,,,,,,,,,,,,,,,m,1,0.5687,,,,,,,,0,125,125,51,1
,,,,,,,,,,,,,,,,,5d9eb6d611b7c400172aa975,43,2022-02-12_15h03.40.371,lexical_decision_task_DD,2021.2.3,Win32,60.02040694,,,,,,,,,,,1.3635,1,,,,,,,,,,,,,,,,,,,,,,,,-0.026851839,-0.384259272,0,0,0,,,,,,,URINE,HB,m,m,./images/URINEHB.png,,,,,,,,,,,,,,,,,,,,,m,1,1.3635,,,,,,,,0,126,126,70,1
,,,,,,,,,,,,,,,,,5d9eb6d611b7c400172aa975,43,2022-02-12_15h03.40.371,lexical_decision_task_DD,2021.2.3,Win32,60.02040694,,,,,,,,,,,0.6015,1,,,,,,,,,,,,,,,,,,,,,,,,-0.026851839,-0.384259272,0,0,0,,,,,,,BARREL,LB,m,m,./images/BARRELLB.png,,,,,,,,,,,,,,,,,,,,,m,1,0.6015,,,,,,,,0,127,127,32,1
,,,,,,,,,,,,,,,,,5d9eb6d611b7c400172aa975,43,2022-02-12_15h03.40.371,lexical_decision_task_DD,2021.2.3,Win32,60.02040694,,,,,,,,,,,0.8025,1,,,,,,,,,,,,,,,,,,,,,,,,-0.026851839,-0.384259272,0,0,0,,,,,,,STEAK,HB,z,m,./images/STEAKHB.png,,,,,,,,,,,,,,,,,,,,,z,1,0.8025,,,,,,,,0,128,128,115,1
,,,,,,,,,,,,,,,,,5d9eb6d611b7c400172aa975,43,2022-02-12_15h03.40.371,lexical_decision_task_DD,2021.2.3,Win32,60.02040694,,,,,,,,,,,1.0518,1,,,,,,,,,,,,,,,,,,,,,,,,-0.026851839,-0.384259272,0,0,0,,,,,,,SUNSET,HB,m,m,./images/SUNSETHB.png,,,,,,,,,,,,,,,,,,,,,m,1,1.0518,,,,,,,,0,129,129,82,1
,,,,,,,,,,,,,,,,,5d9eb6d611b7c400172aa975,43,2022-02-12_15h03.40.371,lexical_decision_task_DD,2021.2.3,Win32,60.02040694,,,,,,,,,,,0.7665,1,,,,,,,,,,,,,,,,,,,,,,,,-0.026851839,-0.384259272,0,0,0,,,,,,,MAGGOT,C,m,m,./images/MAGGOT.png,,,,,,,,,,,,,,,,,,,,,m,1,0.7665,,,,,,,,0,130,130,33,1
,,,,,,,,,,,,,,,,,5d9eb6d611b7c400172aa975,43,2022-02-12_15h03.40.371,lexical_decision_task_DD,2021.2.3,Win32,60.02040694,,,,,,,,,,,0.9285,1,,,,,,,,,,,,,,,,,,,,,,,,-0.026851839,-0.384259272,0,0,0,,,,,,,PENCE,HB,m,m,./images/PENCEHB.png,,,,,,,,,,,,,,,,,,,,,m,1,0.9285,,,,,,,,0,131,131,16,1
,,,,,,,,,,,,,,,,,5d9eb6d611b7c400172aa975,43,2022-02-12_15h03.40.371,lexical_decision_task_DD,2021.2.3,Win32,60.02040694,,,,,,,,,,,0.9818,0,,,,,,,,,,,,,,,,,,,,,,,,-0.026851839,-0.384259272,0,0,0,,,,,,,COLLAR,C,z,m,./images/COLLAR.png,,,,,,,,,,,,,,,,,,,,,m,0,0.9818,,,,,,,,0,132,132,99,1
,,,,,,,,,,,,,,,,,5d9eb6d611b7c400172aa975,43,2022-02-12_15h03.40.371,lexical_decision_task_DD,2021.2.3,Win32,60.02040694,,,,,,,,,,,1.5356,1,,,,,,,,,,,,,,,,,,,,,,,,-0.026851839,-0.384259272,0,0,0,,,,,,,COOKER,C,m,m,./images/COOKER.png,,,,,,,,,,,,,,,,,,,,,m,1,1.5356,,,,,,,,0,133,133,69,1
,,,,,,,,,,,,,,,,,5d9eb6d611b7c400172aa975,43,2022-02-12_15h03.40.371,lexical_decision_task_DD,2021.2.3,Win32,60.02040694,,,,,,,,,,,1.0017,1,,,,,,,,,,,,,,,,,,,,,,,,-0.026851839,-0.384259272,0,0,0,,,,,,,MIDGET,HB,z,m,./images/MIDGETHB.png,,,,,,,,,,,,,,,,,,,,,z,1,1.0017,,,,,,,,0,134,134,160,1
