key_resp.keys,key_resp.rt,instr_done_touch.x,instr_done_touch.y,instr_done_touch.leftButton,instr_done_touch.midButton,instr_done_touch.rightButton,instruction_pages.thisRepN,instruction_pages.thisTrialN,instruction_pages.thisN,instruction_pages.thisIndex,instruction_pages.ran,pageN,phase,instruct_text,has_image,instruct_image,participant,age,date,expName,psychopyVersion,OS,frameRate,instr_done_touch.clicked_name,response.keys,response.corr,response.rt,touch_resp.x,touch_resp.y,touch_resp.leftButton,touch_resp.midButton,touch_resp.rightButton,touch_resp.time,touch_resp.clicked_name,rt,corr,practrials.thisRepN,practrials.thisTrialN,practrials.thisN,practrials.thisIndex,practrials.ran,TrialID,Target,corrAns,end_of_practice_trials_pages.thisRepN,end_of_practice_trials_pages.thisTrialN,end_of_practice_trials_pages.thisN,end_of_practice_trials_pages.thisIndex,end_of_practice_trials_pages.ran,key_resp_2.keys,key_resp_2.corr,key_resp_2.rt,targ_click.x,targ_click.y,targ_click.leftButton,targ_click.midButton,targ_click.rightButton,targ_click.time,targ_click.clicked_name,break_done_touch.x,break_done_touch.y,break_done_touch.leftButton,break_done_touch.midButton,break_done_touch.rightButton,break_done_keyboard.keys,maintrials.thisRepN,maintrials.thisTrialN,maintrials.thisN,maintrials.thisIndex,maintrials.ran,string,blur,study,lex,stim_path,break_done_keyboard.rt,mouse_2.x,mouse_2.y,mouse_2.leftButton,mouse_2.midButton,mouse_2.rightButton,mouse_2.clicked_name,slider.response,slider.rt,trials.thisRepN,trials.thisTrialN,trials.thisN,trials.thisIndex,trials.ran,test_instructions.thisRepN,test_instructions.thisTrialN,test_instructions.thisN,test_instructions.thisIndex,test_instructions.ran,key_resp_3.keys,key_resp_3.corr,key_resp_3.rt,test_click.x,test_click.y,test_click.leftButton,test_click.midButton,test_click.rightButton,test_click.time,test_click.clicked_name,test_phase.thisRepN,test_phase.thisTrialN,test_phase.thisN,test_phase.thisIndex,test_phase.ran,break_done_touch.clicked_name
space,22.4514,0.061197917,-0.38671875,0,0,0,0,0,0,0,1,1,instructions,"INSTRUCTIONS
At the start of each trial, look at the plus sign  (+) in the center of the screen.  This tells you that a trial is about to begin and where to look. Second, the plus sign will disappear and a string of letters will appear. Your task is to determine if the string of letters is a word or not. If the item is a word press the M key (on keyboard)  or touch the word button (phone/tablet).  If the item is not a word,  press the  Z key (on keyboard)  or touch the nonword button (on phone/tablet). 
Press the space bar or touch  continue.",0,,5e35a96ecf931055fb891c54,41,2022-02-12_16h21.42.933,lexical_decision_task_DD,2021.2.3,Win32,60.09254252,,,,,,,,,,,,,,,,,,,,,,,,,,,,,,,,,,,,,,,,,,,,,,,,,,,,,,,,,,,,,,,,,,,,,,,,,,,,,,,,,,,,,,,
,,0.024739583,-0.399739583,1,0,0,0,1,1,1,1,2,instructions,"If your device has a keyboard, press the 'Z' key for nonwords and the 'M' key for words.





Press the space bar or touch the button below to continue.",0,keyboard-example.gif,5e35a96ecf931055fb891c54,41,2022-02-12_16h21.42.933,lexical_decision_task_DD,2021.2.3,Win32,60.09254252,instr_done_button,,,,,,,,,,,,,,,,,,,,,,,,,,,,,,,,,,,,,,,,,,,,,,,,,,,,,,,,,,,,,,,,,,,,,,,,,,,,,,,,,,,,,,
space,1.3144,0.024739583,-0.399739583,0,0,0,0,2,2,2,1,3,instructions,"If you are using a touchscreen only device, use the buttons on the screen. Do not use the mouse.





Press the space bar or touch the button below to continue.",0,touchscreen-example.gif,5e35a96ecf931055fb891c54,41,2022-02-12_16h21.42.933,lexical_decision_task_DD,2021.2.3,Win32,60.09254252,,,,,,,,,,,,,,,,,,,,,,,,,,,,,,,,,,,,,,,,,,,,,,,,,,,,,,,,,,,,,,,,,,,,,,,,,,,,,,,,,,,,,,,
space,3.1638,0.024739583,-0.399739583,0,0,0,0,3,3,3,1,4,instructions,"It is very important that you respond as quickly and accurately as possible, as each letter string will only be on the screen for two seconds. If you do not respond within this time, the message 'Too slow!' will be displayed and the experiment will progress to the next letter string. The first 20 trials will be practice trials and you will receive feedback on your answers. 

Press the space bar or touch the button below to start the practice trials.",0,,5e35a96ecf931055fb891c54,41,2022-02-12_16h21.42.933,lexical_decision_task_DD,2021.2.3,Win32,60.09254252,,,,,,,,,,,,,,,,,,,,,,,,,,,,,,,,,,,,,,,,,,,,,,,,,,,,,,,,,,,,,,,,,,,,,,,,,,,,,,,,,,,,,,,
,,,,,,,,,,,,,,,,,5e35a96ecf931055fb891c54,41,2022-02-12_16h21.42.933,lexical_decision_task_DD,2021.2.3,Win32,60.09254252,,m,1,0.9842,,,,,,,,0.9842,1,0,0,0,1,1,1001,ADJUST,m,,,,,,,,,,,,,,,,,,,,,,,,,,,,,,,,,,,,,,,,,,,,,,,,,,,,,,,,,,,,,,,,,,
,,,,,,,,,,,,,,,,,5e35a96ecf931055fb891c54,41,2022-02-12_16h21.42.933,lexical_decision_task_DD,2021.2.3,Win32,60.09254252,,m,1,0.648,,,,,,,,0.648,1,0,1,1,5,1,1001,OBTAIN,m,,,,,,,,,,,,,,,,,,,,,,,,,,,,,,,,,,,,,,,,,,,,,,,,,,,,,,,,,,,,,,,,,,
,,,,,,,,,,,,,,,,,5e35a96ecf931055fb891c54,41,2022-02-12_16h21.42.933,lexical_decision_task_DD,2021.2.3,Win32,60.09254252,,m,0,1.5854,,,,,,,,1.5854,0,0,2,2,10,1,1001,INLADE,z,,,,,,,,,,,,,,,,,,,,,,,,,,,,,,,,,,,,,,,,,,,,,,,,,,,,,,,,,,,,,,,,,,
,,,,,,,,,,,,,,,,,5e35a96ecf931055fb891c54,41,2022-02-12_16h21.42.933,lexical_decision_task_DD,2021.2.3,Win32,60.09254252,,z,1,0.9379,,,,,,,,0.9379,1,0,3,3,8,1,1001,ASLERT,z,,,,,,,,,,,,,,,,,,,,,,,,,,,,,,,,,,,,,,,,,,,,,,,,,,,,,,,,,,,,,,,,,,
,,,,,,,,,,,,,,,,,5e35a96ecf931055fb891c54,41,2022-02-12_16h21.42.933,lexical_decision_task_DD,2021.2.3,Win32,60.09254252,,m,1,0.6624,,,,,,,,0.6624,1,0,4,4,4,1,1001,SQUEAK,m,,,,,,,,,,,,,,,,,,,,,,,,,,,,,,,,,,,,,,,,,,,,,,,,,,,,,,,,,,,,,,,,,,
,,,,,,,,,,,,,,,,,5e35a96ecf931055fb891c54,41,2022-02-12_16h21.42.933,lexical_decision_task_DD,2021.2.3,Win32,60.09254252,,m,1,0.9119,,,,,,,,0.9119,1,0,5,5,0,1,1001,UTOPIA,m,,,,,,,,,,,,,,,,,,,,,,,,,,,,,,,,,,,,,,,,,,,,,,,,,,,,,,,,,,,,,,,,,,
,,,,,,,,,,,,,,,,,5e35a96ecf931055fb891c54,41,2022-02-12_16h21.42.933,lexical_decision_task_DD,2021.2.3,Win32,60.09254252,,m,1,0.8918,,,,,,,,0.8918,1,0,6,6,2,1,1001,ALMOND,m,,,,,,,,,,,,,,,,,,,,,,,,,,,,,,,,,,,,,,,,,,,,,,,,,,,,,,,,,,,,,,,,,,
,,,,,,,,,,,,,,,,,5e35a96ecf931055fb891c54,41,2022-02-12_16h21.42.933,lexical_decision_task_DD,2021.2.3,Win32,60.09254252,,z,1,0.7639,,,,,,,,0.7639,1,0,7,7,14,1,1001,THRALE,z,,,,,,,,,,,,,,,,,,,,,,,,,,,,,,,,,,,,,,,,,,,,,,,,,,,,,,,,,,,,,,,,,,
,,,,,,,,,,,,,,,,,5e35a96ecf931055fb891c54,41,2022-02-12_16h21.42.933,lexical_decision_task_DD,2021.2.3,Win32,60.09254252,,m,1,0.6303,,,,,,,,0.6303,1,0,8,8,7,1,1001,VOLUME,m,,,,,,,,,,,,,,,,,,,,,,,,,,,,,,,,,,,,,,,,,,,,,,,,,,,,,,,,,,,,,,,,,,
,,,,,,,,,,,,,,,,,5e35a96ecf931055fb891c54,41,2022-02-12_16h21.42.933,lexical_decision_task_DD,2021.2.3,Win32,60.09254252,,z,1,0.898,,,,,,,,0.898,1,0,9,9,13,1,1001,ROUPET,z,,,,,,,,,,,,,,,,,,,,,,,,,,,,,,,,,,,,,,,,,,,,,,,,,,,,,,,,,,,,,,,,,,
,,,,,,,,,,,,,,,,,5e35a96ecf931055fb891c54,41,2022-02-12_16h21.42.933,lexical_decision_task_DD,2021.2.3,Win32,60.09254252,,z,1,0.9139,,,,,,,,0.9139,1,0,10,10,11,1,1001,RASHET,z,,,,,,,,,,,,,,,,,,,,,,,,,,,,,,,,,,,,,,,,,,,,,,,,,,,,,,,,,,,,,,,,,,
,,,,,,,,,,,,,,,,,5e35a96ecf931055fb891c54,41,2022-02-12_16h21.42.933,lexical_decision_task_DD,2021.2.3,Win32,60.09254252,,z,1,1.0504,,,,,,,,1.0504,1,0,11,11,12,1,1001,SPRINY,z,,,,,,,,,,,,,,,,,,,,,,,,,,,,,,,,,,,,,,,,,,,,,,,,,,,,,,,,,,,,,,,,,,
,,,,,,,,,,,,,,,,,5e35a96ecf931055fb891c54,41,2022-02-12_16h21.42.933,lexical_decision_task_DD,2021.2.3,Win32,60.09254252,,z,1,0.7339,,,,,,,,0.7339,1,0,12,12,15,1,1001,WHAISE,z,,,,,,,,,,,,,,,,,,,,,,,,,,,,,,,,,,,,,,,,,,,,,,,,,,,,,,,,,,,,,,,,,,
,,,,,,,,,,,,,,,,,5e35a96ecf931055fb891c54,41,2022-02-12_16h21.42.933,lexical_decision_task_DD,2021.2.3,Win32,60.09254252,,m,1,0.6496,,,,,,,,0.6496,1,0,13,13,6,1,1001,ZOMBIE,m,,,,,,,,,,,,,,,,,,,,,,,,,,,,,,,,,,,,,,,,,,,,,,,,,,,,,,,,,,,,,,,,,,
,,,,,,,,,,,,,,,,,5e35a96ecf931055fb891c54,41,2022-02-12_16h21.42.933,lexical_decision_task_DD,2021.2.3,Win32,60.09254252,,m,1,0.7866,,,,,,,,0.7866,1,0,14,14,3,1,1001,MATRIX,m,,,,,,,,,,,,,,,,,,,,,,,,,,,,,,,,,,,,,,,,,,,,,,,,,,,,,,,,,,,,,,,,,,
,,,,,,,,,,,,,,,,,5e35a96ecf931055fb891c54,41,2022-02-12_16h21.42.933,lexical_decision_task_DD,2021.2.3,Win32,60.09254252,,z,1,0.8993,,,,,,,,0.8993,1,0,15,15,9,1,1001,FARINY,z,,,,,,,,,,,,,,,,,,,,,,,,,,,,,,,,,,,,,,,,,,,,,,,,,,,,,,,,,,,,,,,,,,
space,2.4016,0.024739583,-0.399739583,0,0,0,,,,,,1,end_of_practice,"You have completed the practice trials. During the experimental trials, you will not receive feedback. 
Before you begin, please ensure that you are in a comfortable and quiet location and will not be disturbed for about 15 minutes, as we cannot use your data if you do not complete all the trials. 
 When you are ready to start the experimental trials, please press space or touch the button below.",,,5e35a96ecf931055fb891c54,41,2022-02-12_16h21.42.933,lexical_decision_task_DD,2021.2.3,Win32,60.09254252,,,,,,,,,,,,,,,,,,,,,,0,0,0,0,1,,,,,,,,,,,,,,,,,,,,,,,,,,,,,,,,,,,,,,,,,,,,,,,,,,,,,,,,,,,,,
,,,,,,,,,,,,,,,,,5e35a96ecf931055fb891c54,41,2022-02-12_16h21.42.933,lexical_decision_task_DD,2021.2.3,Win32,60.09254252,,,,,,,,,,,,1.4659,1,,,,,,,,,,,,,,z,1,1.4659,,,,,,,,0.024739583,-0.399739583,0,0,0,,0,0,0,114,1,RIKES,C,old,z,./images/RIKES.png,,,,,,,,,,,,,,,,,,,,,,,,,,,,,,,,,,,
,,,,,,,,,,,,,,,,,5e35a96ecf931055fb891c54,41,2022-02-12_16h21.42.933,lexical_decision_task_DD,2021.2.3,Win32,60.09254252,,,,,,,,,,,,0.6925,1,,,,,,,,,,,,,,m,1,0.6925,,,,,,,,0.024739583,-0.399739583,0,0,0,,0,1,1,6,1,SQUARE,C,old,m,./images/SQUARE.png,,,,,,,,,,,,,,,,,,,,,,,,,,,,,,,,,,,
,,,,,,,,,,,,,,,,,5e35a96ecf931055fb891c54,41,2022-02-12_16h21.42.933,lexical_decision_task_DD,2021.2.3,Win32,60.09254252,,,,,,,,,,,,2.5265,1,,,,,,,,,,,,,,m,1,2.5265,,,,,,,,0.024739583,-0.399739583,0,0,0,,0,2,2,79,1,CRUST,HB,old,m,./images/CRUSTHB.png,,,,,,,,,,,,,,,,,,,,,,,,,,,,,,,,,,,
,,,,,,,,,,,,,,,,,5e35a96ecf931055fb891c54,41,2022-02-12_16h21.42.933,lexical_decision_task_DD,2021.2.3,Win32,60.09254252,,,,,,,,,,,,3.4379,1,,,,,,,,,,,,,,z,1,3.4379,,,,,,,,0.024739583,-0.399739583,0,0,0,,0,3,3,166,1,SHORY,HB,old,z,./images/SHORYHB.png,,,,,,,,,,,,,,,,,,,,,,,,,,,,,,,,,,,
,,,,,,,,,,,,,,,,,5e35a96ecf931055fb891c54,41,2022-02-12_16h21.42.933,lexical_decision_task_DD,2021.2.3,Win32,60.09254252,,,,,,,,,,,,1.2577,1,,,,,,,,,,,,,,m,1,1.2577,,,,,,,,0.024739583,-0.399739583,0,0,0,,0,4,4,53,1,CARPET,LB,old,m,./images/CARPETLB.png,,,,,,,,,,,,,,,,,,,,,,,,,,,,,,,,,,,
,,,,,,,,,,,,,,,,,5e35a96ecf931055fb891c54,41,2022-02-12_16h21.42.933,lexical_decision_task_DD,2021.2.3,Win32,60.09254252,,,,,,,,,,,,0.8086,1,,,,,,,,,,,,,,z,1,0.8086,,,,,,,,0.024739583,-0.399739583,0,0,0,,0,5,5,138,1,PLICE,C,old,z,./images/PLICE.png,,,,,,,,,,,,,,,,,,,,,,,,,,,,,,,,,,,
,,,,,,,,,,,,,,,,,5e35a96ecf931055fb891c54,41,2022-02-12_16h21.42.933,lexical_decision_task_DD,2021.2.3,Win32,60.09254252,,,,,,,,,,,,1.0507,1,,,,,,,,,,,,,,m,1,1.0507,,,,,,,,0.024739583,-0.399739583,0,0,0,,0,6,6,47,1,BERRY,LB,old,m,./images/BERRYLB.png,,,,,,,,,,,,,,,,,,,,,,,,,,,,,,,,,,,
,,,,,,,,,,,,,,,,,5e35a96ecf931055fb891c54,41,2022-02-12_16h21.42.933,lexical_decision_task_DD,2021.2.3,Win32,60.09254252,,,,,,,,,,,,0.85,1,,,,,,,,,,,,,,z,1,0.85,,,,,,,,0.024739583,-0.399739583,0,0,0,,0,7,7,86,1,AIFED,LB,old,z,./images/AIFEDLB.png,,,,,,,,,,,,,,,,,,,,,,,,,,,,,,,,,,,
,,,,,,,,,,,,,,,,,5e35a96ecf931055fb891c54,41,2022-02-12_16h21.42.933,lexical_decision_task_DD,2021.2.3,Win32,60.09254252,,,,,,,,,,,,0.7767,1,,,,,,,,,,,,,,m,1,0.7767,,,,,,,,0.024739583,-0.399739583,0,0,0,,0,8,8,42,1,FOLDER,C,old,m,./images/FOLDER.png,,,,,,,,,,,,,,,,,,,,,,,,,,,,,,,,,,,
,,,,,,,,,,,,,,,,,5e35a96ecf931055fb891c54,41,2022-02-12_16h21.42.933,lexical_decision_task_DD,2021.2.3,Win32,60.09254252,,,,,,,,,,,,1.2061,1,,,,,,,,,,,,,,z,1,1.2061,,,,,,,,0.024739583,-0.399739583,0,0,0,,0,9,9,84,1,HAXES,C,old,z,./images/HAXES.png,,,,,,,,,,,,,,,,,,,,,,,,,,,,,,,,,,,
,,,,,,,,,,,,,,,,,5e35a96ecf931055fb891c54,41,2022-02-12_16h21.42.933,lexical_decision_task_DD,2021.2.3,Win32,60.09254252,,,,,,,,,,,,1.3559,0,,,,,,,,,,,,,,m,0,1.3559,,,,,,,,0.024739583,-0.399739583,0,0,0,,0,10,10,128,1,GRIFT,LB,old,z,./images/GRIFTLB.png,,,,,,,,,,,,,,,,,,,,,,,,,,,,,,,,,,,
,,,,,,,,,,,,,,,,,5e35a96ecf931055fb891c54,41,2022-02-12_16h21.42.933,lexical_decision_task_DD,2021.2.3,Win32,60.09254252,,,,,,,,,,,,0.7842,1,,,,,,,,,,,,,,m,1,0.7842,,,,,,,,0.024739583,-0.399739583,0,0,0,,0,11,11,29,1,CRUMB,LB,old,m,./images/CRUMBLB.png,,,,,,,,,,,,,,,,,,,,,,,,,,,,,,,,,,,
,,,,,,,,,,,,,,,,,5e35a96ecf931055fb891c54,41,2022-02-12_16h21.42.933,lexical_decision_task_DD,2021.2.3,Win32,60.09254252,,,,,,,,,,,,3.0067,0,,,,,,,,,,,,,,m,0,3.0067,,,,,,,,0.024739583,-0.399739583,0,0,0,,0,12,12,152,1,FRAIN,LB,old,z,./images/FRAINLB.png,,,,,,,,,,,,,,,,,,,,,,,,,,,,,,,,,,,
,,,,,,,,,,,,,,,,,5e35a96ecf931055fb891c54,41,2022-02-12_16h21.42.933,lexical_decision_task_DD,2021.2.3,Win32,60.09254252,,,,,,,,,,,,0.8355,1,,,,,,,,,,,,,,m,1,0.8355,,,,,,,,0.024739583,-0.399739583,0,0,0,,0,13,13,17,1,SKIING,LB,old,m,./images/SKIINGLB.png,,,,,,,,,,,,,,,,,,,,,,,,,,,,,,,,,,,
,,,,,,,,,,,,,,,,,5e35a96ecf931055fb891c54,41,2022-02-12_16h21.42.933,lexical_decision_task_DD,2021.2.3,Win32,60.09254252,,,,,,,,,,,,0.8331,1,,,,,,,,,,,,,,m,1,0.8331,,,,,,,,0.024739583,-0.399739583,0,0,0,,0,14,14,77,1,COUCH,LB,old,m,./images/COUCHLB.png,,,,,,,,,,,,,,,,,,,,,,,,,,,,,,,,,,,
,,,,,,,,,,,,,,,,,5e35a96ecf931055fb891c54,41,2022-02-12_16h21.42.933,lexical_decision_task_DD,2021.2.3,Win32,60.09254252,,,,,,,,,,,,1.316,1,,,,,,,,,,,,,,m,1,1.316,,,,,,,,0.024739583,-0.399739583,0,0,0,,0,15,15,20,1,CRADLE,LB,old,m,./images/CRADLELB.png,,,,,,,,,,,,,,,,,,,,,,,,,,,,,,,,,,,
,,,,,,,,,,,,,,,,,5e35a96ecf931055fb891c54,41,2022-02-12_16h21.42.933,lexical_decision_task_DD,2021.2.3,Win32,60.09254252,,,,,,,,,,,,0.7928,1,,,,,,,,,,,,,,z,1,0.7928,,,,,,,,0.024739583,-0.399739583,0,0,0,,0,16,16,135,1,JOODY,C,old,z,./images/JOODY.png,,,,,,,,,,,,,,,,,,,,,,,,,,,,,,,,,,,
,,,,,,,,,,,,,,,,,5e35a96ecf931055fb891c54,41,2022-02-12_16h21.42.933,lexical_decision_task_DD,2021.2.3,Win32,60.09254252,,,,,,,,,,,,1.5001,1,,,,,,,,,,,,,,z,1,1.5001,,,,,,,,0.024739583,-0.399739583,0,0,0,,0,17,17,113,1,LINEW,LB,old,z,./images/LINEWLB.png,,,,,,,,,,,,,,,,,,,,,,,,,,,,,,,,,,,
,,,,,,,,,,,,,,,,,5e35a96ecf931055fb891c54,41,2022-02-12_16h21.42.933,lexical_decision_task_DD,2021.2.3,Win32,60.09254252,,,,,,,,,,,,0.6821,1,,,,,,,,,,,,,,m,1,0.6821,,,,,,,,0.024739583,-0.399739583,0,0,0,,0,18,18,75,1,GRAIN,C,old,m,./images/GRAIN.png,,,,,,,,,,,,,,,,,,,,,,,,,,,,,,,,,,,
,,,,,,,,,,,,,,,,,5e35a96ecf931055fb891c54,41,2022-02-12_16h21.42.933,lexical_decision_task_DD,2021.2.3,Win32,60.09254252,,,,,,,,,,,,0.8123,1,,,,,,,,,,,,,,z,1,0.8123,,,,,,,,0.024739583,-0.399739583,0,0,0,,0,19,19,143,1,MONGS,LB,old,z,./images/MONGSLB.png,,,,,,,,,,,,,,,,,,,,,,,,,,,,,,,,,,,
,,,,,,,,,,,,,,,,,5e35a96ecf931055fb891c54,41,2022-02-12_16h21.42.933,lexical_decision_task_DD,2021.2.3,Win32,60.09254252,,,,,,,,,,,,0.7791,1,,,,,,,,,,,,,,m,1,0.7791,,,,,,,,0.024739583,-0.399739583,0,0,0,,0,20,20,33,1,MAGGOT,C,old,m,./images/MAGGOT.png,,,,,,,,,,,,,,,,,,,,,,,,,,,,,,,,,,,
,,,,,,,,,,,,,,,,,5e35a96ecf931055fb891c54,41,2022-02-12_16h21.42.933,lexical_decision_task_DD,2021.2.3,Win32,60.09254252,,,,,,,,,,,,0.6483,1,,,,,,,,,,,,,,m,1,0.6483,,,,,,,,0.024739583,-0.399739583,0,0,0,,0,21,21,3,1,FINGER,C,old,m,./images/FINGER.png,,,,,,,,,,,,,,,,,,,,,,,,,,,,,,,,,,,
,,,,,,,,,,,,,,,,,5e35a96ecf931055fb891c54,41,2022-02-12_16h21.42.933,lexical_decision_task_DD,2021.2.3,Win32,60.09254252,,,,,,,,,,,,0.6557,1,,,,,,,,,,,,,,m,1,0.6557,,,,,,,,0.024739583,-0.399739583,0,0,0,,0,22,22,39,1,SHELF,C,old,m,./images/SHELF.png,,,,,,,,,,,,,,,,,,,,,,,,,,,,,,,,,,,
,,,,,,,,,,,,,,,,,5e35a96ecf931055fb891c54,41,2022-02-12_16h21.42.933,lexical_decision_task_DD,2021.2.3,Win32,60.09254252,,,,,,,,,,,,1.0899,1,,,,,,,,,,,,,,z,1,1.0899,,,,,,,,0.024739583,-0.399739583,0,0,0,,0,23,23,158,1,EGECT,LB,old,z,./images/EGECTLB.png,,,,,,,,,,,,,,,,,,,,,,,,,,,,,,,,,,,
,,,,,,,,,,,,,,,,,5e35a96ecf931055fb891c54,41,2022-02-12_16h21.42.933,lexical_decision_task_DD,2021.2.3,Win32,60.09254252,,,,,,,,,,,,1.0836,1,,,,,,,,,,,,,,z,1,1.0836,,,,,,,,0.024739583,-0.399739583,0,0,0,,0,24,24,101,1,GLEET,LB,old,z,./images/GLEETLB.png,,,,,,,,,,,,,,,,,,,,,,,,,,,,,,,,,,,
,,,,,,,,,,,,,,,,,5e35a96ecf931055fb891c54,41,2022-02-12_16h21.42.933,lexical_decision_task_DD,2021.2.3,Win32,60.09254252,,,,,,,,,,,,4.2694,1,,,,,,,,,,,,,,z,1,4.2694,,,,,,,,0.024739583,-0.399739583,0,0,0,,0,25,25,148,1,JOMS,HB,old,z,./images/JOMSHB.png,,,,,,,,,,,,,,,,,,,,,,,,,,,,,,,,,,,
,,,,,,,,,,,,,,,,,5e35a96ecf931055fb891c54,41,2022-02-12_16h21.42.933,lexical_decision_task_DD,2021.2.3,Win32,60.09254252,,,,,,,,,,,,8.2672,1,,,,,,,,,,,,,,z,1,8.2672,,,,,,,,0.024739583,-0.399739583,0,0,0,,0,26,26,145,1,LAMEL,HB,old,z,./images/LAMELHB.png,,,,,,,,,,,,,,,,,,,,,,,,,,,,,,,,,,,
,,,,,,,,,,,,,,,,,5e35a96ecf931055fb891c54,41,2022-02-12_16h21.42.933,lexical_decision_task_DD,2021.2.3,Win32,60.09254252,,,,,,,,,,,,0.8748,1,,,,,,,,,,,,,,m,1,0.8748,,,,,,,,0.024739583,-0.399739583,0,0,0,,0,27,27,81,1,POODLE,C,old,m,./images/POODLE.png,,,,,,,,,,,,,,,,,,,,,,,,,,,,,,,,,,,
,,,,,,,,,,,,,,,,,5e35a96ecf931055fb891c54,41,2022-02-12_16h21.42.933,lexical_decision_task_DD,2021.2.3,Win32,60.09254252,,,,,,,,,,,,0.9993,1,,,,,,,,,,,,,,z,1,0.9993,,,,,,,,0.024739583,-0.399739583,0,0,0,,0,28,28,167,1,ZONET,LB,old,z,./images/ZONETLB.png,,,,,,,,,,,,,,,,,,,,,,,,,,,,,,,,,,,
,,,,,,,,,,,,,,,,,5e35a96ecf931055fb891c54,41,2022-02-12_16h21.42.933,lexical_decision_task_DD,2021.2.3,Win32,60.09254252,,,,,,,,,,,,1.9796,1,,,,,,,,,,,,,,m,1,1.9796,,,,,,,,0.024739583,-0.399739583,0,0,0,,0,29,29,36,1,THROAT,C,old,m,./images/THROAT.png,,,,,,,,,,,,,,,,,,,,,,,,,,,,,,,,,,,
,,,,,,,,,,,,,,,,,5e35a96ecf931055fb891c54,41,2022-02-12_16h21.42.933,lexical_decision_task_DD,2021.2.3,Win32,60.09254252,,,,,,,,,,,,3.667,0,,,,,,,,,,,,,,m,0,3.667,,,,,,,,0.024739583,-0.399739583,0,0,0,,0,30,30,139,1,BLEAR,HB,old,z,./images/BLEARHB.png,,,,,,,,,,,,,,,,,,,,,,,,,,,,,,,,,,,
,,,,,,,,,,,,,,,,,5e35a96ecf931055fb891c54,41,2022-02-12_16h21.42.933,lexical_decision_task_DD,2021.2.3,Win32,60.09254252,,,,,,,,,,,,0.5536,1,,,,,,,,,,,,,,m,1,0.5536,,,,,,,,0.024739583,-0.399739583,0,0,0,,0,31,31,15,1,GREASE,C,old,m,./images/GREASE.png,,,,,,,,,,,,,,,,,,,,,,,,,,,,,,,,,,,
,,,,,,,,,,,,,,,,,5e35a96ecf931055fb891c54,41,2022-02-12_16h21.42.933,lexical_decision_task_DD,2021.2.3,Win32,60.09254252,,,,,,,,,,,,3.9974,1,,,,,,,,,,,,,,z,1,3.9974,,,,,,,,0.024739583,-0.399739583,0,0,0,,0,32,32,121,1,CEERS,HB,old,z,./images/CEERSHB.png,,,,,,,,,,,,,,,,,,,,,,,,,,,,,,,,,,,
,,,,,,,,,,,,,,,,,5e35a96ecf931055fb891c54,41,2022-02-12_16h21.42.933,lexical_decision_task_DD,2021.2.3,Win32,60.09254252,,,,,,,,,,,,0.9412,1,,,,,,,,,,,,,,z,1,0.9412,,,,,,,,0.024739583,-0.399739583,0,0,0,,0,33,33,126,1,GUELS,C,old,z,./images/GUELS.png,,,,,,,,,,,,,,,,,,,,,,,,,,,,,,,,,,,
,,,,,,,,,,,,,,,,,5e35a96ecf931055fb891c54,41,2022-02-12_16h21.42.933,lexical_decision_task_DD,2021.2.3,Win32,60.09254252,,,,,,,,,,,,1.3575,1,,,,,,,,,,,,,,m,1,1.3575,,,,,,,,0.024739583,-0.399739583,0,0,0,,0,34,34,40,1,SWING,HB,old,m,./images/SWINGHB.png,,,,,,,,,,,,,,,,,,,,,,,,,,,,,,,,,,,
,,,,,,,,,,,,,,,,,5e35a96ecf931055fb891c54,41,2022-02-12_16h21.42.933,lexical_decision_task_DD,2021.2.3,Win32,60.09254252,,,,,,,,,,,,2.3983,1,,,,,,,,,,,,,,z,1,2.3983,,,,,,,,0.024739583,-0.399739583,0,0,0,,0,35,35,137,1,JOOST,LB,old,z,./images/JOOSTLB.png,,,,,,,,,,,,,,,,,,,,,,,,,,,,,,,,,,,
,,,,,,,,,,,,,,,,,5e35a96ecf931055fb891c54,41,2022-02-12_16h21.42.933,lexical_decision_task_DD,2021.2.3,Win32,60.09254252,,,,,,,,,,,,5.1791,1,,,,,,,,,,,,,,z,1,5.1791,,,,,,,,0.024739583,-0.399739583,0,0,0,,0,36,36,136,1,WERVE,HB,old,z,./images/WERVEHB.png,,,,,,,,,,,,,,,,,,,,,,,,,,,,,,,,,,,
,,,,,,,,,,,,,,,,,5e35a96ecf931055fb891c54,41,2022-02-12_16h21.42.933,lexical_decision_task_DD,2021.2.3,Win32,60.09254252,,,,,,,,,,,,0.9496,1,,,,,,,,,,,,,,z,1,0.9496,,,,,,,,0.024739583,-0.399739583,0,0,0,,0,37,37,131,1,NACES,LB,old,z,./images/NACESLB.png,,,,,,,,,,,,,,,,,,,,,,,,,,,,,,,,,,,
,,,,,,,,,,,,,,,,,5e35a96ecf931055fb891c54,41,2022-02-12_16h21.42.933,lexical_decision_task_DD,2021.2.3,Win32,60.09254252,,,,,,,,,,,,0.9355,1,,,,,,,,,,,,,,z,1,0.9355,,,,,,,,0.024739583,-0.399739583,0,0,0,,0,38,38,111,1,HOSSE,C,old,z,./images/HOSSE.png,,,,,,,,,,,,,,,,,,,,,,,,,,,,,,,,,,,
,,,,,,,,,,,,,,,,,5e35a96ecf931055fb891c54,41,2022-02-12_16h21.42.933,lexical_decision_task_DD,2021.2.3,Win32,60.09254252,,,,,,,,,,,,0.6157,1,,,,,,,,,,,,,,m,1,0.6157,,,,,,,,0.024739583,-0.399739583,0,0,0,,0,39,39,78,1,LITTER,C,old,m,./images/LITTER.png,,,,,,,,,,,,,,,,,,,,,,,,,,,,,,,,,,,
,,,,,,,,,,,,,,,,,5e35a96ecf931055fb891c54,41,2022-02-12_16h21.42.933,lexical_decision_task_DD,2021.2.3,Win32,60.09254252,,,,,,,,,,,,1.5995,1,,,,,,,,,,,,,,m,1,1.5995,,,,,,,,0.024739583,-0.399739583,0,0,0,,0,40,40,49,1,DRUMS,HB,old,m,./images/DRUMSHB.png,,,,,,,,,,,,,,,,,,,,,,,,,,,,,,,,,,,
,,,,,,,,,,,,,,,,,5e35a96ecf931055fb891c54,41,2022-02-12_16h21.42.933,lexical_decision_task_DD,2021.2.3,Win32,60.09254252,,,,,,,,,,,,0.7939,1,,,,,,,,,,,,,,z,1,0.7939,,,,,,,,0.024739583,-0.399739583,0,0,0,space,0,41,41,132,1,SCIFF,C,old,z,./images/SCIFF.png,5.3112,,,,,,,,,,,,,,,,,,,,,,,,,,,,,,,,,,
,,,,,,,,,,,,,,,,,5e35a96ecf931055fb891c54,41,2022-02-12_16h21.42.933,lexical_decision_task_DD,2021.2.3,Win32,60.09254252,,,,,,,,,,,,0.8301,1,,,,,,,,,,,,,,z,1,0.8301,,,,,,,,0.024739583,-0.399739583,0,0,0,,0,42,42,89,1,DRIEK,LB,old,z,./images/DRIEKLB.png,,,,,,,,,,,,,,,,,,,,,,,,,,,,,,,,,,,
,,,,,,,,,,,,,,,,,5e35a96ecf931055fb891c54,41,2022-02-12_16h21.42.933,lexical_decision_task_DD,2021.2.3,Win32,60.09254252,,,,,,,,,,,,1.0734,1,,,,,,,,,,,,,,z,1,1.0734,,,,,,,,0.024739583,-0.399739583,0,0,0,,0,43,43,124,1,TUNCH,HB,old,z,./images/TUNCHHB.png,,,,,,,,,,,,,,,,,,,,,,,,,,,,,,,,,,,
,,,,,,,,,,,,,,,,,5e35a96ecf931055fb891c54,41,2022-02-12_16h21.42.933,lexical_decision_task_DD,2021.2.3,Win32,60.09254252,,,,,,,,,,,,0.9493,1,,,,,,,,,,,,,,z,1,0.9493,,,,,,,,0.024739583,-0.399739583,0,0,0,,0,44,44,107,1,FASKS,LB,old,z,./images/FASKSLB.png,,,,,,,,,,,,,,,,,,,,,,,,,,,,,,,,,,,
,,,,,,,,,,,,,,,,,5e35a96ecf931055fb891c54,41,2022-02-12_16h21.42.933,lexical_decision_task_DD,2021.2.3,Win32,60.09254252,,,,,,,,,,,,9.1093,1,,,,,,,,,,,,,,z,1,9.1093,,,,,,,,0.024739583,-0.399739583,0,0,0,,0,45,45,85,1,CHULK,HB,old,z,./images/CHULKHB.png,,,,,,,,,,,,,,,,,,,,,,,,,,,,,,,,,,,
,,,,,,,,,,,,,,,,,5e35a96ecf931055fb891c54,41,2022-02-12_16h21.42.933,lexical_decision_task_DD,2021.2.3,Win32,60.09254252,,,,,,,,,,,,1.2552,1,,,,,,,,,,,,,,m,1,1.2552,,,,,,,,0.024739583,-0.399739583,0,0,0,,0,46,46,82,1,SUNSET,HB,old,m,./images/SUNSETHB.png,,,,,,,,,,,,,,,,,,,,,,,,,,,,,,,,,,,
,,,,,,,,,,,,,,,,,5e35a96ecf931055fb891c54,41,2022-02-12_16h21.42.933,lexical_decision_task_DD,2021.2.3,Win32,60.09254252,,,,,,,,,,,,2.6477,0,,,,,,,,,,,,,,m,0,2.6477,,,,,,,,0.024739583,-0.399739583,0,0,0,,0,47,47,142,1,PLASK,HB,old,z,./images/PLASKHB.png,,,,,,,,,,,,,,,,,,,,,,,,,,,,,,,,,,,
,,,,,,,,,,,,,,,,,5e35a96ecf931055fb891c54,41,2022-02-12_16h21.42.933,lexical_decision_task_DD,2021.2.3,Win32,60.09254252,,,,,,,,,,,,1.6318,1,,,,,,,,,,,,,,m,1,1.6318,,,,,,,,0.024739583,-0.399739583,0,0,0,,0,48,48,43,1,MOSQUE,HB,old,m,./images/MOSQUEHB.png,,,,,,,,,,,,,,,,,,,,,,,,,,,,,,,,,,,
,,,,,,,,,,,,,,,,,5e35a96ecf931055fb891c54,41,2022-02-12_16h21.42.933,lexical_decision_task_DD,2021.2.3,Win32,60.09254252,,,,,,,,,,,,2.9834,0,,,,,,,,,,,,,,m,0,2.9834,,,,,,,,0.024739583,-0.399739583,0,0,0,,0,49,49,118,1,BAVEL,HB,old,z,./images/BAVELHB.png,,,,,,,,,,,,,,,,,,,,,,,,,,,,,,,,,,,
,,,,,,,,,,,,,,,,,5e35a96ecf931055fb891c54,41,2022-02-12_16h21.42.933,lexical_decision_task_DD,2021.2.3,Win32,60.09254252,,,,,,,,,,,,5.0813,0,,,,,,,,,,,,,,m,0,5.0813,,,,,,,,0.024739583,-0.399739583,0,0,0,,0,50,50,109,1,BURGE,HB,old,z,./images/BURGEHB.png,,,,,,,,,,,,,,,,,,,,,,,,,,,,,,,,,,,
,,,,,,,,,,,,,,,,,5e35a96ecf931055fb891c54,41,2022-02-12_16h21.42.933,lexical_decision_task_DD,2021.2.3,Win32,60.09254252,,,,,,,,,,,,0.7112,1,,,,,,,,,,,,,,z,1,0.7112,,,,,,,,0.024739583,-0.399739583,0,0,0,,0,51,51,108,1,GRUET,C,old,z,./images/GRUET.png,,,,,,,,,,,,,,,,,,,,,,,,,,,,,,,,,,,
,,,,,,,,,,,,,,,,,5e35a96ecf931055fb891c54,41,2022-02-12_16h21.42.933,lexical_decision_task_DD,2021.2.3,Win32,60.09254252,,,,,,,,,,,,1.266,1,,,,,,,,,,,,,,m,1,1.266,,,,,,,,0.024739583,-0.399739583,0,0,0,,0,52,52,25,1,WRIST,HB,old,m,./images/WRISTHB.png,,,,,,,,,,,,,,,,,,,,,,,,,,,,,,,,,,,
,,,,,,,,,,,,,,,,,5e35a96ecf931055fb891c54,41,2022-02-12_16h21.42.933,lexical_decision_task_DD,2021.2.3,Win32,60.09254252,,,,,,,,,,,,1.9903,1,,,,,,,,,,,,,,m,1,1.9903,,,,,,,,0.024739583,-0.399739583,0,0,0,,0,53,53,59,1,BURIAL,LB,old,m,./images/BURIALLB.png,,,,,,,,,,,,,,,,,,,,,,,,,,,,,,,,,,,
,,,,,,,,,,,,,,,,,5e35a96ecf931055fb891c54,41,2022-02-12_16h21.42.933,lexical_decision_task_DD,2021.2.3,Win32,60.09254252,,,,,,,,,,,,1.5178,1,,,,,,,,,,,,,,z,1,1.5178,,,,,,,,0.024739583,-0.399739583,0,0,0,,0,54,54,88,1,GLUSH,HB,old,z,./images/GLUSHHB.png,,,,,,,,,,,,,,,,,,,,,,,,,,,,,,,,,,,
,,,,,,,,,,,,,,,,,5e35a96ecf931055fb891c54,41,2022-02-12_16h21.42.933,lexical_decision_task_DD,2021.2.3,Win32,60.09254252,,,,,,,,,,,,0.6639,1,,,,,,,,,,,,,,z,1,0.6639,,,,,,,,0.024739583,-0.399739583,0,0,0,,0,55,55,162,1,LEICH,C,old,z,./images/LEICH.png,,,,,,,,,,,,,,,,,,,,,,,,,,,,,,,,,,,
,,,,,,,,,,,,,,,,,5e35a96ecf931055fb891c54,41,2022-02-12_16h21.42.933,lexical_decision_task_DD,2021.2.3,Win32,60.09254252,,,,,,,,,,,,0.8337,1,,,,,,,,,,,,,,z,1,0.8337,,,,,,,,0.024739583,-0.399739583,0,0,0,,0,56,56,164,1,SGREW,LB,old,z,./images/SGREWLB.png,,,,,,,,,,,,,,,,,,,,,,,,,,,,,,,,,,,
,,,,,,,,,,,,,,,,,5e35a96ecf931055fb891c54,41,2022-02-12_16h21.42.933,lexical_decision_task_DD,2021.2.3,Win32,60.09254252,,,,,,,,,,,,1.1018,1,,,,,,,,,,,,,,z,1,1.1018,,,,,,,,0.024739583,-0.399739583,0,0,0,,0,57,57,119,1,PAFER,LB,old,z,./images/PAFERLB.png,,,,,,,,,,,,,,,,,,,,,,,,,,,,,,,,,,,
,,,,,,,,,,,,,,,,,5e35a96ecf931055fb891c54,41,2022-02-12_16h21.42.933,lexical_decision_task_DD,2021.2.3,Win32,60.09254252,,,,,,,,,,,,0.8432,1,,,,,,,,,,,,,,m,1,0.8432,,,,,,,,0.024739583,-0.399739583,0,0,0,,0,58,58,23,1,WALRUS,LB,old,m,./images/WALRUSLB.png,,,,,,,,,,,,,,,,,,,,,,,,,,,,,,,,,,,
,,,,,,,,,,,,,,,,,5e35a96ecf931055fb891c54,41,2022-02-12_16h21.42.933,lexical_decision_task_DD,2021.2.3,Win32,60.09254252,,,,,,,,,,,,1.0754,1,,,,,,,,,,,,,,m,1,1.0754,,,,,,,,0.024739583,-0.399739583,0,0,0,,0,59,59,30,1,STORM,C,old,m,./images/STORM.png,,,,,,,,,,,,,,,,,,,,,,,,,,,,,,,,,,,
,,,,,,,,,,,,,,,,,5e35a96ecf931055fb891c54,41,2022-02-12_16h21.42.933,lexical_decision_task_DD,2021.2.3,Win32,60.09254252,,,,,,,,,,,,1.7449,1,,,,,,,,,,,,,,m,1,1.7449,,,,,,,,0.024739583,-0.399739583,0,0,0,,0,60,60,73,1,SNACK,HB,old,m,./images/SNACKHB.png,,,,,,,,,,,,,,,,,,,,,,,,,,,,,,,,,,,
,,,,,,,,,,,,,,,,,5e35a96ecf931055fb891c54,41,2022-02-12_16h21.42.933,lexical_decision_task_DD,2021.2.3,Win32,60.09254252,,,,,,,,,,,,4.1245,1,,,,,,,,,,,,,,z,1,4.1245,,,,,,,,0.024739583,-0.399739583,0,0,0,,0,61,61,127,1,NINDY,HB,old,z,./images/NINDYHB.png,,,,,,,,,,,,,,,,,,,,,,,,,,,,,,,,,,,
,,,,,,,,,,,,,,,,,5e35a96ecf931055fb891c54,41,2022-02-12_16h21.42.933,lexical_decision_task_DD,2021.2.3,Win32,60.09254252,,,,,,,,,,,,0.6263,1,,,,,,,,,,,,,,m,1,0.6263,,,,,,,,0.024739583,-0.399739583,0,0,0,,0,62,62,0,1,TOMATO,C,old,m,./images/TOMATO.png,,,,,,,,,,,,,,,,,,,,,,,,,,,,,,,,,,,
,,,,,,,,,,,,,,,,,5e35a96ecf931055fb891c54,41,2022-02-12_16h21.42.933,lexical_decision_task_DD,2021.2.3,Win32,60.09254252,,,,,,,,,,,,2.2151,1,,,,,,,,,,,,,,m,1,2.2151,,,,,,,,0.024739583,-0.399739583,0,0,0,,0,63,63,16,1,PENCE,HB,old,m,./images/PENCEHB.png,,,,,,,,,,,,,,,,,,,,,,,,,,,,,,,,,,,
,,,,,,,,,,,,,,,,,5e35a96ecf931055fb891c54,41,2022-02-12_16h21.42.933,lexical_decision_task_DD,2021.2.3,Win32,60.09254252,,,,,,,,,,,,0.7423,1,,,,,,,,,,,,,,m,1,0.7423,,,,,,,,0.024739583,-0.399739583,0,0,0,,0,64,64,57,1,MOOSE,C,old,m,./images/MOOSE.png,,,,,,,,,,,,,,,,,,,,,,,,,,,,,,,,,,,
,,,,,,,,,,,,,,,,,5e35a96ecf931055fb891c54,41,2022-02-12_16h21.42.933,lexical_decision_task_DD,2021.2.3,Win32,60.09254252,,,,,,,,,,,,0.9837,1,,,,,,,,,,,,,,z,1,0.9837,,,,,,,,0.024739583,-0.399739583,0,0,0,,0,65,65,155,1,CANGY,LB,old,z,./images/CANGYLB.png,,,,,,,,,,,,,,,,,,,,,,,,,,,,,,,,,,,
,,,,,,,,,,,,,,,,,5e35a96ecf931055fb891c54,41,2022-02-12_16h21.42.933,lexical_decision_task_DD,2021.2.3,Win32,60.09254252,,,,,,,,,,,,1.0393,1,,,,,,,,,,,,,,m,1,1.0393,,,,,,,,0.024739583,-0.399739583,0,0,0,,0,66,66,19,1,DOUGH,HB,old,m,./images/DOUGHHB.png,,,,,,,,,,,,,,,,,,,,,,,,,,,,,,,,,,,
,,,,,,,,,,,,,,,,,5e35a96ecf931055fb891c54,41,2022-02-12_16h21.42.933,lexical_decision_task_DD,2021.2.3,Win32,60.09254252,,,,,,,,,,,,1.0332,1,,,,,,,,,,,,,,z,1,1.0332,,,,,,,,0.024739583,-0.399739583,0,0,0,,0,67,67,149,1,VEASE,LB,old,z,./images/VEASELB.png,,,,,,,,,,,,,,,,,,,,,,,,,,,,,,,,,,,
,,,,,,,,,,,,,,,,,5e35a96ecf931055fb891c54,41,2022-02-12_16h21.42.933,lexical_decision_task_DD,2021.2.3,Win32,60.09254252,,,,,,,,,,,,1.388,1,,,,,,,,,,,,,,m,1,1.388,,,,,,,,0.024739583,-0.399739583,0,0,0,,0,68,68,13,1,MOTOR,HB,old,m,./images/MOTORHB.png,,,,,,,,,,,,,,,,,,,,,,,,,,,,,,,,,,,
,,,,,,,,,,,,,,,,,5e35a96ecf931055fb891c54,41,2022-02-12_16h21.42.933,lexical_decision_task_DD,2021.2.3,Win32,60.09254252,,,,,,,,,,,,1.495,0,,,,,,,,,,,,,,m,0,1.495,,,,,,,,0.024739583,-0.399739583,0,0,0,,0,69,69,159,1,CUDDY,C,old,z,./images/CUDDY.png,,,,,,,,,,,,,,,,,,,,,,,,,,,,,,,,,,,
,,,,,,,,,,,,,,,,,5e35a96ecf931055fb891c54,41,2022-02-12_16h21.42.933,lexical_decision_task_DD,2021.2.3,Win32,60.09254252,,,,,,,,,,,,0.567,1,,,,,,,,,,,,,,m,1,0.567,,,,,,,,0.024739583,-0.399739583,0,0,0,,0,70,70,60,1,TWINS,C,old,m,./images/TWINS.png,,,,,,,,,,,,,,,,,,,,,,,,,,,,,,,,,,,
,,,,,,,,,,,,,,,,,5e35a96ecf931055fb891c54,41,2022-02-12_16h21.42.933,lexical_decision_task_DD,2021.2.3,Win32,60.09254252,,,,,,,,,,,,0.8499,1,,,,,,,,,,,,,,m,1,0.8499,,,,,,,,0.024739583,-0.399739583,0,0,0,,0,71,71,50,1,MALLET,LB,old,m,./images/MALLETLB.png,,,,,,,,,,,,,,,,,,,,,,,,,,,,,,,,,,,
,,,,,,,,,,,,,,,,,5e35a96ecf931055fb891c54,41,2022-02-12_16h21.42.933,lexical_decision_task_DD,2021.2.3,Win32,60.09254252,,,,,,,,,,,,0.8091,1,,,,,,,,,,,,,,z,1,0.8091,,,,,,,,0.024739583,-0.399739583,0,0,0,,0,72,72,93,1,SMONE,C,old,z,./images/SMONE.png,,,,,,,,,,,,,,,,,,,,,,,,,,,,,,,,,,,
,,,,,,,,,,,,,,,,,5e35a96ecf931055fb891c54,41,2022-02-12_16h21.42.933,lexical_decision_task_DD,2021.2.3,Win32,60.09254252,,,,,,,,,,,,0.7404,1,,,,,,,,,,,,,,m,1,0.7404,,,,,,,,0.024739583,-0.399739583,0,0,0,,0,73,73,38,1,LADDER,LB,old,m,./images/LADDERLB.png,,,,,,,,,,,,,,,,,,,,,,,,,,,,,,,,,,,
,,,,,,,,,,,,,,,,,5e35a96ecf931055fb891c54,41,2022-02-12_16h21.42.933,lexical_decision_task_DD,2021.2.3,Win32,60.09254252,,,,,,,,,,,,1.5334,1,,,,,,,,,,,,,,m,1,1.5334,,,,,,,,0.024739583,-0.399739583,0,0,0,,0,74,74,22,1,MELON,HB,old,m,./images/MELONHB.png,,,,,,,,,,,,,,,,,,,,,,,,,,,,,,,,,,,
,,,,,,,,,,,,,,,,,5e35a96ecf931055fb891c54,41,2022-02-12_16h21.42.933,lexical_decision_task_DD,2021.2.3,Win32,60.09254252,,,,,,,,,,,,6.3526,0,,,,,,,,,,,,,,m,0,6.3526,,,,,,,,0.024739583,-0.399739583,0,0,0,,0,75,75,165,1,TROWN,C,old,z,./images/TROWN.png,,,,,,,,,,,,,,,,,,,,,,,,,,,,,,,,,,,
,,,,,,,,,,,,,,,,,5e35a96ecf931055fb891c54,41,2022-02-12_16h21.42.933,lexical_decision_task_DD,2021.2.3,Win32,60.09254252,,,,,,,,,,,,1.7926,1,,,,,,,,,,,,,,m,1,1.7926,,,,,,,,0.024739583,-0.399739583,0,0,0,,0,76,76,7,1,PAINT,HB,old,m,./images/PAINTHB.png,,,,,,,,,,,,,,,,,,,,,,,,,,,,,,,,,,,
,,,,,,,,,,,,,,,,,5e35a96ecf931055fb891c54,41,2022-02-12_16h21.42.933,lexical_decision_task_DD,2021.2.3,Win32,60.09254252,,,,,,,,,,,,0.7551,1,,,,,,,,,,,,,,m,1,0.7551,,,,,,,,0.024739583,-0.399739583,0,0,0,,0,77,77,48,1,SPORT,C,old,m,./images/SPORT.png,,,,,,,,,,,,,,,,,,,,,,,,,,,,,,,,,,,
,,,,,,,,,,,,,,,,,5e35a96ecf931055fb891c54,41,2022-02-12_16h21.42.933,lexical_decision_task_DD,2021.2.3,Win32,60.09254252,,,,,,,,,,,,1.75,0,,,,,,,,,,,,,,m,0,1.75,,,,,,,,0.024739583,-0.399739583,0,0,0,,0,78,78,160,1,VEETS,HB,old,z,./images/VEETSHB.png,,,,,,,,,,,,,,,,,,,,,,,,,,,,,,,,,,,
,,,,,,,,,,,,,,,,,5e35a96ecf931055fb891c54,41,2022-02-12_16h21.42.933,lexical_decision_task_DD,2021.2.3,Win32,60.09254252,,,,,,,,,,,,0.9011,1,,,,,,,,,,,,,,z,1,0.9011,,,,,,,,0.024739583,-0.399739583,0,0,0,,0,79,79,102,1,DULLE,C,old,z,./images/DULLE.png,,,,,,,,,,,,,,,,,,,,,,,,,,,,,,,,,,,
,,,,,,,,,,,,,,,,,5e35a96ecf931055fb891c54,41,2022-02-12_16h21.42.933,lexical_decision_task_DD,2021.2.3,Win32,60.09254252,,,,,,,,,,,,1.1993,1,,,,,,,,,,,,,,z,1,1.1993,,,,,,,,0.024739583,-0.399739583,0,0,0,,0,80,80,91,1,SHENS,HB,old,z,./images/SHENSHB.png,,,,,,,,,,,,,,,,,,,,,,,,,,,,,,,,,,,
,,,,,,,,,,,,,,,,,5e35a96ecf931055fb891c54,41,2022-02-12_16h21.42.933,lexical_decision_task_DD,2021.2.3,Win32,60.09254252,,,,,,,,,,,,0.7505,1,,,,,,,,,,,,,,m,1,0.7505,,,,,,,,0.024739583,-0.399739583,0,0,0,,0,81,81,14,1,PICKLE,LB,old,m,./images/PICKLELB.png,,,,,,,,,,,,,,,,,,,,,,,,,,,,,,,,,,,
,,,,,,,,,,,,,,,,,5e35a96ecf931055fb891c54,41,2022-02-12_16h21.42.933,lexical_decision_task_DD,2021.2.3,Win32,60.09254252,,,,,,,,,,,,0.6337,1,,,,,,,,,,,,,,m,1,0.6337,,,,,,,,0.024739583,-0.399739583,0,0,0,,0,82,82,27,1,ATTIC,C,old,m,./images/ATTIC.png,,,,,,,,,,,,,,,,,,,,,,,,,,,,,,,,,,,
,,,,,,,,,,,,,,,,,5e35a96ecf931055fb891c54,41,2022-02-12_16h21.42.933,lexical_decision_task_DD,2021.2.3,Win32,60.09254252,,,,,,,,,,,,0.6291,1,,,,,,,,,,,,,,m,1,0.6291,,,,,,,,0.024739583,-0.399739583,0,0,0,space,0,83,83,45,1,KITTEN,C,old,m,./images/KITTEN.png,4.1969,,,,,,,,,,,,,,,,,,,,,,,,,,,,,,,,,,
,,,,,,,,,,,,,,,,,5e35a96ecf931055fb891c54,41,2022-02-12_16h21.42.933,lexical_decision_task_DD,2021.2.3,Win32,60.09254252,,,,,,,,,,,,0.5773,1,,,,,,,,,,,,,,m,1,0.5773,,,,,,,,0.024739583,-0.399739583,0,0,0,,0,84,84,21,1,KIDNEY,C,old,m,./images/KIDNEY.png,,,,,,,,,,,,,,,,,,,,,,,,,,,,,,,,,,,
,,,,,,,,,,,,,,,,,5e35a96ecf931055fb891c54,41,2022-02-12_16h21.42.933,lexical_decision_task_DD,2021.2.3,Win32,60.09254252,,,,,,,,,,,,0.6673,1,,,,,,,,,,,,,,m,1,0.6673,,,,,,,,0.024739583,-0.399739583,0,0,0,,0,85,85,62,1,PURSE,LB,old,m,./images/PURSELB.png,,,,,,,,,,,,,,,,,,,,,,,,,,,,,,,,,,,
,,,,,,,,,,,,,,,,,5e35a96ecf931055fb891c54,41,2022-02-12_16h21.42.933,lexical_decision_task_DD,2021.2.3,Win32,60.09254252,,,,,,,,,,,,0.8007,1,,,,,,,,,,,,,,m,1,0.8007,,,,,,,,0.024739583,-0.399739583,0,0,0,,0,86,86,8,1,TULIP,LB,old,m,./images/TULIPLB.png,,,,,,,,,,,,,,,,,,,,,,,,,,,,,,,,,,,
,,,,,,,,,,,,,,,,,5e35a96ecf931055fb891c54,41,2022-02-12_16h21.42.933,lexical_decision_task_DD,2021.2.3,Win32,60.09254252,,,,,,,,,,,,0.7935,1,,,,,,,,,,,,,,z,1,0.7935,,,,,,,,0.024739583,-0.399739583,0,0,0,,0,87,87,87,1,TRING,C,old,z,./images/TRING.png,,,,,,,,,,,,,,,,,,,,,,,,,,,,,,,,,,,
,,,,,,,,,,,,,,,,,5e35a96ecf931055fb891c54,41,2022-02-12_16h21.42.933,lexical_decision_task_DD,2021.2.3,Win32,60.09254252,,,,,,,,,,,,1.2248,1,,,,,,,,,,,,,,z,1,1.2248,,,,,,,,0.024739583,-0.399739583,0,0,0,,0,88,88,153,1,CLUPS,C,old,z,./images/CLUPS.png,,,,,,,,,,,,,,,,,,,,,,,,,,,,,,,,,,,
,,,,,,,,,,,,,,,,,5e35a96ecf931055fb891c54,41,2022-02-12_16h21.42.933,lexical_decision_task_DD,2021.2.3,Win32,60.09254252,,,,,,,,,,,,0.7497,1,,,,,,,,,,,,,,m,1,0.7497,,,,,,,,0.024739583,-0.399739583,0,0,0,,0,89,89,74,1,CEMENT,LB,old,m,./images/CEMENTLB.png,,,,,,,,,,,,,,,,,,,,,,,,,,,,,,,,,,,
,,,,,,,,,,,,,,,,,5e35a96ecf931055fb891c54,41,2022-02-12_16h21.42.933,lexical_decision_task_DD,2021.2.3,Win32,60.09254252,,,,,,,,,,,,4.7939,1,,,,,,,,,,,,,,z,1,4.7939,,,,,,,,0.024739583,-0.399739583,0,0,0,,0,90,90,123,1,SEDGE,C,old,z,./images/SEDGE.png,,,,,,,,,,,,,,,,,,,,,,,,,,,,,,,,,,,
,,,,,,,,,,,,,,,,,5e35a96ecf931055fb891c54,41,2022-02-12_16h21.42.933,lexical_decision_task_DD,2021.2.3,Win32,60.09254252,,,,,,,,,,,,0.7923,1,,,,,,,,,,,,,,m,1,0.7923,,,,,,,,0.024739583,-0.399739583,0,0,0,,0,91,91,83,1,JUNGLE,LB,old,m,./images/JUNGLELB.png,,,,,,,,,,,,,,,,,,,,,,,,,,,,,,,,,,,
,,,,,,,,,,,,,,,,,5e35a96ecf931055fb891c54,41,2022-02-12_16h21.42.933,lexical_decision_task_DD,2021.2.3,Win32,60.09254252,,,,,,,,,,,,0.8448,1,,,,,,,,,,,,,,m,1,0.8448,,,,,,,,0.024739583,-0.399739583,0,0,0,,0,92,92,26,1,SMOKER,LB,old,m,./images/SMOKERLB.png,,,,,,,,,,,,,,,,,,,,,,,,,,,,,,,,,,,
,,,,,,,,,,,,,,,,,5e35a96ecf931055fb891c54,41,2022-02-12_16h21.42.933,lexical_decision_task_DD,2021.2.3,Win32,60.09254252,,,,,,,,,,,,1.108,1,,,,,,,,,,,,,,z,1,1.108,,,,,,,,0.024739583,-0.399739583,0,0,0,,0,93,93,100,1,DRIBS,HB,old,z,./images/DRIBSHB.png,,,,,,,,,,,,,,,,,,,,,,,,,,,,,,,,,,,
,,,,,,,,,,,,,,,,,5e35a96ecf931055fb891c54,41,2022-02-12_16h21.42.933,lexical_decision_task_DD,2021.2.3,Win32,60.09254252,,,,,,,,,,,,1.6833,0,,,,,,,,,,,,,,m,0,1.6833,,,,,,,,0.024739583,-0.399739583,0,0,0,,0,94,94,125,1,MOOKY,LB,old,z,./images/MOOKYLB.png,,,,,,,,,,,,,,,,,,,,,,,,,,,,,,,,,,,
,,,,,,,,,,,,,,,,,5e35a96ecf931055fb891c54,41,2022-02-12_16h21.42.933,lexical_decision_task_DD,2021.2.3,Win32,60.09254252,,,,,,,,,,,,1.2935,1,,,,,,,,,,,,,,m,1,1.2935,,,,,,,,0.024739583,-0.399739583,0,0,0,,0,95,95,18,1,JAGUAR,C,old,m,./images/JAGUAR.png,,,,,,,,,,,,,,,,,,,,,,,,,,,,,,,,,,,
,,,,,,,,,,,,,,,,,5e35a96ecf931055fb891c54,41,2022-02-12_16h21.42.933,lexical_decision_task_DD,2021.2.3,Win32,60.09254252,,,,,,,,,,,,0.814,1,,,,,,,,,,,,,,z,1,0.814,,,,,,,,0.024739583,-0.399739583,0,0,0,,0,96,96,90,1,NEAST,C,old,z,./images/NEAST.png,,,,,,,,,,,,,,,,,,,,,,,,,,,,,,,,,,,
,,,,,,,,,,,,,,,,,5e35a96ecf931055fb891c54,41,2022-02-12_16h21.42.933,lexical_decision_task_DD,2021.2.3,Win32,60.09254252,,,,,,,,,,,,1.4517,1,,,,,,,,,,,,,,m,1,1.4517,,,,,,,,0.024739583,-0.399739583,0,0,0,,0,97,97,34,1,CANYON,HB,old,m,./images/CANYONHB.png,,,,,,,,,,,,,,,,,,,,,,,,,,,,,,,,,,,
,,,,,,,,,,,,,,,,,5e35a96ecf931055fb891c54,41,2022-02-12_16h21.42.933,lexical_decision_task_DD,2021.2.3,Win32,60.09254252,,,,,,,,,,,,4.5019,1,,,,,,,,,,,,,,z,1,4.5019,,,,,,,,0.024739583,-0.399739583,0,0,0,,0,98,98,104,1,GITTY,LB,old,z,./images/GITTYLB.png,,,,,,,,,,,,,,,,,,,,,,,,,,,,,,,,,,,
,,,,,,,,,,,,,,,,,5e35a96ecf931055fb891c54,41,2022-02-12_16h21.42.933,lexical_decision_task_DD,2021.2.3,Win32,60.09254252,,,,,,,,,,,,0.7189,1,,,,,,,,,,,,,,m,1,0.7189,,,,,,,,0.024739583,-0.399739583,0,0,0,,0,99,99,44,1,LIZARD,LB,old,m,./images/LIZARDLB.png,,,,,,,,,,,,,,,,,,,,,,,,,,,,,,,,,,,
,,,,,,,,,,,,,,,,,5e35a96ecf931055fb891c54,41,2022-02-12_16h21.42.933,lexical_decision_task_DD,2021.2.3,Win32,60.09254252,,,,,,,,,,,,0.7709,1,,,,,,,,,,,,,,z,1,0.7709,,,,,,,,0.024739583,-0.399739583,0,0,0,,0,100,100,130,1,CRILL,HB,old,z,./images/CRILLHB.png,,,,,,,,,,,,,,,,,,,,,,,,,,,,,,,,,,,
,,,,,,,,,,,,,,,,,5e35a96ecf931055fb891c54,41,2022-02-12_16h21.42.933,lexical_decision_task_DD,2021.2.3,Win32,60.09254252,,,,,,,,,,,,0.7612,1,,,,,,,,,,,,,,m,1,0.7612,,,,,,,,0.024739583,-0.399739583,0,0,0,,0,101,101,11,1,BONNET,LB,old,m,./images/BONNETLB.png,,,,,,,,,,,,,,,,,,,,,,,,,,,,,,,,,,,
,,,,,,,,,,,,,,,,,5e35a96ecf931055fb891c54,41,2022-02-12_16h21.42.933,lexical_decision_task_DD,2021.2.3,Win32,60.09254252,,,,,,,,,,,,1.6526,1,,,,,,,,,,,,,,m,1,1.6526,,,,,,,,0.024739583,-0.399739583,0,0,0,,0,102,102,52,1,BANNER,HB,old,m,./images/BANNERHB.png,,,,,,,,,,,,,,,,,,,,,,,,,,,,,,,,,,,
,,,,,,,,,,,,,,,,,5e35a96ecf931055fb891c54,41,2022-02-12_16h21.42.933,lexical_decision_task_DD,2021.2.3,Win32,60.09254252,,,,,,,,,,,,1.5131,1,,,,,,,,,,,,,,m,1,1.5131,,,,,,,,0.024739583,-0.399739583,0,0,0,,0,103,103,67,1,SAILOR,HB,old,m,./images/SAILORHB.png,,,,,,,,,,,,,,,,,,,,,,,,,,,,,,,,,,,
,,,,,,,,,,,,,,,,,5e35a96ecf931055fb891c54,41,2022-02-12_16h21.42.933,lexical_decision_task_DD,2021.2.3,Win32,60.09254252,,,,,,,,,,,,1.1538,0,,,,,,,,,,,,,,m,0,1.1538,,,,,,,,0.024739583,-0.399739583,0,0,0,,0,104,104,134,1,TROSS,LB,old,z,./images/TROSSLB.png,,,,,,,,,,,,,,,,,,,,,,,,,,,,,,,,,,,
,,,,,,,,,,,,,,,,,5e35a96ecf931055fb891c54,41,2022-02-12_16h21.42.933,lexical_decision_task_DD,2021.2.3,Win32,60.09254252,,,,,,,,,,,,0.8922,1,,,,,,,,,,,,,,z,1,0.8922,,,,,,,,0.024739583,-0.399739583,0,0,0,,0,105,105,146,1,MOOST,LB,old,z,./images/MOOSTLB.png,,,,,,,,,,,,,,,,,,,,,,,,,,,,,,,,,,,
,,,,,,,,,,,,,,,,,5e35a96ecf931055fb891c54,41,2022-02-12_16h21.42.933,lexical_decision_task_DD,2021.2.3,Win32,60.09254252,,,,,,,,,,,,1.2486,0,,,,,,,,,,,,,,z,0,1.2486,,,,,,,,0.024739583,-0.399739583,0,0,0,,0,106,106,76,1,INFANT,HB,old,m,./images/INFANTHB.png,,,,,,,,,,,,,,,,,,,,,,,,,,,,,,,,,,,
,,,,,,,,,,,,,,,,,5e35a96ecf931055fb891c54,41,2022-02-12_16h21.42.933,lexical_decision_task_DD,2021.2.3,Win32,60.09254252,,,,,,,,,,,,0.7439,1,,,,,,,,,,,,,,z,1,0.7439,,,,,,,,0.024739583,-0.399739583,0,0,0,,0,107,107,96,1,KEAMS,C,old,z,./images/KEAMS.png,,,,,,,,,,,,,,,,,,,,,,,,,,,,,,,,,,,
,,,,,,,,,,,,,,,,,5e35a96ecf931055fb891c54,41,2022-02-12_16h21.42.933,lexical_decision_task_DD,2021.2.3,Win32,60.09254252,,,,,,,,,,,,1.2271,1,,,,,,,,,,,,,,m,1,1.2271,,,,,,,,0.024739583,-0.399739583,0,0,0,,0,108,108,54,1,TRIPOD,C,old,m,./images/TRIPOD.png,,,,,,,,,,,,,,,,,,,,,,,,,,,,,,,,,,,
,,,,,,,,,,,,,,,,,5e35a96ecf931055fb891c54,41,2022-02-12_16h21.42.933,lexical_decision_task_DD,2021.2.3,Win32,60.09254252,,,,,,,,,,,,0.9951,1,,,,,,,,,,,,,,m,1,0.9951,,,,,,,,0.024739583,-0.399739583,0,0,0,,0,109,109,80,1,WEASEL,LB,old,m,./images/WEASELLB.png,,,,,,,,,,,,,,,,,,,,,,,,,,,,,,,,,,,
,,,,,,,,,,,,,,,,,5e35a96ecf931055fb891c54,41,2022-02-12_16h21.42.933,lexical_decision_task_DD,2021.2.3,Win32,60.09254252,,,,,,,,,,,,0.8165,1,,,,,,,,,,,,,,z,1,0.8165,,,,,,,,0.024739583,-0.399739583,0,0,0,,0,110,110,98,1,BAMPS,LB,old,z,./images/BAMPSLB.png,,,,,,,,,,,,,,,,,,,,,,,,,,,,,,,,,,,
,,,,,,,,,,,,,,,,,5e35a96ecf931055fb891c54,41,2022-02-12_16h21.42.933,lexical_decision_task_DD,2021.2.3,Win32,60.09254252,,,,,,,,,,,,0.7102,1,,,,,,,,,,,,,,m,1,0.7102,,,,,,,,0.024739583,-0.399739583,0,0,0,,0,111,111,9,1,RHINO,C,old,m,./images/RHINO.png,,,,,,,,,,,,,,,,,,,,,,,,,,,,,,,,,,,
,,,,,,,,,,,,,,,,,5e35a96ecf931055fb891c54,41,2022-02-12_16h21.42.933,lexical_decision_task_DD,2021.2.3,Win32,60.09254252,,,,,,,,,,,,0.9688,1,,,,,,,,,,,,,,m,1,0.9688,,,,,,,,0.024739583,-0.399739583,0,0,0,,0,112,112,5,1,PASTA,LB,old,m,./images/PASTALB.png,,,,,,,,,,,,,,,,,,,,,,,,,,,,,,,,,,,
,,,,,,,,,,,,,,,,,5e35a96ecf931055fb891c54,41,2022-02-12_16h21.42.933,lexical_decision_task_DD,2021.2.3,Win32,60.09254252,,,,,,,,,,,,1.7746,1,,,,,,,,,,,,,,z,1,1.7746,,,,,,,,0.024739583,-0.399739583,0,0,0,,0,113,113,99,1,BACKY,C,old,z,./images/BACKY.png,,,,,,,,,,,,,,,,,,,,,,,,,,,,,,,,,,,
,,,,,,,,,,,,,,,,,5e35a96ecf931055fb891c54,41,2022-02-12_16h21.42.933,lexical_decision_task_DD,2021.2.3,Win32,60.09254252,,,,,,,,,,,,0.7679,1,,,,,,,,,,,,,,m,1,0.7679,,,,,,,,0.024739583,-0.399739583,0,0,0,,0,114,114,64,1,JELLY,HB,old,m,./images/JELLYHB.png,,,,,,,,,,,,,,,,,,,,,,,,,,,,,,,,,,,
,,,,,,,,,,,,,,,,,5e35a96ecf931055fb891c54,41,2022-02-12_16h21.42.933,lexical_decision_task_DD,2021.2.3,Win32,60.09254252,,,,,,,,,,,,1.1329,1,,,,,,,,,,,,,,m,1,1.1329,,,,,,,,0.024739583,-0.399739583,0,0,0,,0,115,115,55,1,MUFFIN,HB,old,m,./images/MUFFINHB.png,,,,,,,,,,,,,,,,,,,,,,,,,,,,,,,,,,,
,,,,,,,,,,,,,,,,,5e35a96ecf931055fb891c54,41,2022-02-12_16h21.42.933,lexical_decision_task_DD,2021.2.3,Win32,60.09254252,,,,,,,,,,,,0.9715,1,,,,,,,,,,,,,,z,1,0.9715,,,,,,,,0.024739583,-0.399739583,0,0,0,,0,116,116,92,1,PAIMS,LB,old,z,./images/PAIMSLB.png,,,,,,,,,,,,,,,,,,,,,,,,,,,,,,,,,,,
,,,,,,,,,,,,,,,,,5e35a96ecf931055fb891c54,41,2022-02-12_16h21.42.933,lexical_decision_task_DD,2021.2.3,Win32,60.09254252,,,,,,,,,,,,1.1663,1,,,,,,,,,,,,,,z,1,1.1663,,,,,,,,0.024739583,-0.399739583,0,0,0,,0,117,117,140,1,DOVET,LB,old,z,./images/DOVETLB.png,,,,,,,,,,,,,,,,,,,,,,,,,,,,,,,,,,,
,,,,,,,,,,,,,,,,,5e35a96ecf931055fb891c54,41,2022-02-12_16h21.42.933,lexical_decision_task_DD,2021.2.3,Win32,60.09254252,,,,,,,,,,,,1.4826,1,,,,,,,,,,,,,,z,1,1.4826,,,,,,,,0.024739583,-0.399739583,0,0,0,,0,118,118,112,1,MYING,HB,old,z,./images/MYINGHB.png,,,,,,,,,,,,,,,,,,,,,,,,,,,,,,,,,,,
,,,,,,,,,,,,,,,,,5e35a96ecf931055fb891c54,41,2022-02-12_16h21.42.933,lexical_decision_task_DD,2021.2.3,Win32,60.09254252,,,,,,,,,,,,1.0002,1,,,,,,,,,,,,,,z,1,1.0002,,,,,,,,0.024739583,-0.399739583,0,0,0,,0,119,119,157,1,INLER,HB,old,z,./images/INLERHB.png,,,,,,,,,,,,,,,,,,,,,,,,,,,,,,,,,,,
,,,,,,,,,,,,,,,,,5e35a96ecf931055fb891c54,41,2022-02-12_16h21.42.933,lexical_decision_task_DD,2021.2.3,Win32,60.09254252,,,,,,,,,,,,0.94,1,,,,,,,,,,,,,,m,1,0.94,,,,,,,,0.024739583,-0.399739583,0,0,0,,0,120,120,69,1,COOKER,C,old,m,./images/COOKER.png,,,,,,,,,,,,,,,,,,,,,,,,,,,,,,,,,,,
,,,,,,,,,,,,,,,,,5e35a96ecf931055fb891c54,41,2022-02-12_16h21.42.933,lexical_decision_task_DD,2021.2.3,Win32,60.09254252,,,,,,,,,,,,0.7385,1,,,,,,,,,,,,,,z,1,0.7385,,,,,,,,0.024739583,-0.399739583,0,0,0,,0,121,121,144,1,NAIRY,C,old,z,./images/NAIRY.png,,,,,,,,,,,,,,,,,,,,,,,,,,,,,,,,,,,
,,,,,,,,,,,,,,,,,5e35a96ecf931055fb891c54,41,2022-02-12_16h21.42.933,lexical_decision_task_DD,2021.2.3,Win32,60.09254252,,,,,,,,,,,,1.239,1,,,,,,,,,,,,,,m,1,1.239,,,,,,,,0.024739583,-0.399739583,0,0,0,,0,122,122,46,1,PEARL,HB,old,m,./images/PEARLHB.png,,,,,,,,,,,,,,,,,,,,,,,,,,,,,,,,,,,
,,,,,,,,,,,,,,,,,5e35a96ecf931055fb891c54,41,2022-02-12_16h21.42.933,lexical_decision_task_DD,2021.2.3,Win32,60.09254252,,,,,,,,,,,,1.133,1,,,,,,,,,,,,,,m,1,1.133,,,,,,,,0.024739583,-0.399739583,0,0,0,,0,123,123,28,1,FALCON,HB,old,m,./images/FALCONHB.png,,,,,,,,,,,,,,,,,,,,,,,,,,,,,,,,,,,
,,,,,,,,,,,,,,,,,5e35a96ecf931055fb891c54,41,2022-02-12_16h21.42.933,lexical_decision_task_DD,2021.2.3,Win32,60.09254252,,,,,,,,,,,,4.5675,1,,,,,,,,,,,,,,z,1,4.5675,,,,,,,,0.024739583,-0.399739583,0,0,0,,0,124,124,94,1,BLANS,HB,old,z,./images/BLANSHB.png,,,,,,,,,,,,,,,,,,,,,,,,,,,,,,,,,,,
,,,,,,,,,,,,,,,,,5e35a96ecf931055fb891c54,41,2022-02-12_16h21.42.933,lexical_decision_task_DD,2021.2.3,Win32,60.09254252,,,,,,,,,,,,1.5218,1,,,,,,,,,,,,,,z,1,1.5218,,,,,,,,0.024739583,-0.399739583,0,0,0,space,0,125,125,115,1,MAWNS,HB,old,z,./images/MAWNSHB.png,67.273,,,,,,,,,,,,,,,,,,,,,,,,,,,,,,,,,,
,,,,,,,,,,,,,,,,,5e35a96ecf931055fb891c54,41,2022-02-12_16h21.42.933,lexical_decision_task_DD,2021.2.3,Win32,60.09254252,,,,,,,,,,,,1.9021,0,,,,,,,,,,,,,,m,0,1.9021,,,,,,,,0.024739583,-0.399739583,0,0,0,,0,126,126,110,1,CRUNK,LB,old,z,./images/CRUNKLB.png,,,,,,,,,,,,,,,,,,,,,,,,,,,,,,,,,,,
,,,,,,,,,,,,,,,,,5e35a96ecf931055fb891c54,41,2022-02-12_16h21.42.933,lexical_decision_task_DD,2021.2.3,Win32,60.09254252,,,,,,,,,,,,1.5674,1,,,,,,,,,,,,,,z,1,1.5674,,,,,,,,0.024739583,-0.399739583,0,0,0,,0,127,127,116,1,BALGY,LB,old,z,./images/BALGYLB.png,,,,,,,,,,,,,,,,,,,,,,,,,,,,,,,,,,,
,,,,,,,,,,,,,,,,,5e35a96ecf931055fb891c54,41,2022-02-12_16h21.42.933,lexical_decision_task_DD,2021.2.3,Win32,60.09254252,,,,,,,,,,,,0.8282,1,,,,,,,,,,,,,,m,1,0.8282,,,,,,,,0.024739583,-0.399739583,0,0,0,,0,128,128,61,1,CANDLE,HB,old,m,./images/CANDLEHB.png,,,,,,,,,,,,,,,,,,,,,,,,,,,,,,,,,,,
,,,,,,,,,,,,,,,,,5e35a96ecf931055fb891c54,41,2022-02-12_16h21.42.933,lexical_decision_task_DD,2021.2.3,Win32,60.09254252,,,,,,,,,,,,1.0663,1,,,,,,,,,,,,,,m,1,1.0663,,,,,,,,0.024739583,-0.399739583,0,0,0,,0,129,129,37,1,BIRTH,HB,old,m,./images/BIRTHHB.png,,,,,,,,,,,,,,,,,,,,,,,,,,,,,,,,,,,
,,,,,,,,,,,,,,,,,5e35a96ecf931055fb891c54,41,2022-02-12_16h21.42.933,lexical_decision_task_DD,2021.2.3,Win32,60.09254252,,,,,,,,,,,,0.5783,1,,,,,,,,,,,,,,m,1,0.5783,,,,,,,,0.024739583,-0.399739583,0,0,0,,0,130,130,51,1,ONION,C,old,m,./images/ONION.png,,,,,,,,,,,,,,,,,,,,,,,,,,,,,,,,,,,
,,,,,,,,,,,,,,,,,5e35a96ecf931055fb891c54,41,2022-02-12_16h21.42.933,lexical_decision_task_DD,2021.2.3,Win32,60.09254252,,,,,,,,,,,,0.6832,1,,,,,,,,,,,,,,z,1,0.6832,,,,,,,,0.024739583,-0.399739583,0,0,0,,0,131,131,95,1,HANTY,LB,old,z,./images/HANTYLB.png,,,,,,,,,,,,,,,,,,,,,,,,,,,,,,,,,,,
,,,,,,,,,,,,,,,,,5e35a96ecf931055fb891c54,41,2022-02-12_16h21.42.933,lexical_decision_task_DD,2021.2.3,Win32,60.09254252,,,,,,,,,,,,0.7195,1,,,,,,,,,,,,,,z,1,0.7195,,,,,,,,0.024739583,-0.399739583,0,0,0,,0,132,132,150,1,NOOLS,C,old,z,./images/NOOLS.png,,,,,,,,,,,,,,,,,,,,,,,,,,,,,,,,,,,
,,,,,,,,,,,,,,,,,5e35a96ecf931055fb891c54,41,2022-02-12_16h21.42.933,lexical_decision_task_DD,2021.2.3,Win32,60.09254252,,,,,,,,,,,,1.2158,1,,,,,,,,,,,,,,m,1,1.2158,,,,,,,,0.024739583,-0.399739583,0,0,0,,0,133,133,58,1,BABOON,HB,old,m,./images/BABOONHB.png,,,,,,,,,,,,,,,,,,,,,,,,,,,,,,,,,,,
,,,,,,,,,,,,,,,,,5e35a96ecf931055fb891c54,41,2022-02-12_16h21.42.933,lexical_decision_task_DD,2021.2.3,Win32,60.09254252,,,,,,,,,,,,0.9353,1,,,,,,,,,,,,,,m,1,0.9353,,,,,,,,0.024739583,-0.399739583,0,0,0,,0,134,134,4,1,MUSCLE,HB,old,m,./images/MUSCLEHB.png,,,,,,,,,,,,,,,,,,,,,,,,,,,,,,,,,,,
,,,,,,,,,,,,,,,,,5e35a96ecf931055fb891c54,41,2022-02-12_16h21.42.933,lexical_decision_task_DD,2021.2.3,Win32,60.09254252,,,,,,,,,,,,0.5483,1,,,,,,,,,,,,,,m,1,0.5483,,,,,,,,0.024739583,-0.399739583,0,0,0,,0,135,135,63,1,MIRROR,C,old,m,./images/MIRROR.png,,,,,,,,,,,,,,,,,,,,,,,,,,,,,,,,,,,
,,,,,,,,,,,,,,,,,5e35a96ecf931055fb891c54,41,2022-02-12_16h21.42.933,lexical_decision_task_DD,2021.2.3,Win32,60.09254252,,,,,,,,,,,,0.6887,1,,,,,,,,,,,,,,z,1,0.6887,,,,,,,,0.024739583,-0.399739583,0,0,0,,0,136,136,161,1,BLAPS,LB,old,z,./images/BLAPSLB.png,,,,,,,,,,,,,,,,,,,,,,,,,,,,,,,,,,,
,,,,,,,,,,,,,,,,,5e35a96ecf931055fb891c54,41,2022-02-12_16h21.42.933,lexical_decision_task_DD,2021.2.3,Win32,60.09254252,,,,,,,,,,,,1.1906,1,,,,,,,,,,,,,,z,1,1.1906,,,,,,,,0.024739583,-0.399739583,0,0,0,,0,137,137,122,1,BLOOT,LB,old,z,./images/BLOOTLB.png,,,,,,,,,,,,,,,,,,,,,,,,,,,,,,,,,,,
,,,,,,,,,,,,,,,,,5e35a96ecf931055fb891c54,41,2022-02-12_16h21.42.933,lexical_decision_task_DD,2021.2.3,Win32,60.09254252,,,,,,,,,,,,0.9498,1,,,,,,,,,,,,,,m,1,0.9498,,,,,,,,0.024739583,-0.399739583,0,0,0,,0,138,138,41,1,STRING,LB,old,m,./images/STRINGLB.png,,,,,,,,,,,,,,,,,,,,,,,,,,,,,,,,,,,
,,,,,,,,,,,,,,,,,5e35a96ecf931055fb891c54,41,2022-02-12_16h21.42.933,lexical_decision_task_DD,2021.2.3,Win32,60.09254252,,,,,,,,,,,,1.1573,1,,,,,,,,,,,,,,z,1,1.1573,,,,,,,,0.024739583,-0.399739583,0,0,0,,0,139,139,154,1,THINT,HB,old,z,./images/THINTHB.png,,,,,,,,,,,,,,,,,,,,,,,,,,,,,,,,,,,
,,,,,,,,,,,,,,,,,5e35a96ecf931055fb891c54,41,2022-02-12_16h21.42.933,lexical_decision_task_DD,2021.2.3,Win32,60.09254252,,,,,,,,,,,,0.941,1,,,,,,,,,,,,,,z,1,0.941,,,,,,,,0.024739583,-0.399739583,0,0,0,,0,140,140,141,1,PLEET,C,old,z,./images/PLEET.png,,,,,,,,,,,,,,,,,,,,,,,,,,,,,,,,,,,
,,,,,,,,,,,,,,,,,5e35a96ecf931055fb891c54,41,2022-02-12_16h21.42.933,lexical_decision_task_DD,2021.2.3,Win32,60.09254252,,,,,,,,,,,,0.6691,1,,,,,,,,,,,,,,m,1,0.6691,,,,,,,,0.024739583,-0.399739583,0,0,0,,0,141,141,32,1,BARREL,LB,old,m,./images/BARRELLB.png,,,,,,,,,,,,,,,,,,,,,,,,,,,,,,,,,,,
,,,,,,,,,,,,,,,,,5e35a96ecf931055fb891c54,41,2022-02-12_16h21.42.933,lexical_decision_task_DD,2021.2.3,Win32,60.09254252,,,,,,,,,,,,3.9813,1,,,,,,,,,,,,,,z,1,3.9813,,,,,,,,0.024739583,-0.399739583,0,0,0,,0,142,142,106,1,CLUMS,HB,old,z,./images/CLUMSHB.png,,,,,,,,,,,,,,,,,,,,,,,,,,,,,,,,,,,
,,,,,,,,,,,,,,,,,5e35a96ecf931055fb891c54,41,2022-02-12_16h21.42.933,lexical_decision_task_DD,2021.2.3,Win32,60.09254252,,,,,,,,,,,,2.4402,1,,,,,,,,,,,,,,z,1,2.4402,,,,,,,,0.024739583,-0.399739583,0,0,0,,0,143,143,105,1,MOKER,C,old,z,./images/MOKER.png,,,,,,,,,,,,,,,,,,,,,,,,,,,,,,,,,,,
,,,,,,,,,,,,,,,,,5e35a96ecf931055fb891c54,41,2022-02-12_16h21.42.933,lexical_decision_task_DD,2021.2.3,Win32,60.09254252,,,,,,,,,,,,0.6842,1,,,,,,,,,,,,,,m,1,0.6842,,,,,,,,0.024739583,-0.399739583,0,0,0,,0,144,144,71,1,PIMPLE,LB,old,m,./images/PIMPLELB.png,,,,,,,,,,,,,,,,,,,,,,,,,,,,,,,,,,,
,,,,,,,,,,,,,,,,,5e35a96ecf931055fb891c54,41,2022-02-12_16h21.42.933,lexical_decision_task_DD,2021.2.3,Win32,60.09254252,,,,,,,,,,,,1.592,1,,,,,,,,,,,,,,m,1,1.592,,,,,,,,0.024739583,-0.399739583,0,0,0,,0,145,145,70,1,URINE,HB,old,m,./images/URINEHB.png,,,,,,,,,,,,,,,,,,,,,,,,,,,,,,,,,,,
,,,,,,,,,,,,,,,,,5e35a96ecf931055fb891c54,41,2022-02-12_16h21.42.933,lexical_decision_task_DD,2021.2.3,Win32,60.09254252,,,,,,,,,,,,1.1023,1,,,,,,,,,,,,,,m,1,1.1023,,,,,,,,0.024739583,-0.399739583,0,0,0,,0,146,146,2,1,BEARD,LB,old,m,./images/BEARDLB.png,,,,,,,,,,,,,,,,,,,,,,,,,,,,,,,,,,,
,,,,,,,,,,,,,,,,,5e35a96ecf931055fb891c54,41,2022-02-12_16h21.42.933,lexical_decision_task_DD,2021.2.3,Win32,60.09254252,,,,,,,,,,,,2.0322,1,,,,,,,,,,,,,,z,1,2.0322,,,,,,,,0.024739583,-0.399739583,0,0,0,,0,147,147,151,1,TINKY,HB,old,z,./images/TINKYHB.png,,,,,,,,,,,,,,,,,,,,,,,,,,,,,,,,,,,
,,,,,,,,,,,,,,,,,5e35a96ecf931055fb891c54,41,2022-02-12_16h21.42.933,lexical_decision_task_DD,2021.2.3,Win32,60.09254252,,,,,,,,,,,,0.6334,1,,,,,,,,,,,,,,m,1,0.6334,,,,,,,,0.024739583,-0.399739583,0,0,0,,0,148,148,35,1,PEACH,LB,old,m,./images/PEACHLB.png,,,,,,,,,,,,,,,,,,,,,,,,,,,,,,,,,,,
,,,,,,,,,,,,,,,,,5e35a96ecf931055fb891c54,41,2022-02-12_16h21.42.933,lexical_decision_task_DD,2021.2.3,Win32,60.09254252,,,,,,,,,,,,1.6715,1,,,,,,,,,,,,,,z,1,1.6715,,,,,,,,0.024739583,-0.399739583,0,0,0,,0,149,149,156,1,HIXES,C,old,z,./images/HIXES.png,,,,,,,,,,,,,,,,,,,,,,,,,,,,,,,,,,,
,,,,,,,,,,,,,,,,,5e35a96ecf931055fb891c54,41,2022-02-12_16h21.42.933,lexical_decision_task_DD,2021.2.3,Win32,60.09254252,,,,,,,,,,,,1.0251,1,,,,,,,,,,,,,,m,1,1.0251,,,,,,,,0.024739583,-0.399739583,0,0,0,,0,150,150,56,1,PACKET,LB,old,m,./images/PACKETLB.png,,,,,,,,,,,,,,,,,,,,,,,,,,,,,,,,,,,
,,,,,,,,,,,,,,,,,5e35a96ecf931055fb891c54,41,2022-02-12_16h21.42.933,lexical_decision_task_DD,2021.2.3,Win32,60.09254252,,,,,,,,,,,,0.6009,1,,,,,,,,,,,,,,m,1,0.6009,,,,,,,,0.024739583,-0.399739583,0,0,0,,0,151,151,65,1,FARMER,LB,old,m,./images/FARMERLB.png,,,,,,,,,,,,,,,,,,,,,,,,,,,,,,,,,,,
,,,,,,,,,,,,,,,,,5e35a96ecf931055fb891c54,41,2022-02-12_16h21.42.933,lexical_decision_task_DD,2021.2.3,Win32,60.09254252,,,,,,,,,,,,1.7687,1,,,,,,,,,,,,,,z,1,1.7687,,,,,,,,0.024739583,-0.399739583,0,0,0,,0,152,152,120,1,RINED,C,old,z,./images/RINED.png,,,,,,,,,,,,,,,,,,,,,,,,,,,,,,,,,,,
,,,,,,,,,,,,,,,,,5e35a96ecf931055fb891c54,41,2022-02-12_16h21.42.933,lexical_decision_task_DD,2021.2.3,Win32,60.09254252,,,,,,,,,,,,0.6271,1,,,,,,,,,,,,,,m,1,0.6271,,,,,,,,0.024739583,-0.399739583,0,0,0,,0,153,153,24,1,SCREW,C,old,m,./images/SCREW.png,,,,,,,,,,,,,,,,,,,,,,,,,,,,,,,,,,,
,,,,,,,,,,,,,,,,,5e35a96ecf931055fb891c54,41,2022-02-12_16h21.42.933,lexical_decision_task_DD,2021.2.3,Win32,60.09254252,,,,,,,,,,,,1.011,1,,,,,,,,,,,,,,m,1,1.011,,,,,,,,0.05859375,-0.389322917,0,0,0,,0,154,154,1,1,PLANK,HB,old,m,./images/PLANKHB.png,,,,,,,,,,,,,,,,,,,,,,,,,,,,,,,,,,,
,,,,,,,,,,,,,,,,,5e35a96ecf931055fb891c54,41,2022-02-12_16h21.42.933,lexical_decision_task_DD,2021.2.3,Win32,60.09254252,,,,,,,,,,,,1.3047,1,,,,,,,,,,,,,,z,1,1.3047,,,,,,,,0.05859375,-0.389322917,0,0,0,,0,155,155,103,1,FLORT,HB,old,z,./images/FLORTHB.png,,,,,,,,,,,,,,,,,,,,,,,,,,,,,,,,,,,
,,,,,,,,,,,,,,,,,5e35a96ecf931055fb891c54,41,2022-02-12_16h21.42.933,lexical_decision_task_DD,2021.2.3,Win32,60.09254252,,,,,,,,,,,,0.7663,1,,,,,,,,,,,,,,m,1,0.7663,,,,,,,,0.05859375,-0.389322917,0,0,0,,0,156,156,66,1,SWEAT,C,old,m,./images/SWEAT.png,,,,,,,,,,,,,,,,,,,,,,,,,,,,,,,,,,,
,,,,,,,,,,,,,,,,,5e35a96ecf931055fb891c54,41,2022-02-12_16h21.42.933,lexical_decision_task_DD,2021.2.3,Win32,60.09254252,,,,,,,,,,,,2.5811,1,,,,,,,,,,,,,,z,1,2.5811,,,,,,,,0.05859375,-0.389322917,0,0,0,,0,157,157,97,1,CHIDS,HB,old,z,./images/CHIDSHB.png,,,,,,,,,,,,,,,,,,,,,,,,,,,,,,,,,,,
,,,,,,,,,,,,,,,,,5e35a96ecf931055fb891c54,41,2022-02-12_16h21.42.933,lexical_decision_task_DD,2021.2.3,Win32,60.09254252,,,,,,,,,,,,0.6097,1,,,,,,,,,,,,,,z,1,0.6097,,,,,,,,0.05859375,-0.389322917,0,0,0,,0,158,158,147,1,ZOLES,C,old,z,./images/ZOLES.png,,,,,,,,,,,,,,,,,,,,,,,,,,,,,,,,,,,
,,,,,,,,,,,,,,,,,5e35a96ecf931055fb891c54,41,2022-02-12_16h21.42.933,lexical_decision_task_DD,2021.2.3,Win32,60.09254252,,,,,,,,,,,,0.7189,1,,,,,,,,,,,,,,z,1,0.7189,,,,,,,,0.05859375,-0.389322917,0,0,0,,0,159,159,117,1,STEEG,C,old,z,./images/STEEG.png,,,,,,,,,,,,,,,,,,,,,,,,,,,,,,,,,,,
,,,,,,,,,,,,,,,,,5e35a96ecf931055fb891c54,41,2022-02-12_16h21.42.933,lexical_decision_task_DD,2021.2.3,Win32,60.09254252,,,,,,,,,,,,0.9609,1,,,,,,,,,,,,,,z,1,0.9609,,,,,,,,0.05859375,-0.389322917,0,0,0,,0,160,160,129,1,PRANS,C,old,z,./images/PRANS.png,,,,,,,,,,,,,,,,,,,,,,,,,,,,,,,,,,,
,,,,,,,,,,,,,,,,,5e35a96ecf931055fb891c54,41,2022-02-12_16h21.42.933,lexical_decision_task_DD,2021.2.3,Win32,60.09254252,,,,,,,,,,,,0.8627,1,,,,,,,,,,,,,,m,1,0.8627,,,,,,,,0.05859375,-0.389322917,0,0,0,,0,161,161,72,1,NOOSE,C,old,m,./images/NOOSE.png,,,,,,,,,,,,,,,,,,,,,,,,,,,,,,,,,,,
,,,,,,,,,,,,,,,,,5e35a96ecf931055fb891c54,41,2022-02-12_16h21.42.933,lexical_decision_task_DD,2021.2.3,Win32,60.09254252,,,,,,,,,,,,1.6821,0,,,,,,,,,,,,,,m,0,1.6821,,,,,,,,0.05859375,-0.389322917,0,0,0,,0,162,162,163,1,GAMBA,HB,old,z,./images/GAMBAHB.png,,,,,,,,,,,,,,,,,,,,,,,,,,,,,,,,,,,
,,,,,,,,,,,,,,,,,5e35a96ecf931055fb891c54,41,2022-02-12_16h21.42.933,lexical_decision_task_DD,2021.2.3,Win32,60.09254252,,,,,,,,,,,,3.2082,1,,,,,,,,,,,,,,m,1,3.2082,,,,,,,,0.05859375,-0.389322917,0,0,0,,0,163,163,31,1,QUILL,HB,old,m,./images/QUILLHB.png,,,,,,,,,,,,,,,,,,,,,,,,,,,,,,,,,,,
,,,,,,,,,,,,,,,,,5e35a96ecf931055fb891c54,41,2022-02-12_16h21.42.933,lexical_decision_task_DD,2021.2.3,Win32,60.09254252,,,,,,,,,,,,0.846,1,,,,,,,,,,,,,,m,1,0.846,,,,,,,,0.05859375,-0.389322917,0,0,0,,0,164,164,12,1,SHORE,C,old,m,./images/SHORE.png,,,,,,,,,,,,,,,,,,,,,,,,,,,,,,,,,,,
,,,,,,,,,,,,,,,,,5e35a96ecf931055fb891c54,41,2022-02-12_16h21.42.933,lexical_decision_task_DD,2021.2.3,Win32,60.09254252,,,,,,,,,,,,3.3427,1,,,,,,,,,,,,,,z,1,3.3427,,,,,,,,0.05859375,-0.389322917,0,0,0,,0,165,165,133,1,POWDY,HB,old,z,./images/POWDYHB.png,,,,,,,,,,,,,,,,,,,,,,,,,,,,,,,,,,,
,,,,,,,,,,,,,,,,,5e35a96ecf931055fb891c54,41,2022-02-12_16h21.42.933,lexical_decision_task_DD,2021.2.3,Win32,60.09254252,,,,,,,,,,,,0.7161,1,,,,,,,,,,,,,,m,1,0.7161,,,,,,,,0.05859375,-0.389322917,0,0,0,,0,166,166,68,1,TORCH,LB,old,m,./images/TORCHLB.png,,,,,,,,,,,,,,,,,,,,,,,,,,,,,,,,,,,
,,,,,,,,,,,,,,,,,5e35a96ecf931055fb891c54,41,2022-02-12_16h21.42.933,lexical_decision_task_DD,2021.2.3,Win32,60.09254252,,,,,,,,,,,,0.8017,1,,,,,,,,,,,,,,m,1,0.8017,,,,,,,,0.05859375,-0.389322917,0,0,0,,0,167,167,10,1,BELLY,HB,old,m,./images/BELLYHB.png,,,,,,,,,,,,,,,,,,,,,,,,,,,,,,,,,,,
,,,,,,,,,,,,,,,,,5e35a96ecf931055fb891c54,41,2022-02-12_16h21.42.933,lexical_decision_task_DD,2021.2.3,Win32,60.09254252,,,,,,,,,,,,,,,,,,,,,,,,,,,,,,,,,,,,,,,,,,,,,,,,,How likely will it be that you will recognize the words presented very blurred on a scale of 0 (not likely) to 100 (most likely)?,,,,,0.018229167,-0.391927083,1,0,0,jol_adv,2,5.6231,0,0,0,2,1,,,,,,,,,,,,,,,,,,,,,
,,,,,,,,,,,,,,,,,5e35a96ecf931055fb891c54,41,2022-02-12_16h21.42.933,lexical_decision_task_DD,2021.2.3,Win32,60.09254252,,,,,,,,,,,,,,,,,,,,,,,,,,,,,,,,,,,,,,,,,,,,,,,,,How likely will it be that you will recognize the words presented clearly on a scale of 0 (not likely) to 100 (most likely)?,,,,,,,,,,,6,10.1689,0,1,1,0,1,,,,,,,,,,,,,,,,,,,,,
,,,,,,,,,,,,,,,,,5e35a96ecf931055fb891c54,41,2022-02-12_16h21.42.933,lexical_decision_task_DD,2021.2.3,Win32,60.09254252,,,,,,,,,,,,,,,,,,,,,,,,,,,,,,,,,,,,,,,,,,,,,,,,,How likely will it be that you will recognize the words presented slighly blurred on a scale of 0 (not likely) to 100 (most likely)?,,,,,,,,,,,3,5.4292,0,2,2,1,1,,,,,,,,,,,,,,,,,,,,,
,,-0.009114583,-0.390625,1,0,0,,,,,,1,test,"In the next phase you will be presented with the words from the the first phase. Your job is to decide whether you remember seeing the word or not. If you remember seeing the word press ""old"" or type ""m"". If you do not remember seeing the word press ""new"" or type ""z"". Please press the space bar or click on continue to begin. ",,,5e35a96ecf931055fb891c54,41,2022-02-12_16h21.42.933,lexical_decision_task_DD,2021.2.3,Win32,60.09254252,instr_done_button,,,,,,,,,,,,,,,,,,,,,,,,,,,,,,,,,,,,,,,,,,,,,,,,,,,,,,,,,,,,,,,,,,0,0,0,0,1,,,,,,,,,,,,,,,,
space,2.3235,-0.006510417,-0.391927083,0,0,0,,,,,,1,test,"In the next phase you will be presented with the words from the the first phase. Your job is to decide whether you remember seeing the word or not. If you remember seeing the word press ""old"" or type ""m"". If you do not remember seeing the word press ""new"" or type ""z"". Please press the space bar or click on continue to begin. ",,,5e35a96ecf931055fb891c54,41,2022-02-12_16h21.42.933,lexical_decision_task_DD,2021.2.3,Win32,60.09254252,,,,,,,,,,,,,,,,,,,,,,,,,,,,,,,,,,,,,,,,,,,,,,,,,,,,,,,,,,,,,,,,,,,1,0,1,0,1,,,,,,,,,,,,,,,,
,,0.015625,-0.415364583,1,0,0,,,,,,1,test,"In the next phase you will be presented with the words from the the first phase. Your job is to decide whether you remember seeing the word or not. If you remember seeing the word press ""old"" or type ""m"". If you do not remember seeing the word press ""new"" or type ""z"". Please press the space bar or click on continue to begin. ",,,5e35a96ecf931055fb891c54,41,2022-02-12_16h21.42.933,lexical_decision_task_DD,2021.2.3,Win32,60.09254252,instr_done_button,,,,,,,,,,,,,,,,,,,,,,,,,,,,,,,,,,,,,,,,,,,,,,,,,,,,,,,,,,,,,,,,,,2,0,2,0,1,,,,,,,,,,,,,,,,
,,0.0078125,-0.403645833,1,0,0,,,,,,1,test,"In the next phase you will be presented with the words from the the first phase. Your job is to decide whether you remember seeing the word or not. If you remember seeing the word press ""old"" or type ""m"". If you do not remember seeing the word press ""new"" or type ""z"". Please press the space bar or click on continue to begin. ",,,5e35a96ecf931055fb891c54,41,2022-02-12_16h21.42.933,lexical_decision_task_DD,2021.2.3,Win32,60.09254252,instr_done_button,,,,,,,,,,,,,,,,,,,,,,,,,,,,,,,,,,,,,,,,,,,,,,,,,,,,,,,,,,,,,,,,,,3,0,3,0,1,,,,,,,,,,,,,,,,
space,0.7156,0.0078125,-0.403645833,0,0,0,,,,,,1,test,"In the next phase you will be presented with the words from the the first phase. Your job is to decide whether you remember seeing the word or not. If you remember seeing the word press ""old"" or type ""m"". If you do not remember seeing the word press ""new"" or type ""z"". Please press the space bar or click on continue to begin. ",,,5e35a96ecf931055fb891c54,41,2022-02-12_16h21.42.933,lexical_decision_task_DD,2021.2.3,Win32,60.09254252,,,,,,,,,,,,,,,,,,,,,,,,,,,,,,,,,,,,,,,,,,,,,,,,,,,,,,,,,,,,,,,,,,,4,0,4,0,1,,,,,,,,,,,,,,,,
,,,,,,,,,,,,,,,,,5e35a96ecf931055fb891c54,41,2022-02-12_16h21.42.933,lexical_decision_task_DD,2021.2.3,Win32,60.09254252,,,,,,,,,,,,3.1318,1,,,,,,,,,,,,,,,,,,,,,,,,-0.268229167,-0.330729167,0,0,0,,,,,,,RULER,HB,z,m,./images/RULERHB.png,,,,,,,,,,,,,,,,,,,,z,1,3.1318,,,,,,,,0,0,0,163,1,
,,,,,,,,,,,,,,,,,5e35a96ecf931055fb891c54,41,2022-02-12_16h21.42.933,lexical_decision_task_DD,2021.2.3,Win32,60.09254252,,,,,,,,,,,,2.0155,1,,,,,,,,,,,,,,,,,,,,,,,,-0.268229167,-0.330729167,0,0,0,,,,,,,SPORT,C,m,m,./images/SPORT.png,,,,,,,,,,,,,,,,,,,,m,1,2.0155,,,,,,,,0,1,1,48,1,
,,,,,,,,,,,,,,,,,5e35a96ecf931055fb891c54,41,2022-02-12_16h21.42.933,lexical_decision_task_DD,2021.2.3,Win32,60.09254252,,,,,,,,,,,,2.5815,1,,,,,,,,,,,,,,,,,,,,,,,,-0.268229167,-0.330729167,0,0,0,,,,,,,MOTOR,HB,m,m,./images/MOTORHB.png,,,,,,,,,,,,,,,,,,,,m,1,2.5815,,,,,,,,0,2,2,13,1,
,,,,,,,,,,,,,,,,,5e35a96ecf931055fb891c54,41,2022-02-12_16h21.42.933,lexical_decision_task_DD,2021.2.3,Win32,60.09254252,,,,,,,,,,,,3.3713,0,,,,,,,,,,,,,,,,,,,,,,,,-0.268229167,-0.330729167,0,0,0,,,,,,,GARDEN,HB,z,m,./images/GARDENHB.png,,,,,,,,,,,,,,,,,,,,m,0,3.3713,,,,,,,,0,3,3,94,1,
,,,,,,,,,,,,,,,,,5e35a96ecf931055fb891c54,41,2022-02-12_16h21.42.933,lexical_decision_task_DD,2021.2.3,Win32,60.09254252,,,,,,,,,,,,1.3031,1,,,,,,,,,,,,,,,,,,,,,,,,-0.268229167,-0.330729167,0,0,0,,,,,,,CLOTH,LB,z,m,./images/CLOTHLB.png,,,,,,,,,,,,,,,,,,,,z,1,1.3031,,,,,,,,0,4,4,107,1,
,,,,,,,,,,,,,,,,,5e35a96ecf931055fb891c54,41,2022-02-12_16h21.42.933,lexical_decision_task_DD,2021.2.3,Win32,60.09254252,,,,,,,,,,,,1.6361,1,,,,,,,,,,,,,,,,,,,,,,,,-0.268229167,-0.330729167,0,0,0,,,,,,,SHELF,C,m,m,./images/SHELF.png,,,,,,,,,,,,,,,,,,,,m,1,1.6361,,,,,,,,0,5,5,39,1,
,,,,,,,,,,,,,,,,,5e35a96ecf931055fb891c54,41,2022-02-12_16h21.42.933,lexical_decision_task_DD,2021.2.3,Win32,60.09254252,,,,,,,,,,,,0.8675,1,,,,,,,,,,,,,,,,,,,,,,,,-0.268229167,-0.330729167,0,0,0,,,,,,,FARMER,LB,m,m,./images/FARMERLB.png,,,,,,,,,,,,,,,,,,,,m,1,0.8675,,,,,,,,0,6,6,65,1,
,,,,,,,,,,,,,,,,,5e35a96ecf931055fb891c54,41,2022-02-12_16h21.42.933,lexical_decision_task_DD,2021.2.3,Win32,60.09254252,,,,,,,,,,,,0.8164,1,,,,,,,,,,,,,,,,,,,,,,,,-0.268229167,-0.330729167,0,0,0,,,,,,,PICKLE,LB,m,m,./images/PICKLELB.png,,,,,,,,,,,,,,,,,,,,m,1,0.8164,,,,,,,,0,7,7,14,1,
,,,,,,,,,,,,,,,,,5e35a96ecf931055fb891c54,41,2022-02-12_16h21.42.933,lexical_decision_task_DD,2021.2.3,Win32,60.09254252,,,,,,,,,,,,1.3993,0,,,,,,,,,,,,,,,,,,,,,,,,-0.268229167,-0.330729167,0,0,0,,,,,,,PILOT,LB,z,m,./images/PILOTLB.png,,,,,,,,,,,,,,,,,,,,m,0,1.3993,,,,,,,,0,8,8,134,1,
,,,,,,,,,,,,,,,,,5e35a96ecf931055fb891c54,41,2022-02-12_16h21.42.933,lexical_decision_task_DD,2021.2.3,Win32,60.09254252,,,,,,,,,,,,1.1008,0,,,,,,,,,,,,,,,,,,,,,,,,-0.268229167,-0.330729167,0,0,0,,,,,,,STOVE,LB,z,m,./images/STOVELB.png,,,,,,,,,,,,,,,,,,,,m,0,1.1008,,,,,,,,0,9,9,86,1,
,,,,,,,,,,,,,,,,,5e35a96ecf931055fb891c54,41,2022-02-12_16h21.42.933,lexical_decision_task_DD,2021.2.3,Win32,60.09254252,,,,,,,,,,,,1.0837,1,,,,,,,,,,,,,,,,,,,,,,,,-0.268229167,-0.330729167,0,0,0,,,,,,,VALLEY,LB,z,m,./images/VALLEYLB.png,,,,,,,,,,,,,,,,,,,,z,1,1.0837,,,,,,,,0,10,10,152,1,
,,,,,,,,,,,,,,,,,5e35a96ecf931055fb891c54,41,2022-02-12_16h21.42.933,lexical_decision_task_DD,2021.2.3,Win32,60.09254252,,,,,,,,,,,,1.8106,1,,,,,,,,,,,,,,,,,,,,,,,,-0.268229167,-0.330729167,0,0,0,,,,,,,ENGINE,LB,z,m,./images/ENGINELB.png,,,,,,,,,,,,,,,,,,,,z,1,1.8106,,,,,,,,0,11,11,122,1,
,,,,,,,,,,,,,,,,,5e35a96ecf931055fb891c54,41,2022-02-12_16h21.42.933,lexical_decision_task_DD,2021.2.3,Win32,60.09254252,,,,,,,,,,,,1.216,0,,,,,,,,,,,,,,,,,,,,,,,,-0.268229167,-0.330729167,0,0,0,,,,,,,GLOVE,HB,z,m,./images/GLOVEHB.png,,,,,,,,,,,,,,,,,,,,m,0,1.216,,,,,,,,0,12,12,157,1,
,,,,,,,,,,,,,,,,,5e35a96ecf931055fb891c54,41,2022-02-12_16h21.42.933,lexical_decision_task_DD,2021.2.3,Win32,60.09254252,,,,,,,,,,,,0.6502,1,,,,,,,,,,,,,,,,,,,,,,,,-0.268229167,-0.330729167,0,0,0,,,,,,,TORCH,LB,m,m,./images/TORCHLB.png,,,,,,,,,,,,,,,,,,,,m,1,0.6502,,,,,,,,0,13,13,68,1,
,,,,,,,,,,,,,,,,,5e35a96ecf931055fb891c54,41,2022-02-12_16h21.42.933,lexical_decision_task_DD,2021.2.3,Win32,60.09254252,,,,,,,,,,,,0.9664,1,,,,,,,,,,,,,,,,,,,,,,,,-0.268229167,-0.330729167,0,0,0,,,,,,,GRAPE,HB,z,m,./images/GRAPEHB.png,,,,,,,,,,,,,,,,,,,,z,1,0.9664,,,,,,,,0,14,14,100,1,
,,,,,,,,,,,,,,,,,5e35a96ecf931055fb891c54,41,2022-02-12_16h21.42.933,lexical_decision_task_DD,2021.2.3,Win32,60.09254252,,,,,,,,,,,,1.5534,1,,,,,,,,,,,,,,,,,,,,,,,,-0.268229167,-0.330729167,0,0,0,,,,,,,TIGER,HB,z,m,./images/TIGERHB.png,,,,,,,,,,,,,,,,,,,,z,1,1.5534,,,,,,,,0,15,15,121,1,
,,,,,,,,,,,,,,,,,5e35a96ecf931055fb891c54,41,2022-02-12_16h21.42.933,lexical_decision_task_DD,2021.2.3,Win32,60.09254252,,,,,,,,,,,,1.0714,0,,,,,,,,,,,,,,,,,,,,,,,,-0.268229167,-0.330729167,0,0,0,,,,,,,STREAM,LB,z,m,./images/STREAMLB.png,,,,,,,,,,,,,,,,,,,,m,0,1.0714,,,,,,,,0,16,16,125,1,
,,,,,,,,,,,,,,,,,5e35a96ecf931055fb891c54,41,2022-02-12_16h21.42.933,lexical_decision_task_DD,2021.2.3,Win32,60.09254252,,,,,,,,,,,,0.7034,1,,,,,,,,,,,,,,,,,,,,,,,,-0.268229167,-0.330729167,0,0,0,,,,,,,CANDLE,HB,m,m,./images/CANDLEHB.png,,,,,,,,,,,,,,,,,,,,m,1,0.7034,,,,,,,,0,17,17,61,1,
,,,,,,,,,,,,,,,,,5e35a96ecf931055fb891c54,41,2022-02-12_16h21.42.933,lexical_decision_task_DD,2021.2.3,Win32,60.09254252,,,,,,,,,,,,1.2166,1,,,,,,,,,,,,,,,,,,,,,,,,-0.268229167,-0.330729167,0,0,0,,,,,,,MONKEY,C,z,m,./images/MONKEY.png,,,,,,,,,,,,,,,,,,,,z,1,1.2166,,,,,,,,0,18,18,129,1,
,,,,,,,,,,,,,,,,,5e35a96ecf931055fb891c54,41,2022-02-12_16h21.42.933,lexical_decision_task_DD,2021.2.3,Win32,60.09254252,,,,,,,,,,,,0.7666,1,,,,,,,,,,,,,,,,,,,,,,,,-0.268229167,-0.330729167,0,0,0,,,,,,,STATUE,C,z,m,./images/STATUE.png,,,,,,,,,,,,,,,,,,,,z,1,0.7666,,,,,,,,0,19,19,150,1,
,,,,,,,,,,,,,,,,,5e35a96ecf931055fb891c54,41,2022-02-12_16h21.42.933,lexical_decision_task_DD,2021.2.3,Win32,60.09254252,,,,,,,,,,,,1.1331,1,,,,,,,,,,,,,,,,,,,,,,,,-0.268229167,-0.330729167,0,0,0,,,,,,,BISHOP,HB,z,m,./images/BISHOPHB.png,,,,,,,,,,,,,,,,,,,,z,1,1.1331,,,,,,,,0,20,20,133,1,
,,,,,,,,,,,,,,,,,5e35a96ecf931055fb891c54,41,2022-02-12_16h21.42.933,lexical_decision_task_DD,2021.2.3,Win32,60.09254252,,,,,,,,,,,,0.8002,1,,,,,,,,,,,,,,,,,,,,,,,,-0.268229167,-0.330729167,0,0,0,,,,,,,BONNET,LB,m,m,./images/BONNETLB.png,,,,,,,,,,,,,,,,,,,,m,1,0.8002,,,,,,,,0,21,21,11,1,
,,,,,,,,,,,,,,,,,5e35a96ecf931055fb891c54,41,2022-02-12_16h21.42.933,lexical_decision_task_DD,2021.2.3,Win32,60.09254252,,,,,,,,,,,,1.1165,1,,,,,,,,,,,,,,,,,,,,,,,,-0.268229167,-0.330729167,0,0,0,,,,,,,BRIDE,HB,z,m,./images/BRIDEHB.png,,,,,,,,,,,,,,,,,,,,z,1,1.1165,,,,,,,,0,22,22,148,1,
,,,,,,,,,,,,,,,,,5e35a96ecf931055fb891c54,41,2022-02-12_16h21.42.933,lexical_decision_task_DD,2021.2.3,Win32,60.09254252,,,,,,,,,,,,0.6835,1,,,,,,,,,,,,,,,,,,,,,,,,-0.268229167,-0.330729167,0,0,0,,,,,,,RHINO,C,m,m,./images/RHINO.png,,,,,,,,,,,,,,,,,,,,m,1,0.6835,,,,,,,,0,23,23,9,1,
,,,,,,,,,,,,,,,,,5e35a96ecf931055fb891c54,41,2022-02-12_16h21.42.933,lexical_decision_task_DD,2021.2.3,Win32,60.09254252,,,,,,,,,,,,0.8834,0,,,,,,,,,,,,,,,,,,,,,,,,-0.268229167,-0.330729167,0,0,0,,,,,,,PARADE,LB,z,m,./images/PARADELB.png,,,,,,,,,,,,,,,,,,,,m,0,0.8834,,,,,,,,0,24,24,101,1,
,,,,,,,,,,,,,,,,,5e35a96ecf931055fb891c54,41,2022-02-12_16h21.42.933,lexical_decision_task_DD,2021.2.3,Win32,60.09254252,,,,,,,,,,,,1.0674,1,,,,,,,,,,,,,,,,,,,,,,,,-0.268229167,-0.330729167,0,0,0,,,,,,,SKIING,LB,m,m,./images/SKIINGLB.png,,,,,,,,,,,,,,,,,,,,m,1,1.0674,,,,,,,,0,25,25,17,1,
,,,,,,,,,,,,,,,,,5e35a96ecf931055fb891c54,41,2022-02-12_16h21.42.933,lexical_decision_task_DD,2021.2.3,Win32,60.09254252,,,,,,,,,,,,1.5501,0,,,,,,,,,,,,,,,,,,,,,,,,-0.268229167,-0.330729167,0,0,0,,,,,,,BUBBLE,LB,z,m,./images/BUBBLELB.png,,,,,,,,,,,,,,,,,,,,m,0,1.5501,,,,,,,,0,26,26,155,1,
,,,,,,,,,,,,,,,,,5e35a96ecf931055fb891c54,41,2022-02-12_16h21.42.933,lexical_decision_task_DD,2021.2.3,Win32,60.09254252,,,,,,,,,,,,0.7499,1,,,,,,,,,,,,,,,,,,,,,,,,-0.268229167,-0.330729167,0,0,0,,,,,,,STOOL,HB,z,m,./images/STOOLHB.png,,,,,,,,,,,,,,,,,,,,z,1,0.7499,,,,,,,,0,27,27,127,1,
,,,,,,,,,,,,,,,,,5e35a96ecf931055fb891c54,41,2022-02-12_16h21.42.933,lexical_decision_task_DD,2021.2.3,Win32,60.09254252,,,,,,,,,,,,0.7666,1,,,,,,,,,,,,,,,,,,,,,,,,-0.268229167,-0.330729167,0,0,0,,,,,,,PIMPLE,LB,m,m,./images/PIMPLELB.png,,,,,,,,,,,,,,,,,,,,m,1,0.7666,,,,,,,,0,28,28,71,1,
,,,,,,,,,,,,,,,,,5e35a96ecf931055fb891c54,41,2022-02-12_16h21.42.933,lexical_decision_task_DD,2021.2.3,Win32,60.09254252,,,,,,,,,,,,1.5161,1,,,,,,,,,,,,,,,,,,,,,,,,-0.268229167,-0.330729167,0,0,0,,,,,,,TOMATO,C,m,m,./images/TOMATO.png,,,,,,,,,,,,,,,,,,,,m,1,1.5161,,,,,,,,0,29,29,0,1,
,,,,,,,,,,,,,,,,,5e35a96ecf931055fb891c54,41,2022-02-12_16h21.42.933,lexical_decision_task_DD,2021.2.3,Win32,60.09254252,,,,,,,,,,,,0.6337,1,,,,,,,,,,,,,,,,,,,,,,,,-0.2734375,-0.342447917,0,0,0,,,,,,,BIRTH,HB,m,m,./images/BIRTHHB.png,,,,,,,,,,,,,,,,,,,,m,1,0.6337,,,,,,,,0,30,30,37,1,
,,,,,,,,,,,,,,,,,5e35a96ecf931055fb891c54,41,2022-02-12_16h21.42.933,lexical_decision_task_DD,2021.2.3,Win32,60.09254252,,,,,,,,,,,,0.9723,0,,,,,,,,,,,,,,,,,,,,,,,,-0.272135417,-0.33984375,0,0,0,,,,,,,CHALK,HB,z,m,./images/CHALKHB.png,,,,,,,,,,,,,,,,,,,,m,0,0.9723,,,,,,,,0,31,31,109,1,
,,,,,,,,,,,,,,,,,5e35a96ecf931055fb891c54,41,2022-02-12_16h21.42.933,lexical_decision_task_DD,2021.2.3,Win32,60.09254252,,,,,,,,,,,,1.9829,1,,,,,,,,,,,,,,,,,,,,,,,,-0.268229167,-0.33984375,0,0,0,,,,,,,URINE,HB,m,m,./images/URINEHB.png,,,,,,,,,,,,,,,,,,,,m,1,1.9829,,,,,,,,0,32,32,70,1,
,,,,,,,,,,,,,,,,,5e35a96ecf931055fb891c54,41,2022-02-12_16h21.42.933,lexical_decision_task_DD,2021.2.3,Win32,60.09254252,,,,,,,,,,,,1.0833,1,,,,,,,,,,,,,,,,,,,,,,,,-0.265625,-0.341145833,0,0,0,,,,,,,MOSQUE,HB,m,m,./images/MOSQUEHB.png,,,,,,,,,,,,,,,,,,,,m,1,1.0833,,,,,,,,0,33,33,43,1,
,,,,,,,,,,,,,,,,,5e35a96ecf931055fb891c54,41,2022-02-12_16h21.42.933,lexical_decision_task_DD,2021.2.3,Win32,60.09254252,,,,,,,,,,,,1.0705,1,,,,,,,,,,,,,,,,,,,,,,,,-0.266927083,-0.342447917,0,0,0,,,,,,,QUILL,HB,m,m,./images/QUILLHB.png,,,,,,,,,,,,,,,,,,,,m,1,1.0705,,,,,,,,0,34,34,31,1,
,,,,,,,,,,,,,,,,,5e35a96ecf931055fb891c54,41,2022-02-12_16h21.42.933,lexical_decision_task_DD,2021.2.3,Win32,60.09254252,,,,,,,,,,,,1.084,1,,,,,,,,,,,,,,,,,,,,,,,,-0.265625,-0.34375,0,0,0,,,,,,,SAUCE,C,z,m,./images/SAUCE.png,,,,,,,,,,,,,,,,,,,,z,1,1.084,,,,,,,,0,35,35,135,1,
,,,,,,,,,,,,,,,,,5e35a96ecf931055fb891c54,41,2022-02-12_16h21.42.933,lexical_decision_task_DD,2021.2.3,Win32,60.09254252,,,,,,,,,,,,0.6933,1,,,,,,,,,,,,,,,,,,,,,,,,-0.264322917,-0.345052083,0,0,0,,,,,,,BANNER,HB,m,m,./images/BANNERHB.png,,,,,,,,,,,,,,,,,,,,m,1,0.6933,,,,,,,,0,36,36,52,1,
,,,,,,,,,,,,,,,,,5e35a96ecf931055fb891c54,41,2022-02-12_16h21.42.933,lexical_decision_task_DD,2021.2.3,Win32,60.09254252,,,,,,,,,,,,1.5158,1,,,,,,,,,,,,,,,,,,,,,,,,-0.264322917,-0.342447917,0,0,0,,,,,,,PLANK,HB,m,m,./images/PLANKHB.png,,,,,,,,,,,,,,,,,,,,m,1,1.5158,,,,,,,,0,37,37,1,1,
,,,,,,,,,,,,,,,,,5e35a96ecf931055fb891c54,41,2022-02-12_16h21.42.933,lexical_decision_task_DD,2021.2.3,Win32,60.09254252,,,,,,,,,,,,1.3371,1,,,,,,,,,,,,,,,,,,,,,,,,-0.264322917,-0.345052083,0,0,0,,,,,,,DIVER,C,z,m,./images/DIVER.png,,,,,,,,,,,,,,,,,,,,z,1,1.3371,,,,,,,,0,38,38,93,1,
,,,,,,,,,,,,,,,,,5e35a96ecf931055fb891c54,41,2022-02-12_16h21.42.933,lexical_decision_task_DD,2021.2.3,Win32,60.09254252,,,,,,,,,,,,0.6747,1,,,,,,,,,,,,,,,,,,,,,,,,-0.265625,-0.345052083,0,0,0,,,,,,,WRIST,HB,m,m,./images/WRISTHB.png,,,,,,,,,,,,,,,,,,,,m,1,0.6747,,,,,,,,0,39,39,25,1,
,,,,,,,,,,,,,,,,,5e35a96ecf931055fb891c54,41,2022-02-12_16h21.42.933,lexical_decision_task_DD,2021.2.3,Win32,60.09254252,,,,,,,,,,,,4.3632,0,,,,,,,,,,,,,,,,,,,,,,,,0.07421875,-0.045572917,0,0,0,,,,,,,TOWEL,HB,z,m,./images/TOWELHB.png,,,,,,,,,,,,,,,,,,,,m,0,4.3632,,,,,,,,0,40,40,85,1,
,,,,,,,,,,,,,,,,,5e35a96ecf931055fb891c54,41,2022-02-12_16h21.42.933,lexical_decision_task_DD,2021.2.3,Win32,60.09254252,,,,,,,,,,,,1.0023,0,,,,,,,,,,,,,,,,,,,,,,,,0.0625,-0.419270833,1,0,0,,,,,,,STAIN,C,z,m,./images/STAIN.png,,,,,,,,,,,,,,,,,,,,m,0,1.0023,,,,,,,,0,41,41,90,1,break_done_button
,,,,,,,,,,,,,,,,,5e35a96ecf931055fb891c54,41,2022-02-12_16h21.42.933,lexical_decision_task_DD,2021.2.3,Win32,60.09254252,,,,,,,,,,,,1.5992,0,,,,,,,,,,,,,,,,,,,,,,,,0.0625,-0.419270833,0,0,0,,,,,,,COLLAR,C,z,m,./images/COLLAR.png,,,,,,,,,,,,,,,,,,,,m,0,1.5992,,,,,,,,0,42,42,99,1,
,,,,,,,,,,,,,,,,,5e35a96ecf931055fb891c54,41,2022-02-12_16h21.42.933,lexical_decision_task_DD,2021.2.3,Win32,60.09254252,,,,,,,,,,,,0.8877,1,,,,,,,,,,,,,,,,,,,,,,,,0.0625,-0.419270833,0,0,0,,,,,,,CHERRY,C,z,m,./images/CHERRY.png,,,,,,,,,,,,,,,,,,,,z,1,0.8877,,,,,,,,0,43,43,138,1,
,,,,,,,,,,,,,,,,,5e35a96ecf931055fb891c54,41,2022-02-12_16h21.42.933,lexical_decision_task_DD,2021.2.3,Win32,60.09254252,,,,,,,,,,,,0.9999,1,,,,,,,,,,,,,,,,,,,,,,,,0.0625,-0.419270833,0,0,0,,,,,,,BOXER,HB,z,m,./images/BOXERHB.png,,,,,,,,,,,,,,,,,,,,z,1,0.9999,,,,,,,,0,44,44,88,1,
,,,,,,,,,,,,,,,,,5e35a96ecf931055fb891c54,41,2022-02-12_16h21.42.933,lexical_decision_task_DD,2021.2.3,Win32,60.09254252,,,,,,,,,,,,0.8665,0,,,,,,,,,,,,,,,,,,,,,,,,0.0625,-0.419270833,0,0,0,,,,,,,LLAMA,LB,z,m,./images/LLAMALB.png,,,,,,,,,,,,,,,,,,,,m,0,0.8665,,,,,,,,0,45,45,119,1,
,,,,,,,,,,,,,,,,,5e35a96ecf931055fb891c54,41,2022-02-12_16h21.42.933,lexical_decision_task_DD,2021.2.3,Win32,60.09254252,,,,,,,,,,,,0.6672,1,,,,,,,,,,,,,,,,,,,,,,,,0.0625,-0.419270833,0,0,0,,,,,,,SWEAT,C,m,m,./images/SWEAT.png,,,,,,,,,,,,,,,,,,,,m,1,0.6672,,,,,,,,0,46,46,66,1,
,,,,,,,,,,,,,,,,,5e35a96ecf931055fb891c54,41,2022-02-12_16h21.42.933,lexical_decision_task_DD,2021.2.3,Win32,60.09254252,,,,,,,,,,,,0.9255,0,,,,,,,,,,,,,,,,,,,,,,,,0.0625,-0.419270833,0,0,0,,,,,,,SAUNA,C,z,m,./images/SAUNA.png,,,,,,,,,,,,,,,,,,,,m,0,0.9255,,,,,,,,0,47,47,117,1,
,,,,,,,,,,,,,,,,,5e35a96ecf931055fb891c54,41,2022-02-12_16h21.42.933,lexical_decision_task_DD,2021.2.3,Win32,60.09254252,,,,,,,,,,,,1.0994,1,,,,,,,,,,,,,,,,,,,,,,,,0.0625,-0.419270833,0,0,0,,,,,,,PEBBLE,HB,z,m,./images/PEBBLEHB.png,,,,,,,,,,,,,,,,,,,,z,1,1.0994,,,,,,,,0,48,48,166,1,
,,,,,,,,,,,,,,,,,5e35a96ecf931055fb891c54,41,2022-02-12_16h21.42.933,lexical_decision_task_DD,2021.2.3,Win32,60.09254252,,,,,,,,,,,,0.8831,0,,,,,,,,,,,,,,,,,,,,,,,,0.0625,-0.419270833,0,0,0,,,,,,,BOILER,C,z,m,./images/BOILER.png,,,,,,,,,,,,,,,,,,,,m,0,0.8831,,,,,,,,0,49,49,120,1,
,,,,,,,,,,,,,,,,,5e35a96ecf931055fb891c54,41,2022-02-12_16h21.42.933,lexical_decision_task_DD,2021.2.3,Win32,60.09254252,,,,,,,,,,,,0.6365,0,,,,,,,,,,,,,,,,,,,,,,,,0.0625,-0.419270833,0,0,0,,,,,,,INFANT,HB,m,m,./images/INFANTHB.png,,,,,,,,,,,,,,,,,,,,z,0,0.6365,,,,,,,,0,50,50,76,1,
,,,,,,,,,,,,,,,,,5e35a96ecf931055fb891c54,41,2022-02-12_16h21.42.933,lexical_decision_task_DD,2021.2.3,Win32,60.09254252,,,,,,,,,,,,0.5181,1,,,,,,,,,,,,,,,,,,,,,,,,0.0625,-0.419270833,0,0,0,,,,,,,PEARL,HB,m,m,./images/PEARLHB.png,,,,,,,,,,,,,,,,,,,,m,1,0.5181,,,,,,,,0,51,51,46,1,
,,,,,,,,,,,,,,,,,5e35a96ecf931055fb891c54,41,2022-02-12_16h21.42.933,lexical_decision_task_DD,2021.2.3,Win32,60.09254252,,,,,,,,,,,,1.0339,1,,,,,,,,,,,,,,,,,,,,,,,,0.0625,-0.419270833,0,0,0,,,,,,,WALNUT,C,z,m,./images/WALNUT.png,,,,,,,,,,,,,,,,,,,,z,1,1.0339,,,,,,,,0,52,52,84,1,
,,,,,,,,,,,,,,,,,5e35a96ecf931055fb891c54,41,2022-02-12_16h21.42.933,lexical_decision_task_DD,2021.2.3,Win32,60.09254252,,,,,,,,,,,,0.6003,1,,,,,,,,,,,,,,,,,,,,,,,,0.0625,-0.419270833,0,0,0,,,,,,,LADDER,LB,m,m,./images/LADDERLB.png,,,,,,,,,,,,,,,,,,,,m,1,0.6003,,,,,,,,0,53,53,38,1,
,,,,,,,,,,,,,,,,,5e35a96ecf931055fb891c54,41,2022-02-12_16h21.42.933,lexical_decision_task_DD,2021.2.3,Win32,60.09254252,,,,,,,,,,,,0.6335,0,,,,,,,,,,,,,,,,,,,,,,,,0.0625,-0.419270833,0,0,0,,,,,,,FENCE,LB,z,m,./images/FENCELB.png,,,,,,,,,,,,,,,,,,,,m,0,0.6335,,,,,,,,0,54,54,98,1,
,,,,,,,,,,,,,,,,,5e35a96ecf931055fb891c54,41,2022-02-12_16h21.42.933,lexical_decision_task_DD,2021.2.3,Win32,60.09254252,,,,,,,,,,,,0.7679,1,,,,,,,,,,,,,,,,,,,,,,,,0.0625,-0.419270833,0,0,0,,,,,,,SNAKE,HB,z,m,./images/SNAKEHB.png,,,,,,,,,,,,,,,,,,,,z,1,0.7679,,,,,,,,0,55,55,124,1,
,,,,,,,,,,,,,,,,,5e35a96ecf931055fb891c54,41,2022-02-12_16h21.42.933,lexical_decision_task_DD,2021.2.3,Win32,60.09254252,,,,,,,,,,,,0.6336,1,,,,,,,,,,,,,,,,,,,,,,,,0.0625,-0.419270833,0,0,0,,,,,,,SHIELD,C,z,m,./images/SHIELD.png,,,,,,,,,,,,,,,,,,,,z,1,0.6336,,,,,,,,0,56,56,132,1,
,,,,,,,,,,,,,,,,,5e35a96ecf931055fb891c54,41,2022-02-12_16h21.42.933,lexical_decision_task_DD,2021.2.3,Win32,60.09254252,,,,,,,,,,,,0.522,1,,,,,,,,,,,,,,,,,,,,,,,,0.0625,-0.419270833,0,0,0,,,,,,,FALCON,HB,m,m,./images/FALCONHB.png,,,,,,,,,,,,,,,,,,,,m,1,0.522,,,,,,,,0,57,57,28,1,
,,,,,,,,,,,,,,,,,5e35a96ecf931055fb891c54,41,2022-02-12_16h21.42.933,lexical_decision_task_DD,2021.2.3,Win32,60.09254252,,,,,,,,,,,,0.7177,0,,,,,,,,,,,,,,,,,,,,,,,,0.0625,-0.419270833,0,0,0,,,,,,,MIDGET,HB,z,m,./images/MIDGETHB.png,,,,,,,,,,,,,,,,,,,,m,0,0.7177,,,,,,,,0,58,58,160,1,
,,,,,,,,,,,,,,,,,5e35a96ecf931055fb891c54,41,2022-02-12_16h21.42.933,lexical_decision_task_DD,2021.2.3,Win32,60.09254252,,,,,,,,,,,,1.4829,1,,,,,,,,,,,,,,,,,,,,,,,,0.0625,-0.419270833,0,0,0,,,,,,,CRADLE,LB,m,m,./images/CRADLELB.png,,,,,,,,,,,,,,,,,,,,m,1,1.4829,,,,,,,,0,59,59,20,1,
,,,,,,,,,,,,,,,,,5e35a96ecf931055fb891c54,41,2022-02-12_16h21.42.933,lexical_decision_task_DD,2021.2.3,Win32,60.09254252,,,,,,,,,,,,0.717,1,,,,,,,,,,,,,,,,,,,,,,,,0.0625,-0.419270833,0,0,0,,,,,,,WALRUS,LB,m,m,./images/WALRUSLB.png,,,,,,,,,,,,,,,,,,,,m,1,0.717,,,,,,,,0,60,60,23,1,
,,,,,,,,,,,,,,,,,5e35a96ecf931055fb891c54,41,2022-02-12_16h21.42.933,lexical_decision_task_DD,2021.2.3,Win32,60.09254252,,,,,,,,,,,,1.3052,1,,,,,,,,,,,,,,,,,,,,,,,,0.0625,-0.419270833,0,0,0,,,,,,,BARREL,LB,m,m,./images/BARRELLB.png,,,,,,,,,,,,,,,,,,,,m,1,1.3052,,,,,,,,0,61,61,32,1,
,,,,,,,,,,,,,,,,,5e35a96ecf931055fb891c54,41,2022-02-12_16h21.42.933,lexical_decision_task_DD,2021.2.3,Win32,60.09254252,,,,,,,,,,,,0.7167,0,,,,,,,,,,,,,,,,,,,,,,,,0.0625,-0.419270833,0,0,0,,,,,,,MUMMY,HB,z,m,./images/MUMMYHB.png,,,,,,,,,,,,,,,,,,,,m,0,0.7167,,,,,,,,0,62,62,130,1,
,,,,,,,,,,,,,,,,,5e35a96ecf931055fb891c54,41,2022-02-12_16h21.42.933,lexical_decision_task_DD,2021.2.3,Win32,60.09254252,,,,,,,,,,,,0.6518,1,,,,,,,,,,,,,,,,,,,,,,,,0.0625,-0.419270833,0,0,0,,,,,,,LIZARD,LB,m,m,./images/LIZARDLB.png,,,,,,,,,,,,,,,,,,,,m,1,0.6518,,,,,,,,0,63,63,44,1,
,,,,,,,,,,,,,,,,,5e35a96ecf931055fb891c54,41,2022-02-12_16h21.42.933,lexical_decision_task_DD,2021.2.3,Win32,60.09254252,,,,,,,,,,,,1.0667,0,,,,,,,,,,,,,,,,,,,,,,,,0.0625,-0.419270833,0,0,0,,,,,,,BAMBOO,LB,z,m,./images/BAMBOOLB.png,,,,,,,,,,,,,,,,,,,,m,0,1.0667,,,,,,,,0,64,64,89,1,
,,,,,,,,,,,,,,,,,5e35a96ecf931055fb891c54,41,2022-02-12_16h21.42.933,lexical_decision_task_DD,2021.2.3,Win32,60.09254252,,,,,,,,,,,,0.9664,1,,,,,,,,,,,,,,,,,,,,,,,,0.0625,-0.419270833,0,0,0,,,,,,,BRUSH,LB,z,m,./images/BRUSHLB.png,,,,,,,,,,,,,,,,,,,,z,1,0.9664,,,,,,,,0,65,65,143,1,
,,,,,,,,,,,,,,,,,5e35a96ecf931055fb891c54,41,2022-02-12_16h21.42.933,lexical_decision_task_DD,2021.2.3,Win32,60.09254252,,,,,,,,,,,,0.6001,0,,,,,,,,,,,,,,,,,,,,,,,,0.0625,-0.419270833,0,0,0,,,,,,,COUCH,LB,m,m,./images/COUCHLB.png,,,,,,,,,,,,,,,,,,,,z,0,0.6001,,,,,,,,0,66,66,77,1,
,,,,,,,,,,,,,,,,,5e35a96ecf931055fb891c54,41,2022-02-12_16h21.42.933,lexical_decision_task_DD,2021.2.3,Win32,60.09254252,,,,,,,,,,,,0.5835,0,,,,,,,,,,,,,,,,,,,,,,,,0.0625,-0.419270833,0,0,0,,,,,,,BAKER,C,z,m,./images/BAKER.png,,,,,,,,,,,,,,,,,,,,m,0,0.5835,,,,,,,,0,67,67,147,1,
,,,,,,,,,,,,,,,,,5e35a96ecf931055fb891c54,41,2022-02-12_16h21.42.933,lexical_decision_task_DD,2021.2.3,Win32,60.09254252,,,,,,,,,,,,0.7335,0,,,,,,,,,,,,,,,,,,,,,,,,0.0625,-0.419270833,0,0,0,,,,,,,MAMMAL,LB,z,m,./images/MAMMALLB.png,,,,,,,,,,,,,,,,,,,,m,0,0.7335,,,,,,,,0,68,68,146,1,
,,,,,,,,,,,,,,,,,5e35a96ecf931055fb891c54,41,2022-02-12_16h21.42.933,lexical_decision_task_DD,2021.2.3,Win32,60.09254252,,,,,,,,,,,,0.8832,0,,,,,,,,,,,,,,,,,,,,,,,,0.0625,-0.419270833,0,0,0,,,,,,,BROOM,C,z,m,./images/BROOM.png,,,,,,,,,,,,,,,,,,,,m,0,0.8832,,,,,,,,0,69,69,162,1,
,,,,,,,,,,,,,,,,,5e35a96ecf931055fb891c54,41,2022-02-12_16h21.42.933,lexical_decision_task_DD,2021.2.3,Win32,60.09254252,,,,,,,,,,,,0.9666,1,,,,,,,,,,,,,,,,,,,,,,,,0.0625,-0.419270833,0,0,0,,,,,,,MEDAL,LB,z,m,./images/MEDALLB.png,,,,,,,,,,,,,,,,,,,,z,1,0.9666,,,,,,,,0,70,70,95,1,
,,,,,,,,,,,,,,,,,5e35a96ecf931055fb891c54,41,2022-02-12_16h21.42.933,lexical_decision_task_DD,2021.2.3,Win32,60.09254252,,,,,,,,,,,,0.5335,0,,,,,,,,,,,,,,,,,,,,,,,,0.0625,-0.419270833,0,0,0,,,,,,,STEAK,HB,z,m,./images/STEAKHB.png,,,,,,,,,,,,,,,,,,,,m,0,0.5335,,,,,,,,0,71,71,115,1,
,,,,,,,,,,,,,,,,,5e35a96ecf931055fb891c54,41,2022-02-12_16h21.42.933,lexical_decision_task_DD,2021.2.3,Win32,60.09254252,,,,,,,,,,,,0.9997,1,,,,,,,,,,,,,,,,,,,,,,,,0.0625,-0.419270833,0,0,0,,,,,,,SHORE,C,m,m,./images/SHORE.png,,,,,,,,,,,,,,,,,,,,m,1,0.9997,,,,,,,,0,72,72,12,1,
,,,,,,,,,,,,,,,,,5e35a96ecf931055fb891c54,41,2022-02-12_16h21.42.933,lexical_decision_task_DD,2021.2.3,Win32,60.09254252,,,,,,,,,,,,0.7172,0,,,,,,,,,,,,,,,,,,,,,,,,0.0625,-0.419270833,0,0,0,,,,,,,SWING,HB,m,m,./images/SWINGHB.png,,,,,,,,,,,,,,,,,,,,z,0,0.7172,,,,,,,,0,73,73,40,1,
,,,,,,,,,,,,,,,,,5e35a96ecf931055fb891c54,41,2022-02-12_16h21.42.933,lexical_decision_task_DD,2021.2.3,Win32,60.09254252,,,,,,,,,,,,1.3494,0,,,,,,,,,,,,,,,,,,,,,,,,0.0625,-0.419270833,0,0,0,,,,,,,MELON,HB,m,m,./images/MELONHB.png,,,,,,,,,,,,,,,,,,,,z,0,1.3494,,,,,,,,0,74,74,22,1,
,,,,,,,,,,,,,,,,,5e35a96ecf931055fb891c54,41,2022-02-12_16h21.42.933,lexical_decision_task_DD,2021.2.3,Win32,60.09254252,,,,,,,,,,,,0.4897,1,,,,,,,,,,,,,,,,,,,,,,,,0.0625,-0.419270833,0,0,0,,,,,,,MAGGOT,C,m,m,./images/MAGGOT.png,,,,,,,,,,,,,,,,,,,,m,1,0.4897,,,,,,,,0,75,75,33,1,
,,,,,,,,,,,,,,,,,5e35a96ecf931055fb891c54,41,2022-02-12_16h21.42.933,lexical_decision_task_DD,2021.2.3,Win32,60.09254252,,,,,,,,,,,,0.5002,1,,,,,,,,,,,,,,,,,,,,,,,,0.0625,-0.419270833,0,0,0,,,,,,,PAINT,HB,m,m,./images/PAINTHB.png,,,,,,,,,,,,,,,,,,,,m,1,0.5002,,,,,,,,0,76,76,7,1,
,,,,,,,,,,,,,,,,,5e35a96ecf931055fb891c54,41,2022-02-12_16h21.42.933,lexical_decision_task_DD,2021.2.3,Win32,60.09254252,,,,,,,,,,,,0.7168,1,,,,,,,,,,,,,,,,,,,,,,,,0.0625,-0.419270833,0,0,0,,,,,,,TWINS,C,m,m,./images/TWINS.png,,,,,,,,,,,,,,,,,,,,m,1,0.7168,,,,,,,,0,77,77,60,1,
,,,,,,,,,,,,,,,,,5e35a96ecf931055fb891c54,41,2022-02-12_16h21.42.933,lexical_decision_task_DD,2021.2.3,Win32,60.09254252,,,,,,,,,,,,0.6169,1,,,,,,,,,,,,,,,,,,,,,,,,0.0625,-0.419270833,0,0,0,,,,,,,DONKEY,HB,z,m,./images/DONKEYHB.png,,,,,,,,,,,,,,,,,,,,z,1,0.6169,,,,,,,,0,78,78,103,1,
,,,,,,,,,,,,,,,,,5e35a96ecf931055fb891c54,41,2022-02-12_16h21.42.933,lexical_decision_task_DD,2021.2.3,Win32,60.09254252,,,,,,,,,,,,0.85,0,,,,,,,,,,,,,,,,,,,,,,,,0.0625,-0.419270833,0,0,0,,,,,,,BUNNY,HB,z,m,./images/BUNNYHB.png,,,,,,,,,,,,,,,,,,,,m,0,0.85,,,,,,,,0,79,79,97,1,
,,,,,,,,,,,,,,,,,5e35a96ecf931055fb891c54,41,2022-02-12_16h21.42.933,lexical_decision_task_DD,2021.2.3,Win32,60.09254252,,,,,,,,,,,,0.6197,1,,,,,,,,,,,,,,,,,,,,,,,,0.0625,-0.419270833,0,0,0,,,,,,,ONION,C,m,m,./images/ONION.png,,,,,,,,,,,,,,,,,,,,m,1,0.6197,,,,,,,,0,80,80,51,1,
,,,,,,,,,,,,,,,,,5e35a96ecf931055fb891c54,41,2022-02-12_16h21.42.933,lexical_decision_task_DD,2021.2.3,Win32,60.09254252,,,,,,,,,,,,0.6533,1,,,,,,,,,,,,,,,,,,,,,,,,0.0625,-0.419270833,0,0,0,,,,,,,COOKER,C,m,m,./images/COOKER.png,,,,,,,,,,,,,,,,,,,,m,1,0.6533,,,,,,,,0,81,81,69,1,
,,,,,,,,,,,,,,,,,5e35a96ecf931055fb891c54,41,2022-02-12_16h21.42.933,lexical_decision_task_DD,2021.2.3,Win32,60.09254252,,,,,,,,,,,,0.5705,1,,,,,,,,,,,,,,,,,,,,,,,,0.0625,-0.419270833,0,0,0,,,,,,,GRAIN,C,m,m,./images/GRAIN.png,,,,,,,,,,,,,,,,,,,,m,1,0.5705,,,,,,,,0,82,82,75,1,
,,,,,,,,,,,,,,,,,5e35a96ecf931055fb891c54,41,2022-02-12_16h21.42.933,lexical_decision_task_DD,2021.2.3,Win32,60.09254252,,,,,,,,,,,,0.9852,1,,,,,,,,,,,,,,,,,,,,,,,,0.0625,-0.419270833,1,0,0,,,,,,,CRATER,C,z,m,./images/CRATER.png,,,,,,,,,,,,,,,,,,,,z,1,0.9852,,,,,,,,0,83,83,87,1,break_done_button
,,,,,,,,,,,,,,,,,5e35a96ecf931055fb891c54,41,2022-02-12_16h21.42.933,lexical_decision_task_DD,2021.2.3,Win32,60.09254252,,,,,,,,,,,,0.6016,1,,,,,,,,,,,,,,,,,,,,,,,,0.061197917,-0.419270833,0,0,0,,,,,,,MIRROR,C,m,m,./images/MIRROR.png,,,,,,,,,,,,,,,,,,,,m,1,0.6016,,,,,,,,0,84,84,63,1,
,,,,,,,,,,,,,,,,,5e35a96ecf931055fb891c54,41,2022-02-12_16h21.42.933,lexical_decision_task_DD,2021.2.3,Win32,60.09254252,,,,,,,,,,,,0.5667,1,,,,,,,,,,,,,,,,,,,,,,,,0.061197917,-0.419270833,0,0,0,,,,,,,MALLET,LB,m,m,./images/MALLETLB.png,,,,,,,,,,,,,,,,,,,,m,1,0.5667,,,,,,,,0,85,85,50,1,
,,,,,,,,,,,,,,,,,5e35a96ecf931055fb891c54,41,2022-02-12_16h21.42.933,lexical_decision_task_DD,2021.2.3,Win32,60.09254252,,,,,,,,,,,,0.5335,1,,,,,,,,,,,,,,,,,,,,,,,,0.055989583,-0.415364583,0,0,0,,,,,,,FOLDER,C,m,m,./images/FOLDER.png,,,,,,,,,,,,,,,,,,,,m,1,0.5335,,,,,,,,0,86,86,42,1,
,,,,,,,,,,,,,,,,,5e35a96ecf931055fb891c54,41,2022-02-12_16h21.42.933,lexical_decision_task_DD,2021.2.3,Win32,60.09254252,,,,,,,,,,,,0.7005,0,,,,,,,,,,,,,,,,,,,,,,,,0.055989583,-0.415364583,0,0,0,,,,,,,NOOSE,C,m,m,./images/NOOSE.png,,,,,,,,,,,,,,,,,,,,z,0,0.7005,,,,,,,,0,87,87,72,1,
,,,,,,,,,,,,,,,,,5e35a96ecf931055fb891c54,41,2022-02-12_16h21.42.933,lexical_decision_task_DD,2021.2.3,Win32,60.09254252,,,,,,,,,,,,0.6496,1,,,,,,,,,,,,,,,,,,,,,,,,0.055989583,-0.415364583,0,0,0,,,,,,,TRIPOD,C,m,m,./images/TRIPOD.png,,,,,,,,,,,,,,,,,,,,m,1,0.6496,,,,,,,,0,88,88,54,1,
,,,,,,,,,,,,,,,,,5e35a96ecf931055fb891c54,41,2022-02-12_16h21.42.933,lexical_decision_task_DD,2021.2.3,Win32,60.09254252,,,,,,,,,,,,0.7334,1,,,,,,,,,,,,,,,,,,,,,,,,0.0546875,-0.415364583,0,0,0,,,,,,,HOCKEY,LB,z,m,./images/HOCKEYLB.png,,,,,,,,,,,,,,,,,,,,z,1,0.7334,,,,,,,,0,89,89,116,1,
,,,,,,,,,,,,,,,,,5e35a96ecf931055fb891c54,41,2022-02-12_16h21.42.933,lexical_decision_task_DD,2021.2.3,Win32,60.09254252,,,,,,,,,,,,0.7334,1,,,,,,,,,,,,,,,,,,,,,,,,0.0546875,-0.415364583,0,0,0,,,,,,,PENCE,HB,m,m,./images/PENCEHB.png,,,,,,,,,,,,,,,,,,,,m,1,0.7334,,,,,,,,0,90,90,16,1,
,,,,,,,,,,,,,,,,,5e35a96ecf931055fb891c54,41,2022-02-12_16h21.42.933,lexical_decision_task_DD,2021.2.3,Win32,60.09254252,,,,,,,,,,,,0.75,0,,,,,,,,,,,,,,,,,,,,,,,,0.0546875,-0.415364583,0,0,0,,,,,,,POSTER,LB,z,m,./images/POSTERLB.png,,,,,,,,,,,,,,,,,,,,m,0,0.75,,,,,,,,0,91,91,137,1,
,,,,,,,,,,,,,,,,,5e35a96ecf931055fb891c54,41,2022-02-12_16h21.42.933,lexical_decision_task_DD,2021.2.3,Win32,60.09254252,,,,,,,,,,,,0.6552,0,,,,,,,,,,,,,,,,,,,,,,,,0.059895833,-0.407552083,0,0,0,,,,,,,PURSE,LB,m,m,./images/PURSELB.png,,,,,,,,,,,,,,,,,,,,z,0,0.6552,,,,,,,,0,92,92,62,1,
,,,,,,,,,,,,,,,,,5e35a96ecf931055fb891c54,41,2022-02-12_16h21.42.933,lexical_decision_task_DD,2021.2.3,Win32,60.09254252,,,,,,,,,,,,1.9325,0,,,,,,,,,,,,,,,,,,,,,,,,0.05859375,-0.40625,0,0,0,,,,,,,BUTTER,C,z,m,./images/BUTTER.png,,,,,,,,,,,,,,,,,,,,m,0,1.9325,,,,,,,,0,93,93,111,1,
,,,,,,,,,,,,,,,,,5e35a96ecf931055fb891c54,41,2022-02-12_16h21.42.933,lexical_decision_task_DD,2021.2.3,Win32,60.09254252,,,,,,,,,,,,0.7577,0,,,,,,,,,,,,,,,,,,,,,,,,0.05859375,-0.40625,0,0,0,,,,,,,JELLY,HB,m,m,./images/JELLYHB.png,,,,,,,,,,,,,,,,,,,,z,0,0.7577,,,,,,,,0,94,94,64,1,
,,,,,,,,,,,,,,,,,5e35a96ecf931055fb891c54,41,2022-02-12_16h21.42.933,lexical_decision_task_DD,2021.2.3,Win32,60.09254252,,,,,,,,,,,,0.4836,0,,,,,,,,,,,,,,,,,,,,,,,,0.05859375,-0.40625,0,0,0,,,,,,,WHEEL,LB,z,m,./images/WHEELLB.png,,,,,,,,,,,,,,,,,,,,m,0,0.4836,,,,,,,,0,95,95,161,1,
,,,,,,,,,,,,,,,,,5e35a96ecf931055fb891c54,41,2022-02-12_16h21.42.933,lexical_decision_task_DD,2021.2.3,Win32,60.09254252,,,,,,,,,,,,0.5835,1,,,,,,,,,,,,,,,,,,,,,,,,0.05859375,-0.40625,0,0,0,,,,,,,FINGER,C,m,m,./images/FINGER.png,,,,,,,,,,,,,,,,,,,,m,1,0.5835,,,,,,,,0,96,96,3,1,
,,,,,,,,,,,,,,,,,5e35a96ecf931055fb891c54,41,2022-02-12_16h21.42.933,lexical_decision_task_DD,2021.2.3,Win32,60.09254252,,,,,,,,,,,,0.7173,1,,,,,,,,,,,,,,,,,,,,,,,,0.05859375,-0.40625,0,0,0,,,,,,,PASTA,LB,m,m,./images/PASTALB.png,,,,,,,,,,,,,,,,,,,,m,1,0.7173,,,,,,,,0,97,97,5,1,
,,,,,,,,,,,,,,,,,5e35a96ecf931055fb891c54,41,2022-02-12_16h21.42.933,lexical_decision_task_DD,2021.2.3,Win32,60.09254252,,,,,,,,,,,,0.5808,1,,,,,,,,,,,,,,,,,,,,,,,,0.05859375,-0.40625,0,0,0,,,,,,,ALLEY,HB,z,m,./images/ALLEYHB.png,,,,,,,,,,,,,,,,,,,,z,1,0.5808,,,,,,,,0,98,98,139,1,
,,,,,,,,,,,,,,,,,5e35a96ecf931055fb891c54,41,2022-02-12_16h21.42.933,lexical_decision_task_DD,2021.2.3,Win32,60.09254252,,,,,,,,,,,,0.7836,1,,,,,,,,,,,,,,,,,,,,,,,,0.05859375,-0.40625,0,0,0,,,,,,,STORM,C,m,m,./images/STORM.png,,,,,,,,,,,,,,,,,,,,m,1,0.7836,,,,,,,,0,99,99,30,1,
,,,,,,,,,,,,,,,,,5e35a96ecf931055fb891c54,41,2022-02-12_16h21.42.933,lexical_decision_task_DD,2021.2.3,Win32,60.09254252,,,,,,,,,,,,1,1,,,,,,,,,,,,,,,,,,,,,,,,0.05859375,-0.40625,0,0,0,,,,,,,DANCER,C,z,m,./images/DANCER.png,,,,,,,,,,,,,,,,,,,,z,1,1,,,,,,,,0,100,100,105,1,
,,,,,,,,,,,,,,,,,5e35a96ecf931055fb891c54,41,2022-02-12_16h21.42.933,lexical_decision_task_DD,2021.2.3,Win32,60.09254252,,,,,,,,,,,,0.667,1,,,,,,,,,,,,,,,,,,,,,,,,0.05859375,-0.40625,0,0,0,,,,,,,BELLY,HB,m,m,./images/BELLYHB.png,,,,,,,,,,,,,,,,,,,,m,1,0.667,,,,,,,,0,101,101,10,1,
,,,,,,,,,,,,,,,,,5e35a96ecf931055fb891c54,41,2022-02-12_16h21.42.933,lexical_decision_task_DD,2021.2.3,Win32,60.09254252,,,,,,,,,,,,0.7164,1,,,,,,,,,,,,,,,,,,,,,,,,0.05859375,-0.40625,0,0,0,,,,,,,CLIFF,LB,z,m,./images/CLIFFLB.png,,,,,,,,,,,,,,,,,,,,z,1,0.7164,,,,,,,,0,102,102,92,1,
,,,,,,,,,,,,,,,,,5e35a96ecf931055fb891c54,41,2022-02-12_16h21.42.933,lexical_decision_task_DD,2021.2.3,Win32,60.09254252,,,,,,,,,,,,0.5834,1,,,,,,,,,,,,,,,,,,,,,,,,0.05859375,-0.40625,0,0,0,,,,,,,BURIAL,LB,m,m,./images/BURIALLB.png,,,,,,,,,,,,,,,,,,,,m,1,0.5834,,,,,,,,0,103,103,59,1,
,,,,,,,,,,,,,,,,,5e35a96ecf931055fb891c54,41,2022-02-12_16h21.42.933,lexical_decision_task_DD,2021.2.3,Win32,60.09254252,,,,,,,,,,,,0.85,0,,,,,,,,,,,,,,,,,,,,,,,,0.05859375,-0.40625,0,0,0,,,,,,,SQUARE,C,m,m,./images/SQUARE.png,,,,,,,,,,,,,,,,,,,,z,0,0.85,,,,,,,,0,104,104,6,1,
,,,,,,,,,,,,,,,,,5e35a96ecf931055fb891c54,41,2022-02-12_16h21.42.933,lexical_decision_task_DD,2021.2.3,Win32,60.09254252,,,,,,,,,,,,1.0164,1,,,,,,,,,,,,,,,,,,,,,,,,0.05859375,-0.40625,0,0,0,,,,,,,DRUMS,HB,m,m,./images/DRUMSHB.png,,,,,,,,,,,,,,,,,,,,m,1,1.0164,,,,,,,,0,105,105,49,1,
,,,,,,,,,,,,,,,,,5e35a96ecf931055fb891c54,41,2022-02-12_16h21.42.933,lexical_decision_task_DD,2021.2.3,Win32,60.09254252,,,,,,,,,,,,0.8,1,,,,,,,,,,,,,,,,,,,,,,,,0.05859375,-0.40625,0,0,0,,,,,,,RAZOR,HB,z,m,./images/RAZORHB.png,,,,,,,,,,,,,,,,,,,,z,1,0.8,,,,,,,,0,106,106,118,1,
,,,,,,,,,,,,,,,,,5e35a96ecf931055fb891c54,41,2022-02-12_16h21.42.933,lexical_decision_task_DD,2021.2.3,Win32,60.09254252,,,,,,,,,,,,0.6335,1,,,,,,,,,,,,,,,,,,,,,,,,0.061197917,-0.399739583,0,0,0,,,,,,,LITTER,C,m,m,./images/LITTER.png,,,,,,,,,,,,,,,,,,,,m,1,0.6335,,,,,,,,0,107,107,78,1,
,,,,,,,,,,,,,,,,,5e35a96ecf931055fb891c54,41,2022-02-12_16h21.42.933,lexical_decision_task_DD,2021.2.3,Win32,60.09254252,,,,,,,,,,,,0.6258,1,,,,,,,,,,,,,,,,,,,,,,,,0.061197917,-0.399739583,0,0,0,,,,,,,TULIP,LB,m,m,./images/TULIPLB.png,,,,,,,,,,,,,,,,,,,,m,1,0.6258,,,,,,,,0,108,108,8,1,
,,,,,,,,,,,,,,,,,5e35a96ecf931055fb891c54,41,2022-02-12_16h21.42.933,lexical_decision_task_DD,2021.2.3,Win32,60.09254252,,,,,,,,,,,,1,0,,,,,,,,,,,,,,,,,,,,,,,,0.061197917,-0.399739583,0,0,0,,,,,,,BANANA,HB,z,m,./images/BANANAHB.png,,,,,,,,,,,,,,,,,,,,m,0,1,,,,,,,,0,109,109,154,1,
,,,,,,,,,,,,,,,,,5e35a96ecf931055fb891c54,41,2022-02-12_16h21.42.933,lexical_decision_task_DD,2021.2.3,Win32,60.09254252,,,,,,,,,,,,1.0001,0,,,,,,,,,,,,,,,,,,,,,,,,0.059895833,-0.399739583,0,0,0,,,,,,,BERRY,LB,m,m,./images/BERRYLB.png,,,,,,,,,,,,,,,,,,,,z,0,1.0001,,,,,,,,0,110,110,47,1,
,,,,,,,,,,,,,,,,,5e35a96ecf931055fb891c54,41,2022-02-12_16h21.42.933,lexical_decision_task_DD,2021.2.3,Win32,60.09254252,,,,,,,,,,,,0.7835,0,,,,,,,,,,,,,,,,,,,,,,,,0.057291667,-0.399739583,0,0,0,,,,,,,POKER,HB,z,m,./images/POKERHB.png,,,,,,,,,,,,,,,,,,,,m,0,0.7835,,,,,,,,0,111,111,151,1,
,,,,,,,,,,,,,,,,,5e35a96ecf931055fb891c54,41,2022-02-12_16h21.42.933,lexical_decision_task_DD,2021.2.3,Win32,60.09254252,,,,,,,,,,,,15.3692,0,,,,,,,,,,,,,,,,,,,,,,,,0.057291667,-0.399739583,0,0,0,,,,,,,HAMMER,C,z,m,./images/HAMMER.png,,,,,,,,,,,,,,,,,,,,m,0,15.3692,,,,,,,,0,112,112,159,1,
,,,,,,,,,,,,,,,,,5e35a96ecf931055fb891c54,41,2022-02-12_16h21.42.933,lexical_decision_task_DD,2021.2.3,Win32,60.09254252,,,,,,,,,,,,0.656,1,,,,,,,,,,,,,,,,,,,,,,,,0.05859375,-0.399739583,0,0,0,,,,,,,WHISKY,LB,z,m,./images/WHISKYLB.png,,,,,,,,,,,,,,,,,,,,z,1,0.656,,,,,,,,0,113,113,167,1,
,,,,,,,,,,,,,,,,,5e35a96ecf931055fb891c54,41,2022-02-12_16h21.42.933,lexical_decision_task_DD,2021.2.3,Win32,60.09254252,,,,,,,,,,,,0.8999,1,,,,,,,,,,,,,,,,,,,,,,,,0.05859375,-0.399739583,0,0,0,,,,,,,CHAIN,C,z,m,./images/CHAIN.png,,,,,,,,,,,,,,,,,,,,z,1,0.8999,,,,,,,,0,114,114,126,1,
,,,,,,,,,,,,,,,,,5e35a96ecf931055fb891c54,41,2022-02-12_16h21.42.933,lexical_decision_task_DD,2021.2.3,Win32,60.09254252,,,,,,,,,,,,1.1996,0,,,,,,,,,,,,,,,,,,,,,,,,0.05859375,-0.399739583,0,0,0,,,,,,,CURRY,C,z,m,./images/CURRY.png,,,,,,,,,,,,,,,,,,,,m,0,1.1996,,,,,,,,0,115,115,144,1,
,,,,,,,,,,,,,,,,,5e35a96ecf931055fb891c54,41,2022-02-12_16h21.42.933,lexical_decision_task_DD,2021.2.3,Win32,60.09254252,,,,,,,,,,,,1.9059,1,,,,,,,,,,,,,,,,,,,,,,,,0.05859375,-0.395833333,0,0,0,,,,,,,MOOSE,C,m,m,./images/MOOSE.png,,,,,,,,,,,,,,,,,,,,m,1,1.9059,,,,,,,,0,116,116,57,1,
,,,,,,,,,,,,,,,,,5e35a96ecf931055fb891c54,41,2022-02-12_16h21.42.933,lexical_decision_task_DD,2021.2.3,Win32,60.09254252,,,,,,,,,,,,0.7695,1,,,,,,,,,,,,,,,,,,,,,,,,0.05859375,-0.395833333,0,0,0,,,,,,,CRUMB,LB,m,m,./images/CRUMBLB.png,,,,,,,,,,,,,,,,,,,,m,1,0.7695,,,,,,,,0,117,117,29,1,
,,,,,,,,,,,,,,,,,5e35a96ecf931055fb891c54,41,2022-02-12_16h21.42.933,lexical_decision_task_DD,2021.2.3,Win32,60.09254252,,,,,,,,,,,,0.6668,0,,,,,,,,,,,,,,,,,,,,,,,,0.05859375,-0.395833333,0,0,0,,,,,,,ARTIST,HB,z,m,./images/ARTISTHB.png,,,,,,,,,,,,,,,,,,,,m,0,0.6668,,,,,,,,0,118,118,145,1,
,,,,,,,,,,,,,,,,,5e35a96ecf931055fb891c54,41,2022-02-12_16h21.42.933,lexical_decision_task_DD,2021.2.3,Win32,60.09254252,,,,,,,,,,,,0.4672,1,,,,,,,,,,,,,,,,,,,,,,,,0.05859375,-0.395833333,0,0,0,,,,,,,CANOE,HB,z,m,./images/CANOEHB.png,,,,,,,,,,,,,,,,,,,,z,1,0.4672,,,,,,,,0,119,119,142,1,
,,,,,,,,,,,,,,,,,5e35a96ecf931055fb891c54,41,2022-02-12_16h21.42.933,lexical_decision_task_DD,2021.2.3,Win32,60.09254252,,,,,,,,,,,,0.6502,1,,,,,,,,,,,,,,,,,,,,,,,,0.05859375,-0.395833333,0,0,0,,,,,,,MUSCLE,HB,m,m,./images/MUSCLEHB.png,,,,,,,,,,,,,,,,,,,,m,1,0.6502,,,,,,,,0,120,120,4,1,
,,,,,,,,,,,,,,,,,5e35a96ecf931055fb891c54,41,2022-02-12_16h21.42.933,lexical_decision_task_DD,2021.2.3,Win32,60.09254252,,,,,,,,,,,,0.6668,1,,,,,,,,,,,,,,,,,,,,,,,,0.05859375,-0.395833333,0,0,0,,,,,,,CASINO,HB,z,m,./images/CASINOHB.png,,,,,,,,,,,,,,,,,,,,z,1,0.6668,,,,,,,,0,121,121,112,1,
,,,,,,,,,,,,,,,,,5e35a96ecf931055fb891c54,41,2022-02-12_16h21.42.933,lexical_decision_task_DD,2021.2.3,Win32,60.09254252,,,,,,,,,,,,0.6668,1,,,,,,,,,,,,,,,,,,,,,,,,0.05859375,-0.395833333,0,0,0,,,,,,,WEASEL,LB,m,m,./images/WEASELLB.png,,,,,,,,,,,,,,,,,,,,m,1,0.6668,,,,,,,,0,122,122,80,1,
,,,,,,,,,,,,,,,,,5e35a96ecf931055fb891c54,41,2022-02-12_16h21.42.933,lexical_decision_task_DD,2021.2.3,Win32,60.09254252,,,,,,,,,,,,0.8167,1,,,,,,,,,,,,,,,,,,,,,,,,0.05859375,-0.395833333,0,0,0,,,,,,,GRANNY,LB,z,m,./images/GRANNYLB.png,,,,,,,,,,,,,,,,,,,,z,1,0.8167,,,,,,,,0,123,123,104,1,
,,,,,,,,,,,,,,,,,5e35a96ecf931055fb891c54,41,2022-02-12_16h21.42.933,lexical_decision_task_DD,2021.2.3,Win32,60.09254252,,,,,,,,,,,,0.9015,1,,,,,,,,,,,,,,,,,,,,,,,,0.05859375,-0.395833333,0,0,0,,,,,,,PLANET,LB,z,m,./images/PLANETLB.png,,,,,,,,,,,,,,,,,,,,z,1,0.9015,,,,,,,,0,124,124,164,1,
,,,,,,,,,,,,,,,,,5e35a96ecf931055fb891c54,41,2022-02-12_16h21.42.933,lexical_decision_task_DD,2021.2.3,Win32,60.09254252,,,,,,,,,,,,1.4901,1,,,,,,,,,,,,,,,,,,,,,,,,0.05859375,-0.395833333,1,0,0,,,,,,,MUFFIN,HB,m,m,./images/MUFFINHB.png,,,,,,,,,,,,,,,,,,,,m,1,1.4901,,,,,,,,0,125,125,55,1,break_done_button
,,,,,,,,,,,,,,,,,5e35a96ecf931055fb891c54,41,2022-02-12_16h21.42.933,lexical_decision_task_DD,2021.2.3,Win32,60.09254252,,,,,,,,,,,,0.85,0,,,,,,,,,,,,,,,,,,,,,,,,0.05859375,-0.395833333,0,0,0,,,,,,,FLASK,C,z,m,./images/FLASK.png,,,,,,,,,,,,,,,,,,,,m,0,0.85,,,,,,,,0,126,126,156,1,
,,,,,,,,,,,,,,,,,5e35a96ecf931055fb891c54,41,2022-02-12_16h21.42.933,lexical_decision_task_DD,2021.2.3,Win32,60.09254252,,,,,,,,,,,,0.6834,1,,,,,,,,,,,,,,,,,,,,,,,,0.05859375,-0.395833333,0,0,0,,,,,,,STRING,LB,m,m,./images/STRINGLB.png,,,,,,,,,,,,,,,,,,,,m,1,0.6834,,,,,,,,0,127,127,41,1,
,,,,,,,,,,,,,,,,,5e35a96ecf931055fb891c54,41,2022-02-12_16h21.42.933,lexical_decision_task_DD,2021.2.3,Win32,60.09254252,,,,,,,,,,,,0.694,1,,,,,,,,,,,,,,,,,,,,,,,,0.05859375,-0.395833333,0,0,0,,,,,,,BASKET,LB,z,m,./images/BASKETLB.png,,,,,,,,,,,,,,,,,,,,z,1,0.694,,,,,,,,0,128,128,128,1,
,,,,,,,,,,,,,,,,,5e35a96ecf931055fb891c54,41,2022-02-12_16h21.42.933,lexical_decision_task_DD,2021.2.3,Win32,60.09254252,,,,,,,,,,,,0.7088,1,,,,,,,,,,,,,,,,,,,,,,,,0.05859375,-0.395833333,0,0,0,,,,,,,JUMPER,LB,z,m,./images/JUMPERLB.png,,,,,,,,,,,,,,,,,,,,z,1,0.7088,,,,,,,,0,129,129,158,1,
,,,,,,,,,,,,,,,,,5e35a96ecf931055fb891c54,41,2022-02-12_16h21.42.933,lexical_decision_task_DD,2021.2.3,Win32,60.09254252,,,,,,,,,,,,0.7,1,,,,,,,,,,,,,,,,,,,,,,,,0.05859375,-0.395833333,0,0,0,,,,,,,SCREW,C,m,m,./images/SCREW.png,,,,,,,,,,,,,,,,,,,,m,1,0.7,,,,,,,,0,130,130,24,1,
,,,,,,,,,,,,,,,,,5e35a96ecf931055fb891c54,41,2022-02-12_16h21.42.933,lexical_decision_task_DD,2021.2.3,Win32,60.09254252,,,,,,,,,,,,0.6772,0,,,,,,,,,,,,,,,,,,,,,,,,0.05859375,-0.395833333,0,0,0,,,,,,,CEMENT,LB,m,m,./images/CEMENTLB.png,,,,,,,,,,,,,,,,,,,,z,0,0.6772,,,,,,,,0,131,131,74,1,
,,,,,,,,,,,,,,,,,5e35a96ecf931055fb891c54,41,2022-02-12_16h21.42.933,lexical_decision_task_DD,2021.2.3,Win32,60.09254252,,,,,,,,,,,,3.0815,0,,,,,,,,,,,,,,,,,,,,,,,,0.05859375,-0.395833333,0,0,0,,,,,,,DRILL,C,z,m,./images/DRILL.png,,,,,,,,,,,,,,,,,,,,m,0,3.0815,,,,,,,,0,132,132,165,1,
,,,,,,,,,,,,,,,,,5e35a96ecf931055fb891c54,41,2022-02-12_16h21.42.933,lexical_decision_task_DD,2021.2.3,Win32,60.09254252,,,,,,,,,,,,0.7011,1,,,,,,,,,,,,,,,,,,,,,,,,0.05859375,-0.395833333,0,0,0,,,,,,,THROAT,C,m,m,./images/THROAT.png,,,,,,,,,,,,,,,,,,,,m,1,0.7011,,,,,,,,0,133,133,36,1,
,,,,,,,,,,,,,,,,,5e35a96ecf931055fb891c54,41,2022-02-12_16h21.42.933,lexical_decision_task_DD,2021.2.3,Win32,60.09254252,,,,,,,,,,,,0.7379,1,,,,,,,,,,,,,,,,,,,,,,,,0.05859375,-0.395833333,0,0,0,,,,,,,BEARD,LB,m,m,./images/BEARDLB.png,,,,,,,,,,,,,,,,,,,,m,1,0.7379,,,,,,,,0,134,134,2,1,
