key_resp.keys,key_resp.rt,instr_done_touch.x,instr_done_touch.y,instr_done_touch.leftButton,instr_done_touch.midButton,instr_done_touch.rightButton,instruction_pages.thisRepN,instruction_pages.thisTrialN,instruction_pages.thisN,instruction_pages.thisIndex,instruction_pages.ran,pageN,phase,instruct_text,has_image,instruct_image,participant,age,date,expName,psychopyVersion,OS,frameRate,response.keys,response.corr,response.rt,touch_resp.x,touch_resp.y,touch_resp.leftButton,touch_resp.midButton,touch_resp.rightButton,touch_resp.time,touch_resp.clicked_name,rt,corr,practrials.thisRepN,practrials.thisTrialN,practrials.thisN,practrials.thisIndex,practrials.ran,TrialID,Target,corrAns,end_of_practice_trials_pages.thisRepN,end_of_practice_trials_pages.thisTrialN,end_of_practice_trials_pages.thisN,end_of_practice_trials_pages.thisIndex,end_of_practice_trials_pages.ran,key_resp_2.keys,key_resp_2.corr,key_resp_2.rt,targ_click.x,targ_click.y,targ_click.leftButton,targ_click.midButton,targ_click.rightButton,targ_click.time,targ_click.clicked_name,break_done_touch.x,break_done_touch.y,break_done_touch.leftButton,break_done_touch.midButton,break_done_touch.rightButton,break_done_keyboard.keys,maintrials.thisRepN,maintrials.thisTrialN,maintrials.thisN,maintrials.thisIndex,maintrials.ran,string,blur,study,lex,stim_path,break_done_keyboard.rt,mouse_2.x,mouse_2.y,mouse_2.leftButton,mouse_2.midButton,mouse_2.rightButton,mouse_2.clicked_name,slider.response,slider.rt,trials.thisRepN,trials.thisTrialN,trials.thisN,trials.thisIndex,trials.ran,instr_done_touch.clicked_name,test_instructions.thisRepN,test_instructions.thisTrialN,test_instructions.thisN,test_instructions.thisIndex,test_instructions.ran,key_resp_3.keys,key_resp_3.corr,key_resp_3.rt,test_click.x,test_click.y,test_click.leftButton,test_click.midButton,test_click.rightButton,test_click.time,test_click.clicked_name,test_phase.thisRepN,test_phase.thisTrialN,test_phase.thisN,test_phase.thisIndex,test_phase.ran
space,17.9928,0.043879462,-0.366946886,0,0,0,0,0,0,0,1,1,instructions,"INSTRUCTIONS
At the start of each trial, look at the plus sign  (+) in the center of the screen.  This tells you that a trial is about to begin and where to look. Second, the plus sign will disappear and a string of letters will appear. Your task is to determine if the string of letters is a word or not. If the item is a word press the M key (on keyboard)  or touch the word button (phone/tablet).  If the item is not a word,  press the  Z key (on keyboard)  or touch the nonword button (on phone/tablet). 
Press the space bar or touch  continue.",0,,5e723ffcc1c46a022a71a6dd,33,2022-02-12_18h50.53.061,lexical_decision_task_DD,2021.2.3,MacIntel,59.99160118,,,,,,,,,,,,,,,,,,,,,,,,,,,,,,,,,,,,,,,,,,,,,,,,,,,,,,,,,,,,,,,,,,,,,,,,,,,,,,,,,,,,,,
space,4.075,0.043879462,-0.366946886,0,0,0,0,1,1,1,1,2,instructions,"If your device has a keyboard, press the 'Z' key for nonwords and the 'M' key for words.





Press the space bar or touch the button below to continue.",0,keyboard-example.gif,5e723ffcc1c46a022a71a6dd,33,2022-02-12_18h50.53.061,lexical_decision_task_DD,2021.2.3,MacIntel,59.99160118,,,,,,,,,,,,,,,,,,,,,,,,,,,,,,,,,,,,,,,,,,,,,,,,,,,,,,,,,,,,,,,,,,,,,,,,,,,,,,,,,,,,,,
space,1.3189,0.043879462,-0.366946886,0,0,0,0,2,2,2,1,3,instructions,"If you are using a touchscreen only device, use the buttons on the screen. Do not use the mouse.





Press the space bar or touch the button below to continue.",0,touchscreen-example.gif,5e723ffcc1c46a022a71a6dd,33,2022-02-12_18h50.53.061,lexical_decision_task_DD,2021.2.3,MacIntel,59.99160118,,,,,,,,,,,,,,,,,,,,,,,,,,,,,,,,,,,,,,,,,,,,,,,,,,,,,,,,,,,,,,,,,,,,,,,,,,,,,,,,,,,,,,
space,1.3796,0.043879462,-0.366946886,0,0,0,0,3,3,3,1,4,instructions,"It is very important that you respond as quickly and accurately as possible, as each letter string will only be on the screen for two seconds. If you do not respond within this time, the message 'Too slow!' will be displayed and the experiment will progress to the next letter string. The first 20 trials will be practice trials and you will receive feedback on your answers. 

Press the space bar or touch the button below to start the practice trials.",0,,5e723ffcc1c46a022a71a6dd,33,2022-02-12_18h50.53.061,lexical_decision_task_DD,2021.2.3,MacIntel,59.99160118,,,,,,,,,,,,,,,,,,,,,,,,,,,,,,,,,,,,,,,,,,,,,,,,,,,,,,,,,,,,,,,,,,,,,,,,,,,,,,,,,,,,,,
,,,,,,,,,,,,,,,,,5e723ffcc1c46a022a71a6dd,33,2022-02-12_18h50.53.061,lexical_decision_task_DD,2021.2.3,MacIntel,59.99160118,z,1,1.1638,,,,,,,,1.1638,1,0,0,0,8,1,1001,ASLERT,z,,,,,,,,,,,,,,,,,,,,,,,,,,,,,,,,,,,,,,,,,,,,,,,,,,,,,,,,,,,,,,,,,,
,,,,,,,,,,,,,,,,,5e723ffcc1c46a022a71a6dd,33,2022-02-12_18h50.53.061,lexical_decision_task_DD,2021.2.3,MacIntel,59.99160118,m,1,0.5062,,,,,,,,0.5062,1,0,1,1,1,1,1001,ADJUST,m,,,,,,,,,,,,,,,,,,,,,,,,,,,,,,,,,,,,,,,,,,,,,,,,,,,,,,,,,,,,,,,,,,
,,,,,,,,,,,,,,,,,5e723ffcc1c46a022a71a6dd,33,2022-02-12_18h50.53.061,lexical_decision_task_DD,2021.2.3,MacIntel,59.99160118,m,1,0.7462,,,,,,,,0.7462,1,0,2,2,4,1,1001,SQUEAK,m,,,,,,,,,,,,,,,,,,,,,,,,,,,,,,,,,,,,,,,,,,,,,,,,,,,,,,,,,,,,,,,,,,
,,,,,,,,,,,,,,,,,5e723ffcc1c46a022a71a6dd,33,2022-02-12_18h50.53.061,lexical_decision_task_DD,2021.2.3,MacIntel,59.99160118,z,1,0.742,,,,,,,,0.742,1,0,3,3,9,1,1001,FARINY,z,,,,,,,,,,,,,,,,,,,,,,,,,,,,,,,,,,,,,,,,,,,,,,,,,,,,,,,,,,,,,,,,,,
,,,,,,,,,,,,,,,,,5e723ffcc1c46a022a71a6dd,33,2022-02-12_18h50.53.061,lexical_decision_task_DD,2021.2.3,MacIntel,59.99160118,z,1,0.9156,,,,,,,,0.9156,1,0,4,4,13,1,1001,ROUPET,z,,,,,,,,,,,,,,,,,,,,,,,,,,,,,,,,,,,,,,,,,,,,,,,,,,,,,,,,,,,,,,,,,,
,,,,,,,,,,,,,,,,,5e723ffcc1c46a022a71a6dd,33,2022-02-12_18h50.53.061,lexical_decision_task_DD,2021.2.3,MacIntel,59.99160118,m,1,0.464,,,,,,,,0.464,1,0,5,5,6,1,1001,ZOMBIE,m,,,,,,,,,,,,,,,,,,,,,,,,,,,,,,,,,,,,,,,,,,,,,,,,,,,,,,,,,,,,,,,,,,
,,,,,,,,,,,,,,,,,5e723ffcc1c46a022a71a6dd,33,2022-02-12_18h50.53.061,lexical_decision_task_DD,2021.2.3,MacIntel,59.99160118,m,1,0.5573,,,,,,,,0.5573,1,0,6,6,0,1,1001,UTOPIA,m,,,,,,,,,,,,,,,,,,,,,,,,,,,,,,,,,,,,,,,,,,,,,,,,,,,,,,,,,,,,,,,,,,
,,,,,,,,,,,,,,,,,5e723ffcc1c46a022a71a6dd,33,2022-02-12_18h50.53.061,lexical_decision_task_DD,2021.2.3,MacIntel,59.99160118,m,1,0.5042,,,,,,,,0.5042,1,0,7,7,7,1,1001,VOLUME,m,,,,,,,,,,,,,,,,,,,,,,,,,,,,,,,,,,,,,,,,,,,,,,,,,,,,,,,,,,,,,,,,,,
,,,,,,,,,,,,,,,,,5e723ffcc1c46a022a71a6dd,33,2022-02-12_18h50.53.061,lexical_decision_task_DD,2021.2.3,MacIntel,59.99160118,m,1,0.548,,,,,,,,0.548,1,0,8,8,3,1,1001,MATRIX,m,,,,,,,,,,,,,,,,,,,,,,,,,,,,,,,,,,,,,,,,,,,,,,,,,,,,,,,,,,,,,,,,,,
,,,,,,,,,,,,,,,,,5e723ffcc1c46a022a71a6dd,33,2022-02-12_18h50.53.061,lexical_decision_task_DD,2021.2.3,MacIntel,59.99160118,z,1,0.7498,,,,,,,,0.7498,1,0,9,9,10,1,1001,INLADE,z,,,,,,,,,,,,,,,,,,,,,,,,,,,,,,,,,,,,,,,,,,,,,,,,,,,,,,,,,,,,,,,,,,
,,,,,,,,,,,,,,,,,5e723ffcc1c46a022a71a6dd,33,2022-02-12_18h50.53.061,lexical_decision_task_DD,2021.2.3,MacIntel,59.99160118,m,1,0.5152,,,,,,,,0.5152,1,0,10,10,2,1,1001,ALMOND,m,,,,,,,,,,,,,,,,,,,,,,,,,,,,,,,,,,,,,,,,,,,,,,,,,,,,,,,,,,,,,,,,,,
,,,,,,,,,,,,,,,,,5e723ffcc1c46a022a71a6dd,33,2022-02-12_18h50.53.061,lexical_decision_task_DD,2021.2.3,MacIntel,59.99160118,z,1,0.7831,,,,,,,,0.7831,1,0,11,11,12,1,1001,SPRINY,z,,,,,,,,,,,,,,,,,,,,,,,,,,,,,,,,,,,,,,,,,,,,,,,,,,,,,,,,,,,,,,,,,,
,,,,,,,,,,,,,,,,,5e723ffcc1c46a022a71a6dd,33,2022-02-12_18h50.53.061,lexical_decision_task_DD,2021.2.3,MacIntel,59.99160118,z,1,0.7161,,,,,,,,0.7161,1,0,12,12,14,1,1001,THRALE,z,,,,,,,,,,,,,,,,,,,,,,,,,,,,,,,,,,,,,,,,,,,,,,,,,,,,,,,,,,,,,,,,,,
,,,,,,,,,,,,,,,,,5e723ffcc1c46a022a71a6dd,33,2022-02-12_18h50.53.061,lexical_decision_task_DD,2021.2.3,MacIntel,59.99160118,z,1,0.7828,,,,,,,,0.7828,1,0,13,13,11,1,1001,RASHET,z,,,,,,,,,,,,,,,,,,,,,,,,,,,,,,,,,,,,,,,,,,,,,,,,,,,,,,,,,,,,,,,,,,
,,,,,,,,,,,,,,,,,5e723ffcc1c46a022a71a6dd,33,2022-02-12_18h50.53.061,lexical_decision_task_DD,2021.2.3,MacIntel,59.99160118,m,1,0.5328,,,,,,,,0.5328,1,0,14,14,5,1,1001,OBTAIN,m,,,,,,,,,,,,,,,,,,,,,,,,,,,,,,,,,,,,,,,,,,,,,,,,,,,,,,,,,,,,,,,,,,
,,,,,,,,,,,,,,,,,5e723ffcc1c46a022a71a6dd,33,2022-02-12_18h50.53.061,lexical_decision_task_DD,2021.2.3,MacIntel,59.99160118,z,1,0.7004,,,,,,,,0.7004,1,0,15,15,15,1,1001,WHAISE,z,,,,,,,,,,,,,,,,,,,,,,,,,,,,,,,,,,,,,,,,,,,,,,,,,,,,,,,,,,,,,,,,,,
space,1.171,0.043879462,-0.366946886,0,0,0,,,,,,1,end_of_practice,"You have completed the practice trials. During the experimental trials, you will not receive feedback. 
Before you begin, please ensure that you are in a comfortable and quiet location and will not be disturbed for about 15 minutes, as we cannot use your data if you do not complete all the trials. 
 When you are ready to start the experimental trials, please press space or touch the button below.",,,5e723ffcc1c46a022a71a6dd,33,2022-02-12_18h50.53.061,lexical_decision_task_DD,2021.2.3,MacIntel,59.99160118,,,,,,,,,,,,,,,,,,,,,0,0,0,0,1,,,,,,,,,,,,,,,,,,,,,,,,,,,,,,,,,,,,,,,,,,,,,,,,,,,,,,,,,,,,,
,,,,,,,,,,,,,,,,,5e723ffcc1c46a022a71a6dd,33,2022-02-12_18h50.53.061,lexical_decision_task_DD,2021.2.3,MacIntel,59.99160118,,,,,,,,,,,1.8469,1,,,,,,,,,,,,,,m,1,1.8469,,,,,,,,0.043879462,-0.366946886,0,0,0,,0,0,0,64,1,JELLY,HB,old,m,./images/JELLYHB.png,,,,,,,,,,,,,,,,,,,,,,,,,,,,,,,,,,,
,,,,,,,,,,,,,,,,,5e723ffcc1c46a022a71a6dd,33,2022-02-12_18h50.53.061,lexical_decision_task_DD,2021.2.3,MacIntel,59.99160118,,,,,,,,,,,0.6805,1,,,,,,,,,,,,,,m,1,0.6805,,,,,,,,0.043879462,-0.366946886,0,0,0,,0,1,1,38,1,LADDER,LB,old,m,./images/LADDERLB.png,,,,,,,,,,,,,,,,,,,,,,,,,,,,,,,,,,,
,,,,,,,,,,,,,,,,,5e723ffcc1c46a022a71a6dd,33,2022-02-12_18h50.53.061,lexical_decision_task_DD,2021.2.3,MacIntel,59.99160118,,,,,,,,,,,1.1692,1,,,,,,,,,,,,,,z,1,1.1692,,,,,,,,0.043879462,-0.366946886,0,0,0,,0,2,2,166,1,SHORY,HB,old,z,./images/SHORYHB.png,,,,,,,,,,,,,,,,,,,,,,,,,,,,,,,,,,,
,,,,,,,,,,,,,,,,,5e723ffcc1c46a022a71a6dd,33,2022-02-12_18h50.53.061,lexical_decision_task_DD,2021.2.3,MacIntel,59.99160118,,,,,,,,,,,0.5766,0,,,,,,,,,,,,,,m,0,0.5766,,,,,,,,0.043879462,-0.366946886,0,0,0,,0,3,3,159,1,CUDDY,C,old,z,./images/CUDDY.png,,,,,,,,,,,,,,,,,,,,,,,,,,,,,,,,,,,
,,,,,,,,,,,,,,,,,5e723ffcc1c46a022a71a6dd,33,2022-02-12_18h50.53.061,lexical_decision_task_DD,2021.2.3,MacIntel,59.99160118,,,,,,,,,,,0.6291,1,,,,,,,,,,,,,,z,1,0.6291,,,,,,,,0.043879462,-0.366946886,0,0,0,,0,4,4,90,1,NEAST,C,old,z,./images/NEAST.png,,,,,,,,,,,,,,,,,,,,,,,,,,,,,,,,,,,
,,,,,,,,,,,,,,,,,5e723ffcc1c46a022a71a6dd,33,2022-02-12_18h50.53.061,lexical_decision_task_DD,2021.2.3,MacIntel,59.99160118,,,,,,,,,,,0.7991,1,,,,,,,,,,,,,,m,1,0.7991,,,,,,,,0.043879462,-0.366946886,0,0,0,,0,5,5,28,1,FALCON,HB,old,m,./images/FALCONHB.png,,,,,,,,,,,,,,,,,,,,,,,,,,,,,,,,,,,
,,,,,,,,,,,,,,,,,5e723ffcc1c46a022a71a6dd,33,2022-02-12_18h50.53.061,lexical_decision_task_DD,2021.2.3,MacIntel,59.99160118,,,,,,,,,,,0.7771,1,,,,,,,,,,,,,,z,1,0.7771,,,,,,,,0.043879462,-0.366946886,0,0,0,,0,6,6,114,1,RIKES,C,old,z,./images/RIKES.png,,,,,,,,,,,,,,,,,,,,,,,,,,,,,,,,,,,
,,,,,,,,,,,,,,,,,5e723ffcc1c46a022a71a6dd,33,2022-02-12_18h50.53.061,lexical_decision_task_DD,2021.2.3,MacIntel,59.99160118,,,,,,,,,,,0.6619,1,,,,,,,,,,,,,,z,1,0.6619,,,,,,,,0.043879462,-0.366946886,0,0,0,,0,7,7,111,1,HOSSE,C,old,z,./images/HOSSE.png,,,,,,,,,,,,,,,,,,,,,,,,,,,,,,,,,,,
,,,,,,,,,,,,,,,,,5e723ffcc1c46a022a71a6dd,33,2022-02-12_18h50.53.061,lexical_decision_task_DD,2021.2.3,MacIntel,59.99160118,,,,,,,,,,,0.5349,1,,,,,,,,,,,,,,m,1,0.5349,,,,,,,,0.043879462,-0.366946886,0,0,0,,0,8,8,47,1,BERRY,LB,old,m,./images/BERRYLB.png,,,,,,,,,,,,,,,,,,,,,,,,,,,,,,,,,,,
,,,,,,,,,,,,,,,,,5e723ffcc1c46a022a71a6dd,33,2022-02-12_18h50.53.061,lexical_decision_task_DD,2021.2.3,MacIntel,59.99160118,,,,,,,,,,,0.7163,1,,,,,,,,,,,,,,z,1,0.7163,,,,,,,,0.043879462,-0.366946886,0,0,0,,0,9,9,122,1,BLOOT,LB,old,z,./images/BLOOTLB.png,,,,,,,,,,,,,,,,,,,,,,,,,,,,,,,,,,,
,,,,,,,,,,,,,,,,,5e723ffcc1c46a022a71a6dd,33,2022-02-12_18h50.53.061,lexical_decision_task_DD,2021.2.3,MacIntel,59.99160118,,,,,,,,,,,1.4991,1,,,,,,,,,,,,,,z,1,1.4991,,,,,,,,0.043879462,-0.366946886,0,0,0,,0,10,10,130,1,CRILL,HB,old,z,./images/CRILLHB.png,,,,,,,,,,,,,,,,,,,,,,,,,,,,,,,,,,,
,,,,,,,,,,,,,,,,,5e723ffcc1c46a022a71a6dd,33,2022-02-12_18h50.53.061,lexical_decision_task_DD,2021.2.3,MacIntel,59.99160118,,,,,,,,,,,0.7169,1,,,,,,,,,,,,,,z,1,0.7169,,,,,,,,0.043879462,-0.366946886,0,0,0,,0,11,11,131,1,NACES,LB,old,z,./images/NACESLB.png,,,,,,,,,,,,,,,,,,,,,,,,,,,,,,,,,,,
,,,,,,,,,,,,,,,,,5e723ffcc1c46a022a71a6dd,33,2022-02-12_18h50.53.061,lexical_decision_task_DD,2021.2.3,MacIntel,59.99160118,,,,,,,,,,,1.0826,1,,,,,,,,,,,,,,z,1,1.0826,,,,,,,,0.043879462,-0.366946886,0,0,0,,0,12,12,118,1,BAVEL,HB,old,z,./images/BAVELHB.png,,,,,,,,,,,,,,,,,,,,,,,,,,,,,,,,,,,
,,,,,,,,,,,,,,,,,5e723ffcc1c46a022a71a6dd,33,2022-02-12_18h50.53.061,lexical_decision_task_DD,2021.2.3,MacIntel,59.99160118,,,,,,,,,,,0.6115,1,,,,,,,,,,,,,,z,1,0.6115,,,,,,,,0.043879462,-0.366946886,0,0,0,,0,13,13,117,1,STEEG,C,old,z,./images/STEEG.png,,,,,,,,,,,,,,,,,,,,,,,,,,,,,,,,,,,
,,,,,,,,,,,,,,,,,5e723ffcc1c46a022a71a6dd,33,2022-02-12_18h50.53.061,lexical_decision_task_DD,2021.2.3,MacIntel,59.99160118,,,,,,,,,,,0.9819,1,,,,,,,,,,,,,,m,1,0.9819,,,,,,,,0.043879462,-0.366946886,0,0,0,,0,14,14,73,1,SNACK,HB,old,m,./images/SNACKHB.png,,,,,,,,,,,,,,,,,,,,,,,,,,,,,,,,,,,
,,,,,,,,,,,,,,,,,5e723ffcc1c46a022a71a6dd,33,2022-02-12_18h50.53.061,lexical_decision_task_DD,2021.2.3,MacIntel,59.99160118,,,,,,,,,,,0.681,1,,,,,,,,,,,,,,z,1,0.681,,,,,,,,0.043879462,-0.366946886,0,0,0,,0,15,15,105,1,MOKER,C,old,z,./images/MOKER.png,,,,,,,,,,,,,,,,,,,,,,,,,,,,,,,,,,,
,,,,,,,,,,,,,,,,,5e723ffcc1c46a022a71a6dd,33,2022-02-12_18h50.53.061,lexical_decision_task_DD,2021.2.3,MacIntel,59.99160118,,,,,,,,,,,0.6268,1,,,,,,,,,,,,,,m,1,0.6268,,,,,,,,0.043879462,-0.366946886,0,0,0,,0,16,16,60,1,TWINS,C,old,m,./images/TWINS.png,,,,,,,,,,,,,,,,,,,,,,,,,,,,,,,,,,,
,,,,,,,,,,,,,,,,,5e723ffcc1c46a022a71a6dd,33,2022-02-12_18h50.53.061,lexical_decision_task_DD,2021.2.3,MacIntel,59.99160118,,,,,,,,,,,1.1321,1,,,,,,,,,,,,,,m,1,1.1321,,,,,,,,0.043879462,-0.366946886,0,0,0,,0,17,17,43,1,MOSQUE,HB,old,m,./images/MOSQUEHB.png,,,,,,,,,,,,,,,,,,,,,,,,,,,,,,,,,,,
,,,,,,,,,,,,,,,,,5e723ffcc1c46a022a71a6dd,33,2022-02-12_18h50.53.061,lexical_decision_task_DD,2021.2.3,MacIntel,59.99160118,,,,,,,,,,,0.7164,1,,,,,,,,,,,,,,z,1,0.7164,,,,,,,,0.043879462,-0.366946886,0,0,0,,0,18,18,89,1,DRIEK,LB,old,z,./images/DRIEKLB.png,,,,,,,,,,,,,,,,,,,,,,,,,,,,,,,,,,,
,,,,,,,,,,,,,,,,,5e723ffcc1c46a022a71a6dd,33,2022-02-12_18h50.53.061,lexical_decision_task_DD,2021.2.3,MacIntel,59.99160118,,,,,,,,,,,1.0405,1,,,,,,,,,,,,,,m,1,1.0405,,,,,,,,0.043879462,-0.366946886,0,0,0,,0,19,19,81,1,POODLE,C,old,m,./images/POODLE.png,,,,,,,,,,,,,,,,,,,,,,,,,,,,,,,,,,,
,,,,,,,,,,,,,,,,,5e723ffcc1c46a022a71a6dd,33,2022-02-12_18h50.53.061,lexical_decision_task_DD,2021.2.3,MacIntel,59.99160118,,,,,,,,,,,0.5645,1,,,,,,,,,,,,,,m,1,0.5645,,,,,,,,0.043879462,-0.366946886,0,0,0,,0,20,20,5,1,PASTA,LB,old,m,./images/PASTALB.png,,,,,,,,,,,,,,,,,,,,,,,,,,,,,,,,,,,
,,,,,,,,,,,,,,,,,5e723ffcc1c46a022a71a6dd,33,2022-02-12_18h50.53.061,lexical_decision_task_DD,2021.2.3,MacIntel,59.99160118,,,,,,,,,,,0.5459,1,,,,,,,,,,,,,,m,1,0.5459,,,,,,,,0.043879462,-0.366946886,0,0,0,,0,21,21,63,1,MIRROR,C,old,m,./images/MIRROR.png,,,,,,,,,,,,,,,,,,,,,,,,,,,,,,,,,,,
,,,,,,,,,,,,,,,,,5e723ffcc1c46a022a71a6dd,33,2022-02-12_18h50.53.061,lexical_decision_task_DD,2021.2.3,MacIntel,59.99160118,,,,,,,,,,,0.5657,1,,,,,,,,,,,,,,m,1,0.5657,,,,,,,,0.043879462,-0.366946886,0,0,0,,0,22,22,27,1,ATTIC,C,old,m,./images/ATTIC.png,,,,,,,,,,,,,,,,,,,,,,,,,,,,,,,,,,,
,,,,,,,,,,,,,,,,,5e723ffcc1c46a022a71a6dd,33,2022-02-12_18h50.53.061,lexical_decision_task_DD,2021.2.3,MacIntel,59.99160118,,,,,,,,,,,0.5052,1,,,,,,,,,,,,,,m,1,0.5052,,,,,,,,0.043879462,-0.366946886,0,0,0,,0,23,23,83,1,JUNGLE,LB,old,m,./images/JUNGLELB.png,,,,,,,,,,,,,,,,,,,,,,,,,,,,,,,,,,,
,,,,,,,,,,,,,,,,,5e723ffcc1c46a022a71a6dd,33,2022-02-12_18h50.53.061,lexical_decision_task_DD,2021.2.3,MacIntel,59.99160118,,,,,,,,,,,0.5864,1,,,,,,,,,,,,,,m,1,0.5864,,,,,,,,0.043879462,-0.366946886,0,0,0,,0,24,24,57,1,MOOSE,C,old,m,./images/MOOSE.png,,,,,,,,,,,,,,,,,,,,,,,,,,,,,,,,,,,
,,,,,,,,,,,,,,,,,5e723ffcc1c46a022a71a6dd,33,2022-02-12_18h50.53.061,lexical_decision_task_DD,2021.2.3,MacIntel,59.99160118,,,,,,,,,,,0.5848,1,,,,,,,,,,,,,,z,1,0.5848,,,,,,,,0.043879462,-0.366946886,0,0,0,,0,25,25,87,1,TRING,C,old,z,./images/TRING.png,,,,,,,,,,,,,,,,,,,,,,,,,,,,,,,,,,,
,,,,,,,,,,,,,,,,,5e723ffcc1c46a022a71a6dd,33,2022-02-12_18h50.53.061,lexical_decision_task_DD,2021.2.3,MacIntel,59.99160118,,,,,,,,,,,0.8012,1,,,,,,,,,,,,,,z,1,0.8012,,,,,,,,0.043879462,-0.366946886,0,0,0,,0,26,26,113,1,LINEW,LB,old,z,./images/LINEWLB.png,,,,,,,,,,,,,,,,,,,,,,,,,,,,,,,,,,,
,,,,,,,,,,,,,,,,,5e723ffcc1c46a022a71a6dd,33,2022-02-12_18h50.53.061,lexical_decision_task_DD,2021.2.3,MacIntel,59.99160118,,,,,,,,,,,0.6185,1,,,,,,,,,,,,,,m,1,0.6185,,,,,,,,0.043879462,-0.366946886,0,0,0,,0,27,27,65,1,FARMER,LB,old,m,./images/FARMERLB.png,,,,,,,,,,,,,,,,,,,,,,,,,,,,,,,,,,,
,,,,,,,,,,,,,,,,,5e723ffcc1c46a022a71a6dd,33,2022-02-12_18h50.53.061,lexical_decision_task_DD,2021.2.3,MacIntel,59.99160118,,,,,,,,,,,0.6007,1,,,,,,,,,,,,,,m,1,0.6007,,,,,,,,0.043879462,-0.366946886,0,0,0,,0,28,28,18,1,JAGUAR,C,old,m,./images/JAGUAR.png,,,,,,,,,,,,,,,,,,,,,,,,,,,,,,,,,,,
,,,,,,,,,,,,,,,,,5e723ffcc1c46a022a71a6dd,33,2022-02-12_18h50.53.061,lexical_decision_task_DD,2021.2.3,MacIntel,59.99160118,,,,,,,,,,,0.6526,1,,,,,,,,,,,,,,z,1,0.6526,,,,,,,,0.043879462,-0.366946886,0,0,0,,0,29,29,141,1,PLEET,C,old,z,./images/PLEET.png,,,,,,,,,,,,,,,,,,,,,,,,,,,,,,,,,,,
,,,,,,,,,,,,,,,,,5e723ffcc1c46a022a71a6dd,33,2022-02-12_18h50.53.061,lexical_decision_task_DD,2021.2.3,MacIntel,59.99160118,,,,,,,,,,,0.8144,1,,,,,,,,,,,,,,z,1,0.8144,,,,,,,,0.043879462,-0.366946886,0,0,0,,0,30,30,128,1,GRIFT,LB,old,z,./images/GRIFTLB.png,,,,,,,,,,,,,,,,,,,,,,,,,,,,,,,,,,,
,,,,,,,,,,,,,,,,,5e723ffcc1c46a022a71a6dd,33,2022-02-12_18h50.53.061,lexical_decision_task_DD,2021.2.3,MacIntel,59.99160118,,,,,,,,,,,1.1653,1,,,,,,,,,,,,,,z,1,1.1653,,,,,,,,0.043879462,-0.366946886,0,0,0,,0,31,31,112,1,MYING,HB,old,z,./images/MYINGHB.png,,,,,,,,,,,,,,,,,,,,,,,,,,,,,,,,,,,
,,,,,,,,,,,,,,,,,5e723ffcc1c46a022a71a6dd,33,2022-02-12_18h50.53.061,lexical_decision_task_DD,2021.2.3,MacIntel,59.99160118,,,,,,,,,,,0.4831,1,,,,,,,,,,,,,,m,1,0.4831,,,,,,,,0.043879462,-0.366946886,0,0,0,,0,32,32,80,1,WEASEL,LB,old,m,./images/WEASELLB.png,,,,,,,,,,,,,,,,,,,,,,,,,,,,,,,,,,,
,,,,,,,,,,,,,,,,,5e723ffcc1c46a022a71a6dd,33,2022-02-12_18h50.53.061,lexical_decision_task_DD,2021.2.3,MacIntel,59.99160118,,,,,,,,,,,1.33,1,,,,,,,,,,,,,,z,1,1.33,,,,,,,,0.043879462,-0.366946886,0,0,0,,0,33,33,115,1,MAWNS,HB,old,z,./images/MAWNSHB.png,,,,,,,,,,,,,,,,,,,,,,,,,,,,,,,,,,,
,,,,,,,,,,,,,,,,,5e723ffcc1c46a022a71a6dd,33,2022-02-12_18h50.53.061,lexical_decision_task_DD,2021.2.3,MacIntel,59.99160118,,,,,,,,,,,0.5644,1,,,,,,,,,,,,,,m,1,0.5644,,,,,,,,0.043879462,-0.366946886,0,0,0,,0,34,34,12,1,SHORE,C,old,m,./images/SHORE.png,,,,,,,,,,,,,,,,,,,,,,,,,,,,,,,,,,,
,,,,,,,,,,,,,,,,,5e723ffcc1c46a022a71a6dd,33,2022-02-12_18h50.53.061,lexical_decision_task_DD,2021.2.3,MacIntel,59.99160118,,,,,,,,,,,0.5522,1,,,,,,,,,,,,,,m,1,0.5522,,,,,,,,0.043879462,-0.366946886,0,0,0,,0,35,35,17,1,SKIING,LB,old,m,./images/SKIINGLB.png,,,,,,,,,,,,,,,,,,,,,,,,,,,,,,,,,,,
,,,,,,,,,,,,,,,,,5e723ffcc1c46a022a71a6dd,33,2022-02-12_18h50.53.061,lexical_decision_task_DD,2021.2.3,MacIntel,59.99160118,,,,,,,,,,,0.4965,1,,,,,,,,,,,,,,m,1,0.4965,,,,,,,,0.043879462,-0.366946886,0,0,0,,0,36,36,39,1,SHELF,C,old,m,./images/SHELF.png,,,,,,,,,,,,,,,,,,,,,,,,,,,,,,,,,,,
,,,,,,,,,,,,,,,,,5e723ffcc1c46a022a71a6dd,33,2022-02-12_18h50.53.061,lexical_decision_task_DD,2021.2.3,MacIntel,59.99160118,,,,,,,,,,,0.5151,1,,,,,,,,,,,,,,m,1,0.5151,,,,,,,,0.043879462,-0.366946886,0,0,0,,0,37,37,21,1,KIDNEY,C,old,m,./images/KIDNEY.png,,,,,,,,,,,,,,,,,,,,,,,,,,,,,,,,,,,
,,,,,,,,,,,,,,,,,5e723ffcc1c46a022a71a6dd,33,2022-02-12_18h50.53.061,lexical_decision_task_DD,2021.2.3,MacIntel,59.99160118,,,,,,,,,,,0.7287,1,,,,,,,,,,,,,,m,1,0.7287,,,,,,,,0.043879462,-0.366946886,0,0,0,,0,38,38,49,1,DRUMS,HB,old,m,./images/DRUMSHB.png,,,,,,,,,,,,,,,,,,,,,,,,,,,,,,,,,,,
,,,,,,,,,,,,,,,,,5e723ffcc1c46a022a71a6dd,33,2022-02-12_18h50.53.061,lexical_decision_task_DD,2021.2.3,MacIntel,59.99160118,,,,,,,,,,,0.6159,1,,,,,,,,,,,,,,m,1,0.6159,,,,,,,,0.043879462,-0.366946886,0,0,0,,0,39,39,53,1,CARPET,LB,old,m,./images/CARPETLB.png,,,,,,,,,,,,,,,,,,,,,,,,,,,,,,,,,,,
,,,,,,,,,,,,,,,,,5e723ffcc1c46a022a71a6dd,33,2022-02-12_18h50.53.061,lexical_decision_task_DD,2021.2.3,MacIntel,59.99160118,,,,,,,,,,,0.5354,1,,,,,,,,,,,,,,m,1,0.5354,,,,,,,,0.043879462,-0.366946886,0,0,0,,0,40,40,11,1,BONNET,LB,old,m,./images/BONNETLB.png,,,,,,,,,,,,,,,,,,,,,,,,,,,,,,,,,,,
,,,,,,,,,,,,,,,,,5e723ffcc1c46a022a71a6dd,33,2022-02-12_18h50.53.061,lexical_decision_task_DD,2021.2.3,MacIntel,59.99160118,,,,,,,,,,,0.4678,1,,,,,,,,,,,,,,m,1,0.4678,,,,,,,,0.043879462,-0.366946886,0,0,0,space,0,41,41,29,1,CRUMB,LB,old,m,./images/CRUMBLB.png,1.5408,,,,,,,,,,,,,,,,,,,,,,,,,,,,,,,,,,
,,,,,,,,,,,,,,,,,5e723ffcc1c46a022a71a6dd,33,2022-02-12_18h50.53.061,lexical_decision_task_DD,2021.2.3,MacIntel,59.99160118,,,,,,,,,,,0.917,1,,,,,,,,,,,,,,z,1,0.917,,,,,,,,0.043879462,-0.366946886,0,0,0,,0,42,42,127,1,NINDY,HB,old,z,./images/NINDYHB.png,,,,,,,,,,,,,,,,,,,,,,,,,,,,,,,,,,,
,,,,,,,,,,,,,,,,,5e723ffcc1c46a022a71a6dd,33,2022-02-12_18h50.53.061,lexical_decision_task_DD,2021.2.3,MacIntel,59.99160118,,,,,,,,,,,1.0218,1,,,,,,,,,,,,,,z,1,1.0218,,,,,,,,0.043879462,-0.366946886,0,0,0,,0,43,43,135,1,JOODY,C,old,z,./images/JOODY.png,,,,,,,,,,,,,,,,,,,,,,,,,,,,,,,,,,,
,,,,,,,,,,,,,,,,,5e723ffcc1c46a022a71a6dd,33,2022-02-12_18h50.53.061,lexical_decision_task_DD,2021.2.3,MacIntel,59.99160118,,,,,,,,,,,0.4638,1,,,,,,,,,,,,,,m,1,0.4638,,,,,,,,0.043879462,-0.366946886,0,0,0,,0,44,44,6,1,SQUARE,C,old,m,./images/SQUARE.png,,,,,,,,,,,,,,,,,,,,,,,,,,,,,,,,,,,
,,,,,,,,,,,,,,,,,5e723ffcc1c46a022a71a6dd,33,2022-02-12_18h50.53.061,lexical_decision_task_DD,2021.2.3,MacIntel,59.99160118,,,,,,,,,,,0.634,1,,,,,,,,,,,,,,z,1,0.634,,,,,,,,0.043879462,-0.366946886,0,0,0,,0,45,45,167,1,ZONET,LB,old,z,./images/ZONETLB.png,,,,,,,,,,,,,,,,,,,,,,,,,,,,,,,,,,,
,,,,,,,,,,,,,,,,,5e723ffcc1c46a022a71a6dd,33,2022-02-12_18h50.53.061,lexical_decision_task_DD,2021.2.3,MacIntel,59.99160118,,,,,,,,,,,0.9848,1,,,,,,,,,,,,,,z,1,0.9848,,,,,,,,0.043879462,-0.366946886,0,0,0,,0,46,46,94,1,BLANS,HB,old,z,./images/BLANSHB.png,,,,,,,,,,,,,,,,,,,,,,,,,,,,,,,,,,,
,,,,,,,,,,,,,,,,,5e723ffcc1c46a022a71a6dd,33,2022-02-12_18h50.53.061,lexical_decision_task_DD,2021.2.3,MacIntel,59.99160118,,,,,,,,,,,0.4796,1,,,,,,,,,,,,,,m,1,0.4796,,,,,,,,0.043879462,-0.366946886,0,0,0,,0,47,47,30,1,STORM,C,old,m,./images/STORM.png,,,,,,,,,,,,,,,,,,,,,,,,,,,,,,,,,,,
,,,,,,,,,,,,,,,,,5e723ffcc1c46a022a71a6dd,33,2022-02-12_18h50.53.061,lexical_decision_task_DD,2021.2.3,MacIntel,59.99160118,,,,,,,,,,,0.8027,1,,,,,,,,,,,,,,z,1,0.8027,,,,,,,,0.043879462,-0.366946886,0,0,0,,0,48,48,160,1,VEETS,HB,old,z,./images/VEETSHB.png,,,,,,,,,,,,,,,,,,,,,,,,,,,,,,,,,,,
,,,,,,,,,,,,,,,,,5e723ffcc1c46a022a71a6dd,33,2022-02-12_18h50.53.061,lexical_decision_task_DD,2021.2.3,MacIntel,59.99160118,,,,,,,,,,,0.4646,1,,,,,,,,,,,,,,m,1,0.4646,,,,,,,,0.043879462,-0.366946886,0,0,0,,0,49,49,77,1,COUCH,LB,old,m,./images/COUCHLB.png,,,,,,,,,,,,,,,,,,,,,,,,,,,,,,,,,,,
,,,,,,,,,,,,,,,,,5e723ffcc1c46a022a71a6dd,33,2022-02-12_18h50.53.061,lexical_decision_task_DD,2021.2.3,MacIntel,59.99160118,,,,,,,,,,,0.9079,1,,,,,,,,,,,,,,m,1,0.9079,,,,,,,,0.043879462,-0.366946886,0,0,0,,0,50,50,7,1,PAINT,HB,old,m,./images/PAINTHB.png,,,,,,,,,,,,,,,,,,,,,,,,,,,,,,,,,,,
,,,,,,,,,,,,,,,,,5e723ffcc1c46a022a71a6dd,33,2022-02-12_18h50.53.061,lexical_decision_task_DD,2021.2.3,MacIntel,59.99160118,,,,,,,,,,,0.5269,1,,,,,,,,,,,,,,m,1,0.5269,,,,,,,,0.043879462,-0.366946886,0,0,0,,0,51,51,23,1,WALRUS,LB,old,m,./images/WALRUSLB.png,,,,,,,,,,,,,,,,,,,,,,,,,,,,,,,,,,,
,,,,,,,,,,,,,,,,,5e723ffcc1c46a022a71a6dd,33,2022-02-12_18h50.53.061,lexical_decision_task_DD,2021.2.3,MacIntel,59.99160118,,,,,,,,,,,1.2134,1,,,,,,,,,,,,,,m,1,1.2134,,,,,,,,0.043879462,-0.366946886,0,0,0,,0,52,52,16,1,PENCE,HB,old,m,./images/PENCEHB.png,,,,,,,,,,,,,,,,,,,,,,,,,,,,,,,,,,,
,,,,,,,,,,,,,,,,,5e723ffcc1c46a022a71a6dd,33,2022-02-12_18h50.53.061,lexical_decision_task_DD,2021.2.3,MacIntel,59.99160118,,,,,,,,,,,0.6653,1,,,,,,,,,,,,,,m,1,0.6653,,,,,,,,0.043879462,-0.366946886,0,0,0,,0,53,53,25,1,WRIST,HB,old,m,./images/WRISTHB.png,,,,,,,,,,,,,,,,,,,,,,,,,,,,,,,,,,,
,,,,,,,,,,,,,,,,,5e723ffcc1c46a022a71a6dd,33,2022-02-12_18h50.53.061,lexical_decision_task_DD,2021.2.3,MacIntel,59.99160118,,,,,,,,,,,1.0274,1,,,,,,,,,,,,,,z,1,1.0274,,,,,,,,0.043879462,-0.366946886,0,0,0,,0,54,54,104,1,GITTY,LB,old,z,./images/GITTYLB.png,,,,,,,,,,,,,,,,,,,,,,,,,,,,,,,,,,,
,,,,,,,,,,,,,,,,,5e723ffcc1c46a022a71a6dd,33,2022-02-12_18h50.53.061,lexical_decision_task_DD,2021.2.3,MacIntel,59.99160118,,,,,,,,,,,1.7301,1,,,,,,,,,,,,,,z,1,1.7301,,,,,,,,0.043879462,-0.366946886,0,0,0,,0,55,55,91,1,SHENS,HB,old,z,./images/SHENSHB.png,,,,,,,,,,,,,,,,,,,,,,,,,,,,,,,,,,,
,,,,,,,,,,,,,,,,,5e723ffcc1c46a022a71a6dd,33,2022-02-12_18h50.53.061,lexical_decision_task_DD,2021.2.3,MacIntel,59.99160118,,,,,,,,,,,0.7154,0,,,,,,,,,,,,,,m,0,0.7154,,,,,,,,0.043879462,-0.366946886,0,0,0,,0,56,56,156,1,HIXES,C,old,z,./images/HIXES.png,,,,,,,,,,,,,,,,,,,,,,,,,,,,,,,,,,,
,,,,,,,,,,,,,,,,,5e723ffcc1c46a022a71a6dd,33,2022-02-12_18h50.53.061,lexical_decision_task_DD,2021.2.3,MacIntel,59.99160118,,,,,,,,,,,0.7846,1,,,,,,,,,,,,,,z,1,0.7846,,,,,,,,0.043879462,-0.366946886,0,0,0,,0,57,57,137,1,JOOST,LB,old,z,./images/JOOSTLB.png,,,,,,,,,,,,,,,,,,,,,,,,,,,,,,,,,,,
,,,,,,,,,,,,,,,,,5e723ffcc1c46a022a71a6dd,33,2022-02-12_18h50.53.061,lexical_decision_task_DD,2021.2.3,MacIntel,59.99160118,,,,,,,,,,,0.6159,1,,,,,,,,,,,,,,m,1,0.6159,,,,,,,,0.043879462,-0.366946886,0,0,0,,0,58,58,61,1,CANDLE,HB,old,m,./images/CANDLEHB.png,,,,,,,,,,,,,,,,,,,,,,,,,,,,,,,,,,,
,,,,,,,,,,,,,,,,,5e723ffcc1c46a022a71a6dd,33,2022-02-12_18h50.53.061,lexical_decision_task_DD,2021.2.3,MacIntel,59.99160118,,,,,,,,,,,0.4967,1,,,,,,,,,,,,,,m,1,0.4967,,,,,,,,0.043879462,-0.366946886,0,0,0,,0,59,59,3,1,FINGER,C,old,m,./images/FINGER.png,,,,,,,,,,,,,,,,,,,,,,,,,,,,,,,,,,,
,,,,,,,,,,,,,,,,,5e723ffcc1c46a022a71a6dd,33,2022-02-12_18h50.53.061,lexical_decision_task_DD,2021.2.3,MacIntel,59.99160118,,,,,,,,,,,0.7312,1,,,,,,,,,,,,,,z,1,0.7312,,,,,,,,0.043879462,-0.366946886,0,0,0,,0,60,60,102,1,DULLE,C,old,z,./images/DULLE.png,,,,,,,,,,,,,,,,,,,,,,,,,,,,,,,,,,,
,,,,,,,,,,,,,,,,,5e723ffcc1c46a022a71a6dd,33,2022-02-12_18h50.53.061,lexical_decision_task_DD,2021.2.3,MacIntel,59.99160118,,,,,,,,,,,0.6357,1,,,,,,,,,,,,,,z,1,0.6357,,,,,,,,0.043879462,-0.366946886,0,0,0,,0,61,61,150,1,NOOLS,C,old,z,./images/NOOLS.png,,,,,,,,,,,,,,,,,,,,,,,,,,,,,,,,,,,
,,,,,,,,,,,,,,,,,5e723ffcc1c46a022a71a6dd,33,2022-02-12_18h50.53.061,lexical_decision_task_DD,2021.2.3,MacIntel,59.99160118,,,,,,,,,,,0.6128,1,,,,,,,,,,,,,,m,1,0.6128,,,,,,,,0.043879462,-0.366946886,0,0,0,,0,62,62,75,1,GRAIN,C,old,m,./images/GRAIN.png,,,,,,,,,,,,,,,,,,,,,,,,,,,,,,,,,,,
,,,,,,,,,,,,,,,,,5e723ffcc1c46a022a71a6dd,33,2022-02-12_18h50.53.061,lexical_decision_task_DD,2021.2.3,MacIntel,59.99160118,,,,,,,,,,,0.5128,1,,,,,,,,,,,,,,m,1,0.5128,,,,,,,,0.043879462,-0.366946886,0,0,0,,0,63,63,26,1,SMOKER,LB,old,m,./images/SMOKERLB.png,,,,,,,,,,,,,,,,,,,,,,,,,,,,,,,,,,,
,,,,,,,,,,,,,,,,,5e723ffcc1c46a022a71a6dd,33,2022-02-12_18h50.53.061,lexical_decision_task_DD,2021.2.3,MacIntel,59.99160118,,,,,,,,,,,0.802,1,,,,,,,,,,,,,,z,1,0.802,,,,,,,,0.043879462,-0.366946886,0,0,0,,0,64,64,124,1,TUNCH,HB,old,z,./images/TUNCHHB.png,,,,,,,,,,,,,,,,,,,,,,,,,,,,,,,,,,,
,,,,,,,,,,,,,,,,,5e723ffcc1c46a022a71a6dd,33,2022-02-12_18h50.53.061,lexical_decision_task_DD,2021.2.3,MacIntel,59.99160118,,,,,,,,,,,0.7137,1,,,,,,,,,,,,,,z,1,0.7137,,,,,,,,0.043879462,-0.366946886,0,0,0,,0,65,65,151,1,TINKY,HB,old,z,./images/TINKYHB.png,,,,,,,,,,,,,,,,,,,,,,,,,,,,,,,,,,,
,,,,,,,,,,,,,,,,,5e723ffcc1c46a022a71a6dd,33,2022-02-12_18h50.53.061,lexical_decision_task_DD,2021.2.3,MacIntel,59.99160118,,,,,,,,,,,0.9799,1,,,,,,,,,,,,,,z,1,0.9799,,,,,,,,0.043879462,-0.366946886,0,0,0,,0,66,66,129,1,PRANS,C,old,z,./images/PRANS.png,,,,,,,,,,,,,,,,,,,,,,,,,,,,,,,,,,,
,,,,,,,,,,,,,,,,,5e723ffcc1c46a022a71a6dd,33,2022-02-12_18h50.53.061,lexical_decision_task_DD,2021.2.3,MacIntel,59.99160118,,,,,,,,,,,0.6322,1,,,,,,,,,,,,,,m,1,0.6322,,,,,,,,0.043879462,-0.366946886,0,0,0,,0,67,67,34,1,CANYON,HB,old,m,./images/CANYONHB.png,,,,,,,,,,,,,,,,,,,,,,,,,,,,,,,,,,,
,,,,,,,,,,,,,,,,,5e723ffcc1c46a022a71a6dd,33,2022-02-12_18h50.53.061,lexical_decision_task_DD,2021.2.3,MacIntel,59.99160118,,,,,,,,,,,1.0649,1,,,,,,,,,,,,,,z,1,1.0649,,,,,,,,0.043879462,-0.366946886,0,0,0,,0,68,68,142,1,PLASK,HB,old,z,./images/PLASKHB.png,,,,,,,,,,,,,,,,,,,,,,,,,,,,,,,,,,,
,,,,,,,,,,,,,,,,,5e723ffcc1c46a022a71a6dd,33,2022-02-12_18h50.53.061,lexical_decision_task_DD,2021.2.3,MacIntel,59.99160118,,,,,,,,,,,0.6431,1,,,,,,,,,,,,,,m,1,0.6431,,,,,,,,0.043879462,-0.366946886,0,0,0,,0,69,69,70,1,URINE,HB,old,m,./images/URINEHB.png,,,,,,,,,,,,,,,,,,,,,,,,,,,,,,,,,,,
,,,,,,,,,,,,,,,,,5e723ffcc1c46a022a71a6dd,33,2022-02-12_18h50.53.061,lexical_decision_task_DD,2021.2.3,MacIntel,59.99160118,,,,,,,,,,,1.0297,1,,,,,,,,,,,,,,m,1,1.0297,,,,,,,,0.043879462,-0.366946886,0,0,0,,0,70,70,22,1,MELON,HB,old,m,./images/MELONHB.png,,,,,,,,,,,,,,,,,,,,,,,,,,,,,,,,,,,
,,,,,,,,,,,,,,,,,5e723ffcc1c46a022a71a6dd,33,2022-02-12_18h50.53.061,lexical_decision_task_DD,2021.2.3,MacIntel,59.99160118,,,,,,,,,,,0.6142,1,,,,,,,,,,,,,,z,1,0.6142,,,,,,,,0.043879462,-0.366946886,0,0,0,,0,71,71,147,1,ZOLES,C,old,z,./images/ZOLES.png,,,,,,,,,,,,,,,,,,,,,,,,,,,,,,,,,,,
,,,,,,,,,,,,,,,,,5e723ffcc1c46a022a71a6dd,33,2022-02-12_18h50.53.061,lexical_decision_task_DD,2021.2.3,MacIntel,59.99160118,,,,,,,,,,,1.3672,1,,,,,,,,,,,,,,m,1,1.3672,,,,,,,,0.043879462,-0.366946886,0,0,0,,0,72,72,46,1,PEARL,HB,old,m,./images/PEARLHB.png,,,,,,,,,,,,,,,,,,,,,,,,,,,,,,,,,,,
,,,,,,,,,,,,,,,,,5e723ffcc1c46a022a71a6dd,33,2022-02-12_18h50.53.061,lexical_decision_task_DD,2021.2.3,MacIntel,59.99160118,,,,,,,,,,,0.4627,1,,,,,,,,,,,,,,m,1,0.4627,,,,,,,,0.043879462,-0.366946886,0,0,0,,0,73,73,78,1,LITTER,C,old,m,./images/LITTER.png,,,,,,,,,,,,,,,,,,,,,,,,,,,,,,,,,,,
,,,,,,,,,,,,,,,,,5e723ffcc1c46a022a71a6dd,33,2022-02-12_18h50.53.061,lexical_decision_task_DD,2021.2.3,MacIntel,59.99160118,,,,,,,,,,,1.4125,1,,,,,,,,,,,,,,z,1,1.4125,,,,,,,,0.043879462,-0.366946886,0,0,0,,0,74,74,154,1,THINT,HB,old,z,./images/THINTHB.png,,,,,,,,,,,,,,,,,,,,,,,,,,,,,,,,,,,
,,,,,,,,,,,,,,,,,5e723ffcc1c46a022a71a6dd,33,2022-02-12_18h50.53.061,lexical_decision_task_DD,2021.2.3,MacIntel,59.99160118,,,,,,,,,,,0.6338,1,,,,,,,,,,,,,,m,1,0.6338,,,,,,,,0.043879462,-0.366946886,0,0,0,,0,75,75,13,1,MOTOR,HB,old,m,./images/MOTORHB.png,,,,,,,,,,,,,,,,,,,,,,,,,,,,,,,,,,,
,,,,,,,,,,,,,,,,,5e723ffcc1c46a022a71a6dd,33,2022-02-12_18h50.53.061,lexical_decision_task_DD,2021.2.3,MacIntel,59.99160118,,,,,,,,,,,0.5819,1,,,,,,,,,,,,,,m,1,0.5819,,,,,,,,0.043879462,-0.366946886,0,0,0,,0,76,76,52,1,BANNER,HB,old,m,./images/BANNERHB.png,,,,,,,,,,,,,,,,,,,,,,,,,,,,,,,,,,,
,,,,,,,,,,,,,,,,,5e723ffcc1c46a022a71a6dd,33,2022-02-12_18h50.53.061,lexical_decision_task_DD,2021.2.3,MacIntel,59.99160118,,,,,,,,,,,0.516,1,,,,,,,,,,,,,,m,1,0.516,,,,,,,,0.043879462,-0.366946886,0,0,0,,0,77,77,0,1,TOMATO,C,old,m,./images/TOMATO.png,,,,,,,,,,,,,,,,,,,,,,,,,,,,,,,,,,,
,,,,,,,,,,,,,,,,,5e723ffcc1c46a022a71a6dd,33,2022-02-12_18h50.53.061,lexical_decision_task_DD,2021.2.3,MacIntel,59.99160118,,,,,,,,,,,0.649,1,,,,,,,,,,,,,,z,1,0.649,,,,,,,,0.043879462,-0.366946886,0,0,0,,0,78,78,126,1,GUELS,C,old,z,./images/GUELS.png,,,,,,,,,,,,,,,,,,,,,,,,,,,,,,,,,,,
,,,,,,,,,,,,,,,,,5e723ffcc1c46a022a71a6dd,33,2022-02-12_18h50.53.061,lexical_decision_task_DD,2021.2.3,MacIntel,59.99160118,,,,,,,,,,,0.5475,1,,,,,,,,,,,,,,m,1,0.5475,,,,,,,,0.043879462,-0.366946886,0,0,0,,0,79,79,54,1,TRIPOD,C,old,m,./images/TRIPOD.png,,,,,,,,,,,,,,,,,,,,,,,,,,,,,,,,,,,
,,,,,,,,,,,,,,,,,5e723ffcc1c46a022a71a6dd,33,2022-02-12_18h50.53.061,lexical_decision_task_DD,2021.2.3,MacIntel,59.99160118,,,,,,,,,,,0.4595,1,,,,,,,,,,,,,,m,1,0.4595,,,,,,,,0.043879462,-0.366946886,0,0,0,,0,80,80,2,1,BEARD,LB,old,m,./images/BEARDLB.png,,,,,,,,,,,,,,,,,,,,,,,,,,,,,,,,,,,
,,,,,,,,,,,,,,,,,5e723ffcc1c46a022a71a6dd,33,2022-02-12_18h50.53.061,lexical_decision_task_DD,2021.2.3,MacIntel,59.99160118,,,,,,,,,,,0.4369,0,,,,,,,,,,,,,,m,0,0.4369,,,,,,,,0.043879462,-0.366946886,0,0,0,,0,81,81,123,1,SEDGE,C,old,z,./images/SEDGE.png,,,,,,,,,,,,,,,,,,,,,,,,,,,,,,,,,,,
,,,,,,,,,,,,,,,,,5e723ffcc1c46a022a71a6dd,33,2022-02-12_18h50.53.061,lexical_decision_task_DD,2021.2.3,MacIntel,59.99160118,,,,,,,,,,,0.9219,1,,,,,,,,,,,,,,z,1,0.9219,,,,,,,,0.043879462,-0.366946886,0,0,0,,0,82,82,139,1,BLEAR,HB,old,z,./images/BLEARHB.png,,,,,,,,,,,,,,,,,,,,,,,,,,,,,,,,,,,
,,,,,,,,,,,,,,,,,5e723ffcc1c46a022a71a6dd,33,2022-02-12_18h50.53.061,lexical_decision_task_DD,2021.2.3,MacIntel,59.99160118,,,,,,,,,,,0.463,1,,,,,,,,,,,,,,m,1,0.463,,,,,,,,0.043879462,-0.366946886,0,0,0,space,0,83,83,42,1,FOLDER,C,old,m,./images/FOLDER.png,0.9205,,,,,,,,,,,,,,,,,,,,,,,,,,,,,,,,,,
,,,,,,,,,,,,,,,,,5e723ffcc1c46a022a71a6dd,33,2022-02-12_18h50.53.061,lexical_decision_task_DD,2021.2.3,MacIntel,59.99160118,,,,,,,,,,,0.6185,1,,,,,,,,,,,,,,z,1,0.6185,,,,,,,,0.043879462,-0.366946886,0,0,0,,0,84,84,161,1,BLAPS,LB,old,z,./images/BLAPSLB.png,,,,,,,,,,,,,,,,,,,,,,,,,,,,,,,,,,,
,,,,,,,,,,,,,,,,,5e723ffcc1c46a022a71a6dd,33,2022-02-12_18h50.53.061,lexical_decision_task_DD,2021.2.3,MacIntel,59.99160118,,,,,,,,,,,0.4809,1,,,,,,,,,,,,,,m,1,0.4809,,,,,,,,0.043879462,-0.366946886,0,0,0,,0,85,85,14,1,PICKLE,LB,old,m,./images/PICKLELB.png,,,,,,,,,,,,,,,,,,,,,,,,,,,,,,,,,,,
,,,,,,,,,,,,,,,,,5e723ffcc1c46a022a71a6dd,33,2022-02-12_18h50.53.061,lexical_decision_task_DD,2021.2.3,MacIntel,59.99160118,,,,,,,,,,,1.0248,1,,,,,,,,,,,,,,z,1,1.0248,,,,,,,,0.043879462,-0.366946886,0,0,0,,0,86,86,133,1,POWDY,HB,old,z,./images/POWDYHB.png,,,,,,,,,,,,,,,,,,,,,,,,,,,,,,,,,,,
,,,,,,,,,,,,,,,,,5e723ffcc1c46a022a71a6dd,33,2022-02-12_18h50.53.061,lexical_decision_task_DD,2021.2.3,MacIntel,59.99160118,,,,,,,,,,,0.6341,1,,,,,,,,,,,,,,z,1,0.6341,,,,,,,,0.043879462,-0.366946886,0,0,0,,0,87,87,108,1,GRUET,C,old,z,./images/GRUET.png,,,,,,,,,,,,,,,,,,,,,,,,,,,,,,,,,,,
,,,,,,,,,,,,,,,,,5e723ffcc1c46a022a71a6dd,33,2022-02-12_18h50.53.061,lexical_decision_task_DD,2021.2.3,MacIntel,59.99160118,,,,,,,,,,,0.5992,1,,,,,,,,,,,,,,z,1,0.5992,,,,,,,,0.043879462,-0.366946886,0,0,0,,0,88,88,120,1,RINED,C,old,z,./images/RINED.png,,,,,,,,,,,,,,,,,,,,,,,,,,,,,,,,,,,
,,,,,,,,,,,,,,,,,5e723ffcc1c46a022a71a6dd,33,2022-02-12_18h50.53.061,lexical_decision_task_DD,2021.2.3,MacIntel,59.99160118,,,,,,,,,,,0.9515,1,,,,,,,,,,,,,,z,1,0.9515,,,,,,,,0.043879462,-0.366946886,0,0,0,,0,89,89,109,1,BURGE,HB,old,z,./images/BURGEHB.png,,,,,,,,,,,,,,,,,,,,,,,,,,,,,,,,,,,
,,,,,,,,,,,,,,,,,5e723ffcc1c46a022a71a6dd,33,2022-02-12_18h50.53.061,lexical_decision_task_DD,2021.2.3,MacIntel,59.99160118,,,,,,,,,,,1.032,0,,,,,,,,,,,,,,z,0,1.032,,,,,,,,0.043879462,-0.366946886,0,0,0,,0,90,90,67,1,SAILOR,HB,old,m,./images/SAILORHB.png,,,,,,,,,,,,,,,,,,,,,,,,,,,,,,,,,,,
,,,,,,,,,,,,,,,,,5e723ffcc1c46a022a71a6dd,33,2022-02-12_18h50.53.061,lexical_decision_task_DD,2021.2.3,MacIntel,59.99160118,,,,,,,,,,,0.9851,1,,,,,,,,,,,,,,z,1,0.9851,,,,,,,,0.043879462,-0.366946886,0,0,0,,0,91,91,100,1,DRIBS,HB,old,z,./images/DRIBSHB.png,,,,,,,,,,,,,,,,,,,,,,,,,,,,,,,,,,,
,,,,,,,,,,,,,,,,,5e723ffcc1c46a022a71a6dd,33,2022-02-12_18h50.53.061,lexical_decision_task_DD,2021.2.3,MacIntel,59.99160118,,,,,,,,,,,0.4453,1,,,,,,,,,,,,,,m,1,0.4453,,,,,,,,0.043879462,-0.366946886,0,0,0,,0,92,92,66,1,SWEAT,C,old,m,./images/SWEAT.png,,,,,,,,,,,,,,,,,,,,,,,,,,,,,,,,,,,
,,,,,,,,,,,,,,,,,5e723ffcc1c46a022a71a6dd,33,2022-02-12_18h50.53.061,lexical_decision_task_DD,2021.2.3,MacIntel,59.99160118,,,,,,,,,,,0.7096,1,,,,,,,,,,,,,,z,1,0.7096,,,,,,,,0.043879462,-0.366946886,0,0,0,,0,93,93,107,1,FASKS,LB,old,z,./images/FASKSLB.png,,,,,,,,,,,,,,,,,,,,,,,,,,,,,,,,,,,
,,,,,,,,,,,,,,,,,5e723ffcc1c46a022a71a6dd,33,2022-02-12_18h50.53.061,lexical_decision_task_DD,2021.2.3,MacIntel,59.99160118,,,,,,,,,,,0.6125,1,,,,,,,,,,,,,,z,1,0.6125,,,,,,,,0.043879462,-0.366946886,0,0,0,,0,94,94,86,1,AIFED,LB,old,z,./images/AIFEDLB.png,,,,,,,,,,,,,,,,,,,,,,,,,,,,,,,,,,,
,,,,,,,,,,,,,,,,,5e723ffcc1c46a022a71a6dd,33,2022-02-12_18h50.53.061,lexical_decision_task_DD,2021.2.3,MacIntel,59.99160118,,,,,,,,,,,1.9151,0,,,,,,,,,,,,,,z,0,1.9151,,,,,,,,0.043879462,-0.366946886,0,0,0,,0,95,95,31,1,QUILL,HB,old,m,./images/QUILLHB.png,,,,,,,,,,,,,,,,,,,,,,,,,,,,,,,,,,,
,,,,,,,,,,,,,,,,,5e723ffcc1c46a022a71a6dd,33,2022-02-12_18h50.53.061,lexical_decision_task_DD,2021.2.3,MacIntel,59.99160118,,,,,,,,,,,0.5669,1,,,,,,,,,,,,,,m,1,0.5669,,,,,,,,0.043879462,-0.366946886,0,0,0,,0,96,96,41,1,STRING,LB,old,m,./images/STRINGLB.png,,,,,,,,,,,,,,,,,,,,,,,,,,,,,,,,,,,
,,,,,,,,,,,,,,,,,5e723ffcc1c46a022a71a6dd,33,2022-02-12_18h50.53.061,lexical_decision_task_DD,2021.2.3,MacIntel,59.99160118,,,,,,,,,,,0.5973,1,,,,,,,,,,,,,,z,1,0.5973,,,,,,,,0.043879462,-0.366946886,0,0,0,,0,97,97,155,1,CANGY,LB,old,z,./images/CANGYLB.png,,,,,,,,,,,,,,,,,,,,,,,,,,,,,,,,,,,
,,,,,,,,,,,,,,,,,5e723ffcc1c46a022a71a6dd,33,2022-02-12_18h50.53.061,lexical_decision_task_DD,2021.2.3,MacIntel,59.99160118,,,,,,,,,,,0.5464,1,,,,,,,,,,,,,,m,1,0.5464,,,,,,,,0.043879462,-0.366946886,0,0,0,,0,98,98,24,1,SCREW,C,old,m,./images/SCREW.png,,,,,,,,,,,,,,,,,,,,,,,,,,,,,,,,,,,
,,,,,,,,,,,,,,,,,5e723ffcc1c46a022a71a6dd,33,2022-02-12_18h50.53.061,lexical_decision_task_DD,2021.2.3,MacIntel,59.99160118,,,,,,,,,,,0.7189,1,,,,,,,,,,,,,,z,1,0.7189,,,,,,,,0.043879462,-0.366946886,0,0,0,,0,99,99,92,1,PAIMS,LB,old,z,./images/PAIMSLB.png,,,,,,,,,,,,,,,,,,,,,,,,,,,,,,,,,,,
,,,,,,,,,,,,,,,,,5e723ffcc1c46a022a71a6dd,33,2022-02-12_18h50.53.061,lexical_decision_task_DD,2021.2.3,MacIntel,59.99160118,,,,,,,,,,,0.676,1,,,,,,,,,,,,,,m,1,0.676,,,,,,,,0.043879462,-0.366946886,0,0,0,,0,100,100,1,1,PLANK,HB,old,m,./images/PLANKHB.png,,,,,,,,,,,,,,,,,,,,,,,,,,,,,,,,,,,
,,,,,,,,,,,,,,,,,5e723ffcc1c46a022a71a6dd,33,2022-02-12_18h50.53.061,lexical_decision_task_DD,2021.2.3,MacIntel,59.99160118,,,,,,,,,,,0.5438,1,,,,,,,,,,,,,,z,1,0.5438,,,,,,,,0.043879462,-0.366946886,0,0,0,,0,101,101,152,1,FRAIN,LB,old,z,./images/FRAINLB.png,,,,,,,,,,,,,,,,,,,,,,,,,,,,,,,,,,,
,,,,,,,,,,,,,,,,,5e723ffcc1c46a022a71a6dd,33,2022-02-12_18h50.53.061,lexical_decision_task_DD,2021.2.3,MacIntel,59.99160118,,,,,,,,,,,0.6311,1,,,,,,,,,,,,,,m,1,0.6311,,,,,,,,0.043879462,-0.366946886,0,0,0,,0,102,102,82,1,SUNSET,HB,old,m,./images/SUNSETHB.png,,,,,,,,,,,,,,,,,,,,,,,,,,,,,,,,,,,
,,,,,,,,,,,,,,,,,5e723ffcc1c46a022a71a6dd,33,2022-02-12_18h50.53.061,lexical_decision_task_DD,2021.2.3,MacIntel,59.99160118,,,,,,,,,,,0.6153,1,,,,,,,,,,,,,,z,1,0.6153,,,,,,,,0.043879462,-0.366946886,0,0,0,,0,103,103,143,1,MONGS,LB,old,z,./images/MONGSLB.png,,,,,,,,,,,,,,,,,,,,,,,,,,,,,,,,,,,
,,,,,,,,,,,,,,,,,5e723ffcc1c46a022a71a6dd,33,2022-02-12_18h50.53.061,lexical_decision_task_DD,2021.2.3,MacIntel,59.99160118,,,,,,,,,,,0.865,1,,,,,,,,,,,,,,z,1,0.865,,,,,,,,0.043879462,-0.366946886,0,0,0,,0,104,104,121,1,CEERS,HB,old,z,./images/CEERSHB.png,,,,,,,,,,,,,,,,,,,,,,,,,,,,,,,,,,,
,,,,,,,,,,,,,,,,,5e723ffcc1c46a022a71a6dd,33,2022-02-12_18h50.53.061,lexical_decision_task_DD,2021.2.3,MacIntel,59.99160118,,,,,,,,,,,0.8354,1,,,,,,,,,,,,,,m,1,0.8354,,,,,,,,0.043879462,-0.366946886,0,0,0,,0,105,105,72,1,NOOSE,C,old,m,./images/NOOSE.png,,,,,,,,,,,,,,,,,,,,,,,,,,,,,,,,,,,
,,,,,,,,,,,,,,,,,5e723ffcc1c46a022a71a6dd,33,2022-02-12_18h50.53.061,lexical_decision_task_DD,2021.2.3,MacIntel,59.99160118,,,,,,,,,,,0.598,1,,,,,,,,,,,,,,z,1,0.598,,,,,,,,0.043879462,-0.366946886,0,0,0,,0,106,106,134,1,TROSS,LB,old,z,./images/TROSSLB.png,,,,,,,,,,,,,,,,,,,,,,,,,,,,,,,,,,,
,,,,,,,,,,,,,,,,,5e723ffcc1c46a022a71a6dd,33,2022-02-12_18h50.53.061,lexical_decision_task_DD,2021.2.3,MacIntel,59.99160118,,,,,,,,,,,0.6499,1,,,,,,,,,,,,,,z,1,0.6499,,,,,,,,0.043879462,-0.366946886,0,0,0,,0,107,107,146,1,MOOST,LB,old,z,./images/MOOSTLB.png,,,,,,,,,,,,,,,,,,,,,,,,,,,,,,,,,,,
,,,,,,,,,,,,,,,,,5e723ffcc1c46a022a71a6dd,33,2022-02-12_18h50.53.061,lexical_decision_task_DD,2021.2.3,MacIntel,59.99160118,,,,,,,,,,,0.6003,1,,,,,,,,,,,,,,m,1,0.6003,,,,,,,,0.043879462,-0.366946886,0,0,0,,0,108,108,55,1,MUFFIN,HB,old,m,./images/MUFFINHB.png,,,,,,,,,,,,,,,,,,,,,,,,,,,,,,,,,,,
,,,,,,,,,,,,,,,,,5e723ffcc1c46a022a71a6dd,33,2022-02-12_18h50.53.061,lexical_decision_task_DD,2021.2.3,MacIntel,59.99160118,,,,,,,,,,,1.7445,1,,,,,,,,,,,,,,z,1,1.7445,,,,,,,,0.043879462,-0.366946886,0,0,0,,0,109,109,85,1,CHULK,HB,old,z,./images/CHULKHB.png,,,,,,,,,,,,,,,,,,,,,,,,,,,,,,,,,,,
,,,,,,,,,,,,,,,,,5e723ffcc1c46a022a71a6dd,33,2022-02-12_18h50.53.061,lexical_decision_task_DD,2021.2.3,MacIntel,59.99160118,,,,,,,,,,,1.0142,1,,,,,,,,,,,,,,m,1,1.0142,,,,,,,,0.043879462,-0.366946886,0,0,0,,0,110,110,10,1,BELLY,HB,old,m,./images/BELLYHB.png,,,,,,,,,,,,,,,,,,,,,,,,,,,,,,,,,,,
,,,,,,,,,,,,,,,,,5e723ffcc1c46a022a71a6dd,33,2022-02-12_18h50.53.061,lexical_decision_task_DD,2021.2.3,MacIntel,59.99160118,,,,,,,,,,,0.6831,1,,,,,,,,,,,,,,m,1,0.6831,,,,,,,,0.043879462,-0.366946886,0,0,0,,0,111,111,59,1,BURIAL,LB,old,m,./images/BURIALLB.png,,,,,,,,,,,,,,,,,,,,,,,,,,,,,,,,,,,
,,,,,,,,,,,,,,,,,5e723ffcc1c46a022a71a6dd,33,2022-02-12_18h50.53.061,lexical_decision_task_DD,2021.2.3,MacIntel,59.99160118,,,,,,,,,,,0.4754,1,,,,,,,,,,,,,,m,1,0.4754,,,,,,,,0.043879462,-0.366946886,0,0,0,,0,112,112,48,1,SPORT,C,old,m,./images/SPORT.png,,,,,,,,,,,,,,,,,,,,,,,,,,,,,,,,,,,
,,,,,,,,,,,,,,,,,5e723ffcc1c46a022a71a6dd,33,2022-02-12_18h50.53.061,lexical_decision_task_DD,2021.2.3,MacIntel,59.99160118,,,,,,,,,,,0.6416,1,,,,,,,,,,,,,,z,1,0.6416,,,,,,,,0.043879462,-0.366946886,0,0,0,,0,113,113,158,1,EGECT,LB,old,z,./images/EGECTLB.png,,,,,,,,,,,,,,,,,,,,,,,,,,,,,,,,,,,
,,,,,,,,,,,,,,,,,5e723ffcc1c46a022a71a6dd,33,2022-02-12_18h50.53.061,lexical_decision_task_DD,2021.2.3,MacIntel,59.99160118,,,,,,,,,,,0.5455,1,,,,,,,,,,,,,,m,1,0.5455,,,,,,,,0.043879462,-0.366946886,0,0,0,,0,114,114,62,1,PURSE,LB,old,m,./images/PURSELB.png,,,,,,,,,,,,,,,,,,,,,,,,,,,,,,,,,,,
,,,,,,,,,,,,,,,,,5e723ffcc1c46a022a71a6dd,33,2022-02-12_18h50.53.061,lexical_decision_task_DD,2021.2.3,MacIntel,59.99160118,,,,,,,,,,,0.6989,1,,,,,,,,,,,,,,z,1,0.6989,,,,,,,,0.043879462,-0.366946886,0,0,0,,0,115,115,136,1,WERVE,HB,old,z,./images/WERVEHB.png,,,,,,,,,,,,,,,,,,,,,,,,,,,,,,,,,,,
,,,,,,,,,,,,,,,,,5e723ffcc1c46a022a71a6dd,33,2022-02-12_18h50.53.061,lexical_decision_task_DD,2021.2.3,MacIntel,59.99160118,,,,,,,,,,,0.656,1,,,,,,,,,,,,,,z,1,0.656,,,,,,,,0.043879462,-0.366946886,0,0,0,,0,116,116,84,1,HAXES,C,old,z,./images/HAXES.png,,,,,,,,,,,,,,,,,,,,,,,,,,,,,,,,,,,
,,,,,,,,,,,,,,,,,5e723ffcc1c46a022a71a6dd,33,2022-02-12_18h50.53.061,lexical_decision_task_DD,2021.2.3,MacIntel,59.99160118,,,,,,,,,,,0.7628,1,,,,,,,,,,,,,,z,1,0.7628,,,,,,,,0.043879462,-0.366946886,0,0,0,,0,117,117,98,1,BAMPS,LB,old,z,./images/BAMPSLB.png,,,,,,,,,,,,,,,,,,,,,,,,,,,,,,,,,,,
,,,,,,,,,,,,,,,,,5e723ffcc1c46a022a71a6dd,33,2022-02-12_18h50.53.061,lexical_decision_task_DD,2021.2.3,MacIntel,59.99160118,,,,,,,,,,,1.6505,1,,,,,,,,,,,,,,z,1,1.6505,,,,,,,,0.043879462,-0.366946886,0,0,0,,0,118,118,140,1,DOVET,LB,old,z,./images/DOVETLB.png,,,,,,,,,,,,,,,,,,,,,,,,,,,,,,,,,,,
,,,,,,,,,,,,,,,,,5e723ffcc1c46a022a71a6dd,33,2022-02-12_18h50.53.061,lexical_decision_task_DD,2021.2.3,MacIntel,59.99160118,,,,,,,,,,,0.649,1,,,,,,,,,,,,,,z,1,0.649,,,,,,,,0.043879462,-0.366946886,0,0,0,,0,119,119,99,1,BACKY,C,old,z,./images/BACKY.png,,,,,,,,,,,,,,,,,,,,,,,,,,,,,,,,,,,
,,,,,,,,,,,,,,,,,5e723ffcc1c46a022a71a6dd,33,2022-02-12_18h50.53.061,lexical_decision_task_DD,2021.2.3,MacIntel,59.99160118,,,,,,,,,,,0.5477,1,,,,,,,,,,,,,,m,1,0.5477,,,,,,,,0.043879462,-0.366946886,0,0,0,,0,120,120,56,1,PACKET,LB,old,m,./images/PACKETLB.png,,,,,,,,,,,,,,,,,,,,,,,,,,,,,,,,,,,
,,,,,,,,,,,,,,,,,5e723ffcc1c46a022a71a6dd,33,2022-02-12_18h50.53.061,lexical_decision_task_DD,2021.2.3,MacIntel,59.99160118,,,,,,,,,,,1.2622,1,,,,,,,,,,,,,,z,1,1.2622,,,,,,,,0.043879462,-0.366946886,0,0,0,,0,121,121,88,1,GLUSH,HB,old,z,./images/GLUSHHB.png,,,,,,,,,,,,,,,,,,,,,,,,,,,,,,,,,,,
,,,,,,,,,,,,,,,,,5e723ffcc1c46a022a71a6dd,33,2022-02-12_18h50.53.061,lexical_decision_task_DD,2021.2.3,MacIntel,59.99160118,,,,,,,,,,,0.6979,1,,,,,,,,,,,,,,m,1,0.6979,,,,,,,,0.043879462,-0.366946886,0,0,0,,0,122,122,79,1,CRUST,HB,old,m,./images/CRUSTHB.png,,,,,,,,,,,,,,,,,,,,,,,,,,,,,,,,,,,
,,,,,,,,,,,,,,,,,5e723ffcc1c46a022a71a6dd,33,2022-02-12_18h50.53.061,lexical_decision_task_DD,2021.2.3,MacIntel,59.99160118,,,,,,,,,,,0.4725,1,,,,,,,,,,,,,,m,1,0.4725,,,,,,,,0.043879462,-0.366946886,0,0,0,,0,123,123,51,1,ONION,C,old,m,./images/ONION.png,,,,,,,,,,,,,,,,,,,,,,,,,,,,,,,,,,,
,,,,,,,,,,,,,,,,,5e723ffcc1c46a022a71a6dd,33,2022-02-12_18h50.53.061,lexical_decision_task_DD,2021.2.3,MacIntel,59.99160118,,,,,,,,,,,1.2065,1,,,,,,,,,,,,,,z,1,1.2065,,,,,,,,0.043879462,-0.366946886,0,0,0,,0,124,124,97,1,CHIDS,HB,old,z,./images/CHIDSHB.png,,,,,,,,,,,,,,,,,,,,,,,,,,,,,,,,,,,
,,,,,,,,,,,,,,,,,5e723ffcc1c46a022a71a6dd,33,2022-02-12_18h50.53.061,lexical_decision_task_DD,2021.2.3,MacIntel,59.99160118,,,,,,,,,,,0.6591,1,,,,,,,,,,,,,,z,1,0.6591,,,,,,,,0.043879462,-0.366946886,0,0,0,space,0,125,125,119,1,PAFER,LB,old,z,./images/PAFERLB.png,0.8536,,,,,,,,,,,,,,,,,,,,,,,,,,,,,,,,,,
,,,,,,,,,,,,,,,,,5e723ffcc1c46a022a71a6dd,33,2022-02-12_18h50.53.061,lexical_decision_task_DD,2021.2.3,MacIntel,59.99160118,,,,,,,,,,,0.5897,1,,,,,,,,,,,,,,z,1,0.5897,,,,,,,,0.043879462,-0.366946886,0,0,0,,0,126,126,144,1,NAIRY,C,old,z,./images/NAIRY.png,,,,,,,,,,,,,,,,,,,,,,,,,,,,,,,,,,,
,,,,,,,,,,,,,,,,,5e723ffcc1c46a022a71a6dd,33,2022-02-12_18h50.53.061,lexical_decision_task_DD,2021.2.3,MacIntel,59.99160118,,,,,,,,,,,0.6074,1,,,,,,,,,,,,,,z,1,0.6074,,,,,,,,0.043879462,-0.366946886,0,0,0,,0,127,127,101,1,GLEET,LB,old,z,./images/GLEETLB.png,,,,,,,,,,,,,,,,,,,,,,,,,,,,,,,,,,,
,,,,,,,,,,,,,,,,,5e723ffcc1c46a022a71a6dd,33,2022-02-12_18h50.53.061,lexical_decision_task_DD,2021.2.3,MacIntel,59.99160118,,,,,,,,,,,0.724,1,,,,,,,,,,,,,,z,1,0.724,,,,,,,,0.043879462,-0.366946886,0,0,0,,0,128,128,103,1,FLORT,HB,old,z,./images/FLORTHB.png,,,,,,,,,,,,,,,,,,,,,,,,,,,,,,,,,,,
,,,,,,,,,,,,,,,,,5e723ffcc1c46a022a71a6dd,33,2022-02-12_18h50.53.061,lexical_decision_task_DD,2021.2.3,MacIntel,59.99160118,,,,,,,,,,,0.7742,1,,,,,,,,,,,,,,m,1,0.7742,,,,,,,,0.043879462,-0.366946886,0,0,0,,0,129,129,19,1,DOUGH,HB,old,m,./images/DOUGHHB.png,,,,,,,,,,,,,,,,,,,,,,,,,,,,,,,,,,,
,,,,,,,,,,,,,,,,,5e723ffcc1c46a022a71a6dd,33,2022-02-12_18h50.53.061,lexical_decision_task_DD,2021.2.3,MacIntel,59.99160118,,,,,,,,,,,0.7884,1,,,,,,,,,,,,,,z,1,0.7884,,,,,,,,0.043879462,-0.366946886,0,0,0,,0,130,130,93,1,SMONE,C,old,z,./images/SMONE.png,,,,,,,,,,,,,,,,,,,,,,,,,,,,,,,,,,,
,,,,,,,,,,,,,,,,,5e723ffcc1c46a022a71a6dd,33,2022-02-12_18h50.53.061,lexical_decision_task_DD,2021.2.3,MacIntel,59.99160118,,,,,,,,,,,0.6148,1,,,,,,,,,,,,,,m,1,0.6148,,,,,,,,0.043879462,-0.366946886,0,0,0,,0,131,131,36,1,THROAT,C,old,m,./images/THROAT.png,,,,,,,,,,,,,,,,,,,,,,,,,,,,,,,,,,,
,,,,,,,,,,,,,,,,,5e723ffcc1c46a022a71a6dd,33,2022-02-12_18h50.53.061,lexical_decision_task_DD,2021.2.3,MacIntel,59.99160118,,,,,,,,,,,0.5978,1,,,,,,,,,,,,,,z,1,0.5978,,,,,,,,0.043879462,-0.366946886,0,0,0,,0,132,132,149,1,VEASE,LB,old,z,./images/VEASELB.png,,,,,,,,,,,,,,,,,,,,,,,,,,,,,,,,,,,
,,,,,,,,,,,,,,,,,5e723ffcc1c46a022a71a6dd,33,2022-02-12_18h50.53.061,lexical_decision_task_DD,2021.2.3,MacIntel,59.99160118,,,,,,,,,,,0.5793,1,,,,,,,,,,,,,,m,1,0.5793,,,,,,,,0.043879462,-0.366946886,0,0,0,,0,133,133,33,1,MAGGOT,C,old,m,./images/MAGGOT.png,,,,,,,,,,,,,,,,,,,,,,,,,,,,,,,,,,,
,,,,,,,,,,,,,,,,,5e723ffcc1c46a022a71a6dd,33,2022-02-12_18h50.53.061,lexical_decision_task_DD,2021.2.3,MacIntel,59.99160118,,,,,,,,,,,0.5283,1,,,,,,,,,,,,,,m,1,0.5283,,,,,,,,0.043879462,-0.366946886,0,0,0,,0,134,134,44,1,LIZARD,LB,old,m,./images/LIZARDLB.png,,,,,,,,,,,,,,,,,,,,,,,,,,,,,,,,,,,
,,,,,,,,,,,,,,,,,5e723ffcc1c46a022a71a6dd,33,2022-02-12_18h50.53.061,lexical_decision_task_DD,2021.2.3,MacIntel,59.99160118,,,,,,,,,,,0.4778,1,,,,,,,,,,,,,,m,1,0.4778,,,,,,,,0.043879462,-0.366946886,0,0,0,,0,135,135,71,1,PIMPLE,LB,old,m,./images/PIMPLELB.png,,,,,,,,,,,,,,,,,,,,,,,,,,,,,,,,,,,
,,,,,,,,,,,,,,,,,5e723ffcc1c46a022a71a6dd,33,2022-02-12_18h50.53.061,lexical_decision_task_DD,2021.2.3,MacIntel,59.99160118,,,,,,,,,,,0.6454,1,,,,,,,,,,,,,,z,1,0.6454,,,,,,,,0.043879462,-0.366946886,0,0,0,,0,136,136,153,1,CLUPS,C,old,z,./images/CLUPS.png,,,,,,,,,,,,,,,,,,,,,,,,,,,,,,,,,,,
,,,,,,,,,,,,,,,,,5e723ffcc1c46a022a71a6dd,33,2022-02-12_18h50.53.061,lexical_decision_task_DD,2021.2.3,MacIntel,59.99160118,,,,,,,,,,,0.7848,1,,,,,,,,,,,,,,m,1,0.7848,,,,,,,,0.043879462,-0.366946886,0,0,0,,0,137,137,20,1,CRADLE,LB,old,m,./images/CRADLELB.png,,,,,,,,,,,,,,,,,,,,,,,,,,,,,,,,,,,
,,,,,,,,,,,,,,,,,5e723ffcc1c46a022a71a6dd,33,2022-02-12_18h50.53.061,lexical_decision_task_DD,2021.2.3,MacIntel,59.99160118,,,,,,,,,,,1.2634,1,,,,,,,,,,,,,,m,1,1.2634,,,,,,,,0.043879462,-0.366946886,0,0,0,,0,138,138,4,1,MUSCLE,HB,old,m,./images/MUSCLEHB.png,,,,,,,,,,,,,,,,,,,,,,,,,,,,,,,,,,,
,,,,,,,,,,,,,,,,,5e723ffcc1c46a022a71a6dd,33,2022-02-12_18h50.53.061,lexical_decision_task_DD,2021.2.3,MacIntel,59.99160118,,,,,,,,,,,0.8139,1,,,,,,,,,,,,,,m,1,0.8139,,,,,,,,0.043879462,-0.366946886,0,0,0,,0,139,139,76,1,INFANT,HB,old,m,./images/INFANTHB.png,,,,,,,,,,,,,,,,,,,,,,,,,,,,,,,,,,,
,,,,,,,,,,,,,,,,,5e723ffcc1c46a022a71a6dd,33,2022-02-12_18h50.53.061,lexical_decision_task_DD,2021.2.3,MacIntel,59.99160118,,,,,,,,,,,0.6051,1,,,,,,,,,,,,,,z,1,0.6051,,,,,,,,0.043879462,-0.366946886,0,0,0,,0,140,140,165,1,TROWN,C,old,z,./images/TROWN.png,,,,,,,,,,,,,,,,,,,,,,,,,,,,,,,,,,,
,,,,,,,,,,,,,,,,,5e723ffcc1c46a022a71a6dd,33,2022-02-12_18h50.53.061,lexical_decision_task_DD,2021.2.3,MacIntel,59.99160118,,,,,,,,,,,0.5995,1,,,,,,,,,,,,,,m,1,0.5995,,,,,,,,0.043879462,-0.366946886,0,0,0,,0,141,141,35,1,PEACH,LB,old,m,./images/PEACHLB.png,,,,,,,,,,,,,,,,,,,,,,,,,,,,,,,,,,,
,,,,,,,,,,,,,,,,,5e723ffcc1c46a022a71a6dd,33,2022-02-12_18h50.53.061,lexical_decision_task_DD,2021.2.3,MacIntel,59.99160118,,,,,,,,,,,1.3133,1,,,,,,,,,,,,,,z,1,1.3133,,,,,,,,0.043879462,-0.366946886,0,0,0,,0,142,142,106,1,CLUMS,HB,old,z,./images/CLUMSHB.png,,,,,,,,,,,,,,,,,,,,,,,,,,,,,,,,,,,
,,,,,,,,,,,,,,,,,5e723ffcc1c46a022a71a6dd,33,2022-02-12_18h50.53.061,lexical_decision_task_DD,2021.2.3,MacIntel,59.99160118,,,,,,,,,,,0.7194,1,,,,,,,,,,,,,,m,1,0.7194,,,,,,,,0.043879462,-0.366946886,0,0,0,,0,143,143,58,1,BABOON,HB,old,m,./images/BABOONHB.png,,,,,,,,,,,,,,,,,,,,,,,,,,,,,,,,,,,
,,,,,,,,,,,,,,,,,5e723ffcc1c46a022a71a6dd,33,2022-02-12_18h50.53.061,lexical_decision_task_DD,2021.2.3,MacIntel,59.99160118,,,,,,,,,,,0.6473,1,,,,,,,,,,,,,,z,1,0.6473,,,,,,,,0.043879462,-0.366946886,0,0,0,,0,144,144,164,1,SGREW,LB,old,z,./images/SGREWLB.png,,,,,,,,,,,,,,,,,,,,,,,,,,,,,,,,,,,
,,,,,,,,,,,,,,,,,5e723ffcc1c46a022a71a6dd,33,2022-02-12_18h50.53.061,lexical_decision_task_DD,2021.2.3,MacIntel,59.99160118,,,,,,,,,,,0.5395,1,,,,,,,,,,,,,,z,1,0.5395,,,,,,,,0.043879462,-0.366946886,0,0,0,,0,145,145,96,1,KEAMS,C,old,z,./images/KEAMS.png,,,,,,,,,,,,,,,,,,,,,,,,,,,,,,,,,,,
,,,,,,,,,,,,,,,,,5e723ffcc1c46a022a71a6dd,33,2022-02-12_18h50.53.061,lexical_decision_task_DD,2021.2.3,MacIntel,59.99160118,,,,,,,,,,,0.5938,1,,,,,,,,,,,,,,z,1,0.5938,,,,,,,,0.043879462,-0.366946886,0,0,0,,0,146,146,116,1,BALGY,LB,old,z,./images/BALGYLB.png,,,,,,,,,,,,,,,,,,,,,,,,,,,,,,,,,,,
,,,,,,,,,,,,,,,,,5e723ffcc1c46a022a71a6dd,33,2022-02-12_18h50.53.061,lexical_decision_task_DD,2021.2.3,MacIntel,59.99160118,,,,,,,,,,,0.6167,1,,,,,,,,,,,,,,z,1,0.6167,,,,,,,,0.043879462,-0.366946886,0,0,0,,0,147,147,162,1,LEICH,C,old,z,./images/LEICH.png,,,,,,,,,,,,,,,,,,,,,,,,,,,,,,,,,,,
,,,,,,,,,,,,,,,,,5e723ffcc1c46a022a71a6dd,33,2022-02-12_18h50.53.061,lexical_decision_task_DD,2021.2.3,MacIntel,59.99160118,,,,,,,,,,,0.4472,1,,,,,,,,,,,,,,m,1,0.4472,,,,,,,,0.043879462,-0.366946886,0,0,0,,0,148,148,45,1,KITTEN,C,old,m,./images/KITTEN.png,,,,,,,,,,,,,,,,,,,,,,,,,,,,,,,,,,,
,,,,,,,,,,,,,,,,,5e723ffcc1c46a022a71a6dd,33,2022-02-12_18h50.53.061,lexical_decision_task_DD,2021.2.3,MacIntel,59.99160118,,,,,,,,,,,0.6955,1,,,,,,,,,,,,,,z,1,0.6955,,,,,,,,0.043879462,-0.366946886,0,0,0,,0,149,149,125,1,MOOKY,LB,old,z,./images/MOOKYLB.png,,,,,,,,,,,,,,,,,,,,,,,,,,,,,,,,,,,
,,,,,,,,,,,,,,,,,5e723ffcc1c46a022a71a6dd,33,2022-02-12_18h50.53.061,lexical_decision_task_DD,2021.2.3,MacIntel,59.99160118,,,,,,,,,,,0.4625,1,,,,,,,,,,,,,,m,1,0.4625,,,,,,,,0.043879462,-0.366946886,0,0,0,,0,150,150,74,1,CEMENT,LB,old,m,./images/CEMENTLB.png,,,,,,,,,,,,,,,,,,,,,,,,,,,,,,,,,,,
,,,,,,,,,,,,,,,,,5e723ffcc1c46a022a71a6dd,33,2022-02-12_18h50.53.061,lexical_decision_task_DD,2021.2.3,MacIntel,59.99160118,,,,,,,,,,,0.5426,1,,,,,,,,,,,,,,z,1,0.5426,,,,,,,,0.043879462,-0.366946886,0,0,0,,0,151,151,95,1,HANTY,LB,old,z,./images/HANTYLB.png,,,,,,,,,,,,,,,,,,,,,,,,,,,,,,,,,,,
,,,,,,,,,,,,,,,,,5e723ffcc1c46a022a71a6dd,33,2022-02-12_18h50.53.061,lexical_decision_task_DD,2021.2.3,MacIntel,59.99160118,,,,,,,,,,,1.0884,1,,,,,,,,,,,,,,z,1,1.0884,,,,,,,,0.043879462,-0.366946886,0,0,0,,0,152,152,163,1,GAMBA,HB,old,z,./images/GAMBAHB.png,,,,,,,,,,,,,,,,,,,,,,,,,,,,,,,,,,,
,,,,,,,,,,,,,,,,,5e723ffcc1c46a022a71a6dd,33,2022-02-12_18h50.53.061,lexical_decision_task_DD,2021.2.3,MacIntel,59.99160118,,,,,,,,,,,0.6164,1,,,,,,,,,,,,,,z,1,0.6164,,,,,,,,0.043879462,-0.366946886,0,0,0,,0,153,153,138,1,PLICE,C,old,z,./images/PLICE.png,,,,,,,,,,,,,,,,,,,,,,,,,,,,,,,,,,,
,,,,,,,,,,,,,,,,,5e723ffcc1c46a022a71a6dd,33,2022-02-12_18h50.53.061,lexical_decision_task_DD,2021.2.3,MacIntel,59.99160118,,,,,,,,,,,0.5065,1,,,,,,,,,,,,,,m,1,0.5065,,,,,,,,0.043879462,-0.366946886,0,0,0,,0,154,154,69,1,COOKER,C,old,m,./images/COOKER.png,,,,,,,,,,,,,,,,,,,,,,,,,,,,,,,,,,,
,,,,,,,,,,,,,,,,,5e723ffcc1c46a022a71a6dd,33,2022-02-12_18h50.53.061,lexical_decision_task_DD,2021.2.3,MacIntel,59.99160118,,,,,,,,,,,0.4931,1,,,,,,,,,,,,,,m,1,0.4931,,,,,,,,0.043879462,-0.366946886,0,0,0,,0,155,155,68,1,TORCH,LB,old,m,./images/TORCHLB.png,,,,,,,,,,,,,,,,,,,,,,,,,,,,,,,,,,,
,,,,,,,,,,,,,,,,,5e723ffcc1c46a022a71a6dd,33,2022-02-12_18h50.53.061,lexical_decision_task_DD,2021.2.3,MacIntel,59.99160118,,,,,,,,,,,0.8753,1,,,,,,,,,,,,,,z,1,0.8753,,,,,,,,0.043879462,-0.366946886,0,0,0,,0,156,156,145,1,LAMEL,HB,old,z,./images/LAMELHB.png,,,,,,,,,,,,,,,,,,,,,,,,,,,,,,,,,,,
,,,,,,,,,,,,,,,,,5e723ffcc1c46a022a71a6dd,33,2022-02-12_18h50.53.061,lexical_decision_task_DD,2021.2.3,MacIntel,59.99160118,,,,,,,,,,,0.5289,1,,,,,,,,,,,,,,m,1,0.5289,,,,,,,,0.043879462,-0.366946886,0,0,0,,0,157,157,50,1,MALLET,LB,old,m,./images/MALLETLB.png,,,,,,,,,,,,,,,,,,,,,,,,,,,,,,,,,,,
,,,,,,,,,,,,,,,,,5e723ffcc1c46a022a71a6dd,33,2022-02-12_18h50.53.061,lexical_decision_task_DD,2021.2.3,MacIntel,59.99160118,,,,,,,,,,,0.6949,1,,,,,,,,,,,,,,z,1,0.6949,,,,,,,,0.043879462,-0.366946886,0,0,0,,0,158,158,148,1,JOMS,HB,old,z,./images/JOMSHB.png,,,,,,,,,,,,,,,,,,,,,,,,,,,,,,,,,,,
,,,,,,,,,,,,,,,,,5e723ffcc1c46a022a71a6dd,33,2022-02-12_18h50.53.061,lexical_decision_task_DD,2021.2.3,MacIntel,59.99160118,,,,,,,,,,,0.502,1,,,,,,,,,,,,,,m,1,0.502,,,,,,,,0.043879462,-0.366946886,0,0,0,,0,159,159,32,1,BARREL,LB,old,m,./images/BARRELLB.png,,,,,,,,,,,,,,,,,,,,,,,,,,,,,,,,,,,
,,,,,,,,,,,,,,,,,5e723ffcc1c46a022a71a6dd,33,2022-02-12_18h50.53.061,lexical_decision_task_DD,2021.2.3,MacIntel,59.99160118,,,,,,,,,,,0.6278,1,,,,,,,,,,,,,,m,1,0.6278,,,,,,,,0.043879462,-0.366946886,0,0,0,,0,160,160,8,1,TULIP,LB,old,m,./images/TULIPLB.png,,,,,,,,,,,,,,,,,,,,,,,,,,,,,,,,,,,
,,,,,,,,,,,,,,,,,5e723ffcc1c46a022a71a6dd,33,2022-02-12_18h50.53.061,lexical_decision_task_DD,2021.2.3,MacIntel,59.99160118,,,,,,,,,,,0.7909,1,,,,,,,,,,,,,,m,1,0.7909,,,,,,,,0.043879462,-0.366946886,0,0,0,,0,161,161,37,1,BIRTH,HB,old,m,./images/BIRTHHB.png,,,,,,,,,,,,,,,,,,,,,,,,,,,,,,,,,,,
,,,,,,,,,,,,,,,,,5e723ffcc1c46a022a71a6dd,33,2022-02-12_18h50.53.061,lexical_decision_task_DD,2021.2.3,MacIntel,59.99160118,,,,,,,,,,,0.5933,1,,,,,,,,,,,,,,m,1,0.5933,,,,,,,,0.043879462,-0.366946886,0,0,0,,0,162,162,9,1,RHINO,C,old,m,./images/RHINO.png,,,,,,,,,,,,,,,,,,,,,,,,,,,,,,,,,,,
,,,,,,,,,,,,,,,,,5e723ffcc1c46a022a71a6dd,33,2022-02-12_18h50.53.061,lexical_decision_task_DD,2021.2.3,MacIntel,59.99160118,,,,,,,,,,,0.4774,1,,,,,,,,,,,,,,m,1,0.4774,,,,,,,,0.043879462,-0.366946886,0,0,0,,0,163,163,15,1,GREASE,C,old,m,./images/GREASE.png,,,,,,,,,,,,,,,,,,,,,,,,,,,,,,,,,,,
,,,,,,,,,,,,,,,,,5e723ffcc1c46a022a71a6dd,33,2022-02-12_18h50.53.061,lexical_decision_task_DD,2021.2.3,MacIntel,59.99160118,,,,,,,,,,,0.9864,1,,,,,,,,,,,,,,z,1,0.9864,,,,,,,,0.043879462,-0.366946886,0,0,0,,0,164,164,157,1,INLER,HB,old,z,./images/INLERHB.png,,,,,,,,,,,,,,,,,,,,,,,,,,,,,,,,,,,
,,,,,,,,,,,,,,,,,5e723ffcc1c46a022a71a6dd,33,2022-02-12_18h50.53.061,lexical_decision_task_DD,2021.2.3,MacIntel,59.99160118,,,,,,,,,,,0.6675,1,,,,,,,,,,,,,,m,1,0.6675,,,,,,,,0.043879462,-0.366946886,0,0,0,,0,165,165,40,1,SWING,HB,old,m,./images/SWINGHB.png,,,,,,,,,,,,,,,,,,,,,,,,,,,,,,,,,,,
,,,,,,,,,,,,,,,,,5e723ffcc1c46a022a71a6dd,33,2022-02-12_18h50.53.061,lexical_decision_task_DD,2021.2.3,MacIntel,59.99160118,,,,,,,,,,,1.2067,0,,,,,,,,,,,,,,m,0,1.2067,,,,,,,,0.043879462,-0.366946886,0,0,0,,0,166,166,110,1,CRUNK,LB,old,z,./images/CRUNKLB.png,,,,,,,,,,,,,,,,,,,,,,,,,,,,,,,,,,,
,,,,,,,,,,,,,,,,,5e723ffcc1c46a022a71a6dd,33,2022-02-12_18h50.53.061,lexical_decision_task_DD,2021.2.3,MacIntel,59.99160118,,,,,,,,,,,1.4122,1,,,,,,,,,,,,,,z,1,1.4122,,,,,,,,0.043879462,-0.366946886,0,0,0,,0,167,167,132,1,SCIFF,C,old,z,./images/SCIFF.png,,,,,,,,,,,,,,,,,,,,,,,,,,,,,,,,,,,
,,,,,,,,,,,,,,,,,5e723ffcc1c46a022a71a6dd,33,2022-02-12_18h50.53.061,lexical_decision_task_DD,2021.2.3,MacIntel,59.99160118,,,,,,,,,,,,,,,,,,,,,,,,,,,,,,,,,,,,,,,,,,,,,,,,How likely will it be that you will recognize the words presented very blurred on a scale of 0 (not likely) to 100 (most likely)?,,,,,-0.015064629,-0.436293674,1,0,0,jol_adv,3,4.5662,0,0,0,2,1,,,,,,,,,,,,,,,,,,,,,
,,,,,,,,,,,,,,,,,5e723ffcc1c46a022a71a6dd,33,2022-02-12_18h50.53.061,lexical_decision_task_DD,2021.2.3,MacIntel,59.99160118,,,,,,,,,,,,,,,,,,,,,,,,,,,,,,,,,,,,,,,,,,,,,,,,How likely will it be that you will recognize the words presented slighly blurred on a scale of 0 (not likely) to 100 (most likely)?,,,,,,,,,,,4,3.244,0,1,1,1,1,,,,,,,,,,,,,,,,,,,,,
,,,,,,,,,,,,,,,,,5e723ffcc1c46a022a71a6dd,33,2022-02-12_18h50.53.061,lexical_decision_task_DD,2021.2.3,MacIntel,59.99160118,,,,,,,,,,,,,,,,,,,,,,,,,,,,,,,,,,,,,,,,,,,,,,,,How likely will it be that you will recognize the words presented clearly on a scale of 0 (not likely) to 100 (most likely)?,,,,,,,,,,,6,1.9078,0,2,2,0,1,,,,,,,,,,,,,,,,,,,,,
,,0.115683187,-0.414381307,1,0,0,,,,,,1,test,"In the next phase you will be presented with the words from the the first phase. Your job is to decide whether you remember seeing the word or not. If you remember seeing the word press ""old"" or type ""m"". If you do not remember seeing the word press ""new"" or type ""z"". Please press the space bar or click on continue to begin. ",,,5e723ffcc1c46a022a71a6dd,33,2022-02-12_18h50.53.061,lexical_decision_task_DD,2021.2.3,MacIntel,59.99160118,,,,,,,,,,,,,,,,,,,,,,,,,,,,,,,,,,,,,,,,,,,,,,,,,,,,,,,,,,,,,,,,,,instr_done_button,0,0,0,0,1,,,,,,,,,,,,,,,
space,8.2202,0.067807346,-0.396035088,0,0,0,,,,,,1,test,"In the next phase you will be presented with the words from the the first phase. Your job is to decide whether you remember seeing the word or not. If you remember seeing the word press ""old"" or type ""m"". If you do not remember seeing the word press ""new"" or type ""z"". Please press the space bar or click on continue to begin. ",,,5e723ffcc1c46a022a71a6dd,33,2022-02-12_18h50.53.061,lexical_decision_task_DD,2021.2.3,MacIntel,59.99160118,,,,,,,,,,,,,,,,,,,,,,,,,,,,,,,,,,,,,,,,,,,,,,,,,,,,,,,,,,,,,,,,,,,1,0,1,0,1,,,,,,,,,,,,,,,
space,1.0432,0.067807346,-0.396035088,0,0,0,,,,,,1,test,"In the next phase you will be presented with the words from the the first phase. Your job is to decide whether you remember seeing the word or not. If you remember seeing the word press ""old"" or type ""m"". If you do not remember seeing the word press ""new"" or type ""z"". Please press the space bar or click on continue to begin. ",,,5e723ffcc1c46a022a71a6dd,33,2022-02-12_18h50.53.061,lexical_decision_task_DD,2021.2.3,MacIntel,59.99160118,,,,,,,,,,,,,,,,,,,,,,,,,,,,,,,,,,,,,,,,,,,,,,,,,,,,,,,,,,,,,,,,,,,2,0,2,0,1,,,,,,,,,,,,,,,
,,-0.072036404,-0.383126695,1,0,0,,,,,,1,test,"In the next phase you will be presented with the words from the the first phase. Your job is to decide whether you remember seeing the word or not. If you remember seeing the word press ""old"" or type ""m"". If you do not remember seeing the word press ""new"" or type ""z"". Please press the space bar or click on continue to begin. ",,,5e723ffcc1c46a022a71a6dd,33,2022-02-12_18h50.53.061,lexical_decision_task_DD,2021.2.3,MacIntel,59.99160118,,,,,,,,,,,,,,,,,,,,,,,,,,,,,,,,,,,,,,,,,,,,,,,,,,,,,,,,,,,,,,,,,,instr_done_button,3,0,3,0,1,,,,,,,,,,,,,,,
space,1.4557,0.10796658,-0.183182237,0,0,0,,,,,,1,test,"In the next phase you will be presented with the words from the the first phase. Your job is to decide whether you remember seeing the word or not. If you remember seeing the word press ""old"" or type ""m"". If you do not remember seeing the word press ""new"" or type ""z"". Please press the space bar or click on continue to begin. ",,,5e723ffcc1c46a022a71a6dd,33,2022-02-12_18h50.53.061,lexical_decision_task_DD,2021.2.3,MacIntel,59.99160118,,,,,,,,,,,,,,,,,,,,,,,,,,,,,,,,,,,,,,,,,,,,,,,,,,,,,,,,,,,,,,,,,,,4,0,4,0,1,,,,,,,,,,,,,,,
,,,,,,,,,,,,,,,,,5e723ffcc1c46a022a71a6dd,33,2022-02-12_18h50.53.061,lexical_decision_task_DD,2021.2.3,MacIntel,59.99160118,,,,,,,,,,,1.4971,1,,,,,,,,,,,,,,,,,,,,,,,,0.10796658,-0.183182237,0,0,0,,,,,,,SCREW,C,m,m,./images/SCREW.png,,,,,,,,,,,,,,,,,,,,,m,1,1.4971,,,,,,,,0,0,0,24,1
,,,,,,,,,,,,,,,,,5e723ffcc1c46a022a71a6dd,33,2022-02-12_18h50.53.061,lexical_decision_task_DD,2021.2.3,MacIntel,59.99160118,,,,,,,,,,,0.7629,1,,,,,,,,,,,,,,,,,,,,,,,,0.10796658,-0.183182237,0,0,0,,,,,,,CRATER,C,z,m,./images/CRATER.png,,,,,,,,,,,,,,,,,,,,,z,1,0.7629,,,,,,,,0,1,1,87,1
,,,,,,,,,,,,,,,,,5e723ffcc1c46a022a71a6dd,33,2022-02-12_18h50.53.061,lexical_decision_task_DD,2021.2.3,MacIntel,59.99160118,,,,,,,,,,,0.7794,1,,,,,,,,,,,,,,,,,,,,,,,,0.10796658,-0.183182237,0,0,0,,,,,,,DRUMS,HB,m,m,./images/DRUMSHB.png,,,,,,,,,,,,,,,,,,,,,m,1,0.7794,,,,,,,,0,2,2,49,1
,,,,,,,,,,,,,,,,,5e723ffcc1c46a022a71a6dd,33,2022-02-12_18h50.53.061,lexical_decision_task_DD,2021.2.3,MacIntel,59.99160118,,,,,,,,,,,0.4975,1,,,,,,,,,,,,,,,,,,,,,,,,0.10796658,-0.183182237,0,0,0,,,,,,,MUFFIN,HB,m,m,./images/MUFFINHB.png,,,,,,,,,,,,,,,,,,,,,m,1,0.4975,,,,,,,,0,3,3,55,1
,,,,,,,,,,,,,,,,,5e723ffcc1c46a022a71a6dd,33,2022-02-12_18h50.53.061,lexical_decision_task_DD,2021.2.3,MacIntel,59.99160118,,,,,,,,,,,0.5561,1,,,,,,,,,,,,,,,,,,,,,,,,0.10796658,-0.183182237,0,0,0,,,,,,,SQUARE,C,m,m,./images/SQUARE.png,,,,,,,,,,,,,,,,,,,,,m,1,0.5561,,,,,,,,0,4,4,6,1
,,,,,,,,,,,,,,,,,5e723ffcc1c46a022a71a6dd,33,2022-02-12_18h50.53.061,lexical_decision_task_DD,2021.2.3,MacIntel,59.99160118,,,,,,,,,,,0.5333,1,,,,,,,,,,,,,,,,,,,,,,,,0.10796658,-0.183182237,0,0,0,,,,,,,PEARL,HB,m,m,./images/PEARLHB.png,,,,,,,,,,,,,,,,,,,,,m,1,0.5333,,,,,,,,0,5,5,46,1
,,,,,,,,,,,,,,,,,5e723ffcc1c46a022a71a6dd,33,2022-02-12_18h50.53.061,lexical_decision_task_DD,2021.2.3,MacIntel,59.99160118,,,,,,,,,,,1.1899,1,,,,,,,,,,,,,,,,,,,,,,,,0.10796658,-0.183182237,0,0,0,,,,,,,CHERRY,C,z,m,./images/CHERRY.png,,,,,,,,,,,,,,,,,,,,,z,1,1.1899,,,,,,,,0,6,6,138,1
,,,,,,,,,,,,,,,,,5e723ffcc1c46a022a71a6dd,33,2022-02-12_18h50.53.061,lexical_decision_task_DD,2021.2.3,MacIntel,59.99160118,,,,,,,,,,,0.985,1,,,,,,,,,,,,,,,,,,,,,,,,0.10796658,-0.183182237,0,0,0,,,,,,,QUILL,HB,m,m,./images/QUILLHB.png,,,,,,,,,,,,,,,,,,,,,m,1,0.985,,,,,,,,0,7,7,31,1
,,,,,,,,,,,,,,,,,5e723ffcc1c46a022a71a6dd,33,2022-02-12_18h50.53.061,lexical_decision_task_DD,2021.2.3,MacIntel,59.99160118,,,,,,,,,,,0.5302,1,,,,,,,,,,,,,,,,,,,,,,,,0.10796658,-0.183182237,0,0,0,,,,,,,LITTER,C,m,m,./images/LITTER.png,,,,,,,,,,,,,,,,,,,,,m,1,0.5302,,,,,,,,0,8,8,78,1
,,,,,,,,,,,,,,,,,5e723ffcc1c46a022a71a6dd,33,2022-02-12_18h50.53.061,lexical_decision_task_DD,2021.2.3,MacIntel,59.99160118,,,,,,,,,,,0.8729,1,,,,,,,,,,,,,,,,,,,,,,,,0.10796658,-0.183182237,0,0,0,,,,,,,FINGER,C,m,m,./images/FINGER.png,,,,,,,,,,,,,,,,,,,,,m,1,0.8729,,,,,,,,0,9,9,3,1
,,,,,,,,,,,,,,,,,5e723ffcc1c46a022a71a6dd,33,2022-02-12_18h50.53.061,lexical_decision_task_DD,2021.2.3,MacIntel,59.99160118,,,,,,,,,,,0.5194,1,,,,,,,,,,,,,,,,,,,,,,,,0.10796658,-0.183182237,0,0,0,,,,,,,RHINO,C,m,m,./images/RHINO.png,,,,,,,,,,,,,,,,,,,,,m,1,0.5194,,,,,,,,0,10,10,9,1
,,,,,,,,,,,,,,,,,5e723ffcc1c46a022a71a6dd,33,2022-02-12_18h50.53.061,lexical_decision_task_DD,2021.2.3,MacIntel,59.99160118,,,,,,,,,,,0.5193,1,,,,,,,,,,,,,,,,,,,,,,,,0.10796658,-0.183182237,0,0,0,,,,,,,SWEAT,C,m,m,./images/SWEAT.png,,,,,,,,,,,,,,,,,,,,,m,1,0.5193,,,,,,,,0,11,11,66,1
,,,,,,,,,,,,,,,,,5e723ffcc1c46a022a71a6dd,33,2022-02-12_18h50.53.061,lexical_decision_task_DD,2021.2.3,MacIntel,59.99160118,,,,,,,,,,,0.6723,1,,,,,,,,,,,,,,,,,,,,,,,,0.10796658,-0.183182237,0,0,0,,,,,,,PICKLE,LB,m,m,./images/PICKLELB.png,,,,,,,,,,,,,,,,,,,,,m,1,0.6723,,,,,,,,0,12,12,14,1
,,,,,,,,,,,,,,,,,5e723ffcc1c46a022a71a6dd,33,2022-02-12_18h50.53.061,lexical_decision_task_DD,2021.2.3,MacIntel,59.99160118,,,,,,,,,,,0.9023,1,,,,,,,,,,,,,,,,,,,,,,,,0.10796658,-0.183182237,0,0,0,,,,,,,SAUNA,C,z,m,./images/SAUNA.png,,,,,,,,,,,,,,,,,,,,,z,1,0.9023,,,,,,,,0,13,13,117,1
,,,,,,,,,,,,,,,,,5e723ffcc1c46a022a71a6dd,33,2022-02-12_18h50.53.061,lexical_decision_task_DD,2021.2.3,MacIntel,59.99160118,,,,,,,,,,,0.7142,0,,,,,,,,,,,,,,,,,,,,,,,,0.10796658,-0.183182237,0,0,0,,,,,,,KIDNEY,C,m,m,./images/KIDNEY.png,,,,,,,,,,,,,,,,,,,,,z,0,0.7142,,,,,,,,0,14,14,21,1
,,,,,,,,,,,,,,,,,5e723ffcc1c46a022a71a6dd,33,2022-02-12_18h50.53.061,lexical_decision_task_DD,2021.2.3,MacIntel,59.99160118,,,,,,,,,,,0.601,1,,,,,,,,,,,,,,,,,,,,,,,,0.10796658,-0.183182237,0,0,0,,,,,,,FOLDER,C,m,m,./images/FOLDER.png,,,,,,,,,,,,,,,,,,,,,m,1,0.601,,,,,,,,0,15,15,42,1
,,,,,,,,,,,,,,,,,5e723ffcc1c46a022a71a6dd,33,2022-02-12_18h50.53.061,lexical_decision_task_DD,2021.2.3,MacIntel,59.99160118,,,,,,,,,,,0.8552,0,,,,,,,,,,,,,,,,,,,,,,,,0.10796658,-0.183182237,0,0,0,,,,,,,JAGUAR,C,m,m,./images/JAGUAR.png,,,,,,,,,,,,,,,,,,,,,z,0,0.8552,,,,,,,,0,16,16,18,1
,,,,,,,,,,,,,,,,,5e723ffcc1c46a022a71a6dd,33,2022-02-12_18h50.53.061,lexical_decision_task_DD,2021.2.3,MacIntel,59.99160118,,,,,,,,,,,0.6361,1,,,,,,,,,,,,,,,,,,,,,,,,0.10796658,-0.183182237,0,0,0,,,,,,,BABOON,HB,m,m,./images/BABOONHB.png,,,,,,,,,,,,,,,,,,,,,m,1,0.6361,,,,,,,,0,17,17,58,1
,,,,,,,,,,,,,,,,,5e723ffcc1c46a022a71a6dd,33,2022-02-12_18h50.53.061,lexical_decision_task_DD,2021.2.3,MacIntel,59.99160118,,,,,,,,,,,0.5664,1,,,,,,,,,,,,,,,,,,,,,,,,0.10796658,-0.183182237,0,0,0,,,,,,,CANDLE,HB,m,m,./images/CANDLEHB.png,,,,,,,,,,,,,,,,,,,,,m,1,0.5664,,,,,,,,0,18,18,61,1
,,,,,,,,,,,,,,,,,5e723ffcc1c46a022a71a6dd,33,2022-02-12_18h50.53.061,lexical_decision_task_DD,2021.2.3,MacIntel,59.99160118,,,,,,,,,,,0.6379,1,,,,,,,,,,,,,,,,,,,,,,,,0.10796658,-0.183182237,0,0,0,,,,,,,BONNET,LB,m,m,./images/BONNETLB.png,,,,,,,,,,,,,,,,,,,,,m,1,0.6379,,,,,,,,0,19,19,11,1
,,,,,,,,,,,,,,,,,5e723ffcc1c46a022a71a6dd,33,2022-02-12_18h50.53.061,lexical_decision_task_DD,2021.2.3,MacIntel,59.99160118,,,,,,,,,,,0.5853,1,,,,,,,,,,,,,,,,,,,,,,,,0.10796658,-0.183182237,0,0,0,,,,,,,LIZARD,LB,m,m,./images/LIZARDLB.png,,,,,,,,,,,,,,,,,,,,,m,1,0.5853,,,,,,,,0,20,20,44,1
,,,,,,,,,,,,,,,,,5e723ffcc1c46a022a71a6dd,33,2022-02-12_18h50.53.061,lexical_decision_task_DD,2021.2.3,MacIntel,59.99160118,,,,,,,,,,,0.9395,1,,,,,,,,,,,,,,,,,,,,,,,,0.10796658,-0.183182237,0,0,0,,,,,,,DRILL,C,z,m,./images/DRILL.png,,,,,,,,,,,,,,,,,,,,,z,1,0.9395,,,,,,,,0,21,21,165,1
,,,,,,,,,,,,,,,,,5e723ffcc1c46a022a71a6dd,33,2022-02-12_18h50.53.061,lexical_decision_task_DD,2021.2.3,MacIntel,59.99160118,,,,,,,,,,,0.7633,1,,,,,,,,,,,,,,,,,,,,,,,,0.10796658,-0.183182237,0,0,0,,,,,,,DESERT,HB,z,m,./images/DESERTHB.png,,,,,,,,,,,,,,,,,,,,,z,1,0.7633,,,,,,,,0,22,22,136,1
,,,,,,,,,,,,,,,,,5e723ffcc1c46a022a71a6dd,33,2022-02-12_18h50.53.061,lexical_decision_task_DD,2021.2.3,MacIntel,59.99160118,,,,,,,,,,,0.753,1,,,,,,,,,,,,,,,,,,,,,,,,0.10796658,-0.183182237,0,0,0,,,,,,,BLOKE,C,z,m,./images/BLOKE.png,,,,,,,,,,,,,,,,,,,,,z,1,0.753,,,,,,,,0,23,23,96,1
,,,,,,,,,,,,,,,,,5e723ffcc1c46a022a71a6dd,33,2022-02-12_18h50.53.061,lexical_decision_task_DD,2021.2.3,MacIntel,59.99160118,,,,,,,,,,,0.6274,1,,,,,,,,,,,,,,,,,,,,,,,,0.10796658,-0.183182237,0,0,0,,,,,,,TULIP,LB,m,m,./images/TULIPLB.png,,,,,,,,,,,,,,,,,,,,,m,1,0.6274,,,,,,,,0,24,24,8,1
,,,,,,,,,,,,,,,,,5e723ffcc1c46a022a71a6dd,33,2022-02-12_18h50.53.061,lexical_decision_task_DD,2021.2.3,MacIntel,59.99160118,,,,,,,,,,,0.916,0,,,,,,,,,,,,,,,,,,,,,,,,0.10796658,-0.183182237,0,0,0,,,,,,,THROAT,C,m,m,./images/THROAT.png,,,,,,,,,,,,,,,,,,,,,z,0,0.916,,,,,,,,0,25,25,36,1
,,,,,,,,,,,,,,,,,5e723ffcc1c46a022a71a6dd,33,2022-02-12_18h50.53.061,lexical_decision_task_DD,2021.2.3,MacIntel,59.99160118,,,,,,,,,,,0.5962,1,,,,,,,,,,,,,,,,,,,,,,,,0.10796658,-0.183182237,0,0,0,,,,,,,COOKER,C,m,m,./images/COOKER.png,,,,,,,,,,,,,,,,,,,,,m,1,0.5962,,,,,,,,0,26,26,69,1
,,,,,,,,,,,,,,,,,5e723ffcc1c46a022a71a6dd,33,2022-02-12_18h50.53.061,lexical_decision_task_DD,2021.2.3,MacIntel,59.99160118,,,,,,,,,,,0.6806,1,,,,,,,,,,,,,,,,,,,,,,,,0.10796658,-0.183182237,0,0,0,,,,,,,PACKET,LB,m,m,./images/PACKETLB.png,,,,,,,,,,,,,,,,,,,,,m,1,0.6806,,,,,,,,0,27,27,56,1
,,,,,,,,,,,,,,,,,5e723ffcc1c46a022a71a6dd,33,2022-02-12_18h50.53.061,lexical_decision_task_DD,2021.2.3,MacIntel,59.99160118,,,,,,,,,,,0.7116,1,,,,,,,,,,,,,,,,,,,,,,,,0.10796658,-0.183182237,0,0,0,,,,,,,ARROW,C,z,m,./images/ARROW.png,,,,,,,,,,,,,,,,,,,,,z,1,0.7116,,,,,,,,0,28,28,153,1
,,,,,,,,,,,,,,,,,5e723ffcc1c46a022a71a6dd,33,2022-02-12_18h50.53.061,lexical_decision_task_DD,2021.2.3,MacIntel,59.99160118,,,,,,,,,,,0.9304,0,,,,,,,,,,,,,,,,,,,,,,,,0.10796658,-0.183182237,0,0,0,,,,,,,ATTIC,C,m,m,./images/ATTIC.png,,,,,,,,,,,,,,,,,,,,,z,0,0.9304,,,,,,,,0,29,29,27,1
,,,,,,,,,,,,,,,,,5e723ffcc1c46a022a71a6dd,33,2022-02-12_18h50.53.061,lexical_decision_task_DD,2021.2.3,MacIntel,59.99160118,,,,,,,,,,,0.8354,1,,,,,,,,,,,,,,,,,,,,,,,,0.10796658,-0.183182237,0,0,0,,,,,,,BUBBLE,LB,z,m,./images/BUBBLELB.png,,,,,,,,,,,,,,,,,,,,,z,1,0.8354,,,,,,,,0,30,30,155,1
,,,,,,,,,,,,,,,,,5e723ffcc1c46a022a71a6dd,33,2022-02-12_18h50.53.061,lexical_decision_task_DD,2021.2.3,MacIntel,59.99160118,,,,,,,,,,,0.6828,1,,,,,,,,,,,,,,,,,,,,,,,,0.10796658,-0.183182237,0,0,0,,,,,,,CANOE,HB,z,m,./images/CANOEHB.png,,,,,,,,,,,,,,,,,,,,,z,1,0.6828,,,,,,,,0,31,31,142,1
,,,,,,,,,,,,,,,,,5e723ffcc1c46a022a71a6dd,33,2022-02-12_18h50.53.061,lexical_decision_task_DD,2021.2.3,MacIntel,59.99160118,,,,,,,,,,,0.5137,1,,,,,,,,,,,,,,,,,,,,,,,,0.10796658,-0.183182237,0,0,0,,,,,,,ONION,C,m,m,./images/ONION.png,,,,,,,,,,,,,,,,,,,,,m,1,0.5137,,,,,,,,0,32,32,51,1
,,,,,,,,,,,,,,,,,5e723ffcc1c46a022a71a6dd,33,2022-02-12_18h50.53.061,lexical_decision_task_DD,2021.2.3,MacIntel,59.99160118,,,,,,,,,,,0.7131,1,,,,,,,,,,,,,,,,,,,,,,,,0.10796658,-0.183182237,0,0,0,,,,,,,GRANNY,LB,z,m,./images/GRANNYLB.png,,,,,,,,,,,,,,,,,,,,,z,1,0.7131,,,,,,,,0,33,33,104,1
,,,,,,,,,,,,,,,,,5e723ffcc1c46a022a71a6dd,33,2022-02-12_18h50.53.061,lexical_decision_task_DD,2021.2.3,MacIntel,59.99160118,,,,,,,,,,,1.4601,0,,,,,,,,,,,,,,,,,,,,,,,,0.10796658,-0.183182237,0,0,0,,,,,,,MEDAL,LB,z,m,./images/MEDALLB.png,,,,,,,,,,,,,,,,,,,,,m,0,1.4601,,,,,,,,0,34,34,95,1
,,,,,,,,,,,,,,,,,5e723ffcc1c46a022a71a6dd,33,2022-02-12_18h50.53.061,lexical_decision_task_DD,2021.2.3,MacIntel,59.99160118,,,,,,,,,,,0.6478,1,,,,,,,,,,,,,,,,,,,,,,,,0.10796658,-0.183182237,0,0,0,,,,,,,CLOTH,LB,z,m,./images/CLOTHLB.png,,,,,,,,,,,,,,,,,,,,,z,1,0.6478,,,,,,,,0,35,35,107,1
,,,,,,,,,,,,,,,,,5e723ffcc1c46a022a71a6dd,33,2022-02-12_18h50.53.061,lexical_decision_task_DD,2021.2.3,MacIntel,59.99160118,,,,,,,,,,,0.9689,0,,,,,,,,,,,,,,,,,,,,,,,,0.10796658,-0.183182237,0,0,0,,,,,,,WHEEL,LB,z,m,./images/WHEELLB.png,,,,,,,,,,,,,,,,,,,,,m,0,0.9689,,,,,,,,0,36,36,161,1
,,,,,,,,,,,,,,,,,5e723ffcc1c46a022a71a6dd,33,2022-02-12_18h50.53.061,lexical_decision_task_DD,2021.2.3,MacIntel,59.99160118,,,,,,,,,,,0.6512,1,,,,,,,,,,,,,,,,,,,,,,,,0.10796658,-0.183182237,0,0,0,,,,,,,GRAIN,C,m,m,./images/GRAIN.png,,,,,,,,,,,,,,,,,,,,,m,1,0.6512,,,,,,,,0,37,37,75,1
,,,,,,,,,,,,,,,,,5e723ffcc1c46a022a71a6dd,33,2022-02-12_18h50.53.061,lexical_decision_task_DD,2021.2.3,MacIntel,59.99160118,,,,,,,,,,,0.6974,0,,,,,,,,,,,,,,,,,,,,,,,,0.10796658,-0.183182237,0,0,0,,,,,,,STAIN,C,z,m,./images/STAIN.png,,,,,,,,,,,,,,,,,,,,,m,0,0.6974,,,,,,,,0,38,38,90,1
,,,,,,,,,,,,,,,,,5e723ffcc1c46a022a71a6dd,33,2022-02-12_18h50.53.061,lexical_decision_task_DD,2021.2.3,MacIntel,59.99160118,,,,,,,,,,,0.6728,1,,,,,,,,,,,,,,,,,,,,,,,,0.10796658,-0.183182237,0,0,0,,,,,,,ENGINE,LB,z,m,./images/ENGINELB.png,,,,,,,,,,,,,,,,,,,,,z,1,0.6728,,,,,,,,0,39,39,122,1
,,,,,,,,,,,,,,,,,5e723ffcc1c46a022a71a6dd,33,2022-02-12_18h50.53.061,lexical_decision_task_DD,2021.2.3,MacIntel,59.99160118,,,,,,,,,,,0.7822,0,,,,,,,,,,,,,,,,,,,,,,,,0.10796658,-0.183182237,0,0,0,,,,,,,POKER,HB,z,m,./images/POKERHB.png,,,,,,,,,,,,,,,,,,,,,m,0,0.7822,,,,,,,,0,40,40,151,1
,,,,,,,,,,,,,,,,,5e723ffcc1c46a022a71a6dd,33,2022-02-12_18h50.53.061,lexical_decision_task_DD,2021.2.3,MacIntel,59.99160118,,,,,,,,,,,0.9976,1,,,,,,,,,,,,,,,,,,,,,,,,0.10796658,-0.183182237,0,0,0,space,,,,,,STORM,C,m,m,./images/STORM.png,1.0168,,,,,,,,,,,,,,,,,,,,m,1,0.9976,,,,,,,,0,41,41,30,1
,,,,,,,,,,,,,,,,,5e723ffcc1c46a022a71a6dd,33,2022-02-12_18h50.53.061,lexical_decision_task_DD,2021.2.3,MacIntel,59.99160118,,,,,,,,,,,0.6092,1,,,,,,,,,,,,,,,,,,,,,,,,0.10796658,-0.183182237,0,0,0,,,,,,,CARPET,LB,m,m,./images/CARPETLB.png,,,,,,,,,,,,,,,,,,,,,m,1,0.6092,,,,,,,,0,42,42,53,1
,,,,,,,,,,,,,,,,,5e723ffcc1c46a022a71a6dd,33,2022-02-12_18h50.53.061,lexical_decision_task_DD,2021.2.3,MacIntel,59.99160118,,,,,,,,,,,0.6995,0,,,,,,,,,,,,,,,,,,,,,,,,0.10796658,-0.183182237,0,0,0,,,,,,,WALNUT,C,z,m,./images/WALNUT.png,,,,,,,,,,,,,,,,,,,,,m,0,0.6995,,,,,,,,0,43,43,84,1
,,,,,,,,,,,,,,,,,5e723ffcc1c46a022a71a6dd,33,2022-02-12_18h50.53.061,lexical_decision_task_DD,2021.2.3,MacIntel,59.99160118,,,,,,,,,,,0.7145,1,,,,,,,,,,,,,,,,,,,,,,,,0.10796658,-0.183182237,0,0,0,,,,,,,SNACK,HB,m,m,./images/SNACKHB.png,,,,,,,,,,,,,,,,,,,,,m,1,0.7145,,,,,,,,0,44,44,73,1
,,,,,,,,,,,,,,,,,5e723ffcc1c46a022a71a6dd,33,2022-02-12_18h50.53.061,lexical_decision_task_DD,2021.2.3,MacIntel,59.99160118,,,,,,,,,,,0.9804,1,,,,,,,,,,,,,,,,,,,,,,,,0.10796658,-0.183182237,0,0,0,,,,,,,SLOPE,C,z,m,./images/SLOPE.png,,,,,,,,,,,,,,,,,,,,,z,1,0.9804,,,,,,,,0,45,45,114,1
,,,,,,,,,,,,,,,,,5e723ffcc1c46a022a71a6dd,33,2022-02-12_18h50.53.061,lexical_decision_task_DD,2021.2.3,MacIntel,59.99160118,,,,,,,,,,,0.6617,1,,,,,,,,,,,,,,,,,,,,,,,,0.10796658,-0.183182237,0,0,0,,,,,,,TOMATO,C,m,m,./images/TOMATO.png,,,,,,,,,,,,,,,,,,,,,m,1,0.6617,,,,,,,,0,46,46,0,1
,,,,,,,,,,,,,,,,,5e723ffcc1c46a022a71a6dd,33,2022-02-12_18h50.53.061,lexical_decision_task_DD,2021.2.3,MacIntel,59.99160118,,,,,,,,,,,1.1811,0,,,,,,,,,,,,,,,,,,,,,,,,0.10796658,-0.183182237,0,0,0,,,,,,,BROOM,C,z,m,./images/BROOM.png,,,,,,,,,,,,,,,,,,,,,m,0,1.1811,,,,,,,,0,47,47,162,1
,,,,,,,,,,,,,,,,,5e723ffcc1c46a022a71a6dd,33,2022-02-12_18h50.53.061,lexical_decision_task_DD,2021.2.3,MacIntel,59.99160118,,,,,,,,,,,0.8092,0,,,,,,,,,,,,,,,,,,,,,,,,0.10796658,-0.183182237,0,0,0,,,,,,,COLLAR,C,z,m,./images/COLLAR.png,,,,,,,,,,,,,,,,,,,,,m,0,0.8092,,,,,,,,0,48,48,99,1
,,,,,,,,,,,,,,,,,5e723ffcc1c46a022a71a6dd,33,2022-02-12_18h50.53.061,lexical_decision_task_DD,2021.2.3,MacIntel,59.99160118,,,,,,,,,,,0.5164,0,,,,,,,,,,,,,,,,,,,,,,,,0.10796658,-0.183182237,0,0,0,,,,,,,TOWEL,HB,z,m,./images/TOWELHB.png,,,,,,,,,,,,,,,,,,,,,m,0,0.5164,,,,,,,,0,49,49,85,1
,,,,,,,,,,,,,,,,,5e723ffcc1c46a022a71a6dd,33,2022-02-12_18h50.53.061,lexical_decision_task_DD,2021.2.3,MacIntel,59.99160118,,,,,,,,,,,0.855,1,,,,,,,,,,,,,,,,,,,,,,,,0.10796658,-0.183182237,0,0,0,,,,,,,CASINO,HB,z,m,./images/CASINOHB.png,,,,,,,,,,,,,,,,,,,,,z,1,0.855,,,,,,,,0,50,50,112,1
,,,,,,,,,,,,,,,,,5e723ffcc1c46a022a71a6dd,33,2022-02-12_18h50.53.061,lexical_decision_task_DD,2021.2.3,MacIntel,59.99160118,,,,,,,,,,,0.7975,1,,,,,,,,,,,,,,,,,,,,,,,,0.10796658,-0.183182237,0,0,0,,,,,,,BOXER,HB,z,m,./images/BOXERHB.png,,,,,,,,,,,,,,,,,,,,,z,1,0.7975,,,,,,,,0,51,51,88,1
,,,,,,,,,,,,,,,,,5e723ffcc1c46a022a71a6dd,33,2022-02-12_18h50.53.061,lexical_decision_task_DD,2021.2.3,MacIntel,59.99160118,,,,,,,,,,,0.539,1,,,,,,,,,,,,,,,,,,,,,,,,0.10796658,-0.183182237,0,0,0,,,,,,,SWING,HB,m,m,./images/SWINGHB.png,,,,,,,,,,,,,,,,,,,,,m,1,0.539,,,,,,,,0,52,52,40,1
,,,,,,,,,,,,,,,,,5e723ffcc1c46a022a71a6dd,33,2022-02-12_18h50.53.061,lexical_decision_task_DD,2021.2.3,MacIntel,59.99160118,,,,,,,,,,,0.5939,0,,,,,,,,,,,,,,,,,,,,,,,,0.10796658,-0.183182237,0,0,0,,,,,,,STEAK,HB,z,m,./images/STEAKHB.png,,,,,,,,,,,,,,,,,,,,,m,0,0.5939,,,,,,,,0,53,53,115,1
,,,,,,,,,,,,,,,,,5e723ffcc1c46a022a71a6dd,33,2022-02-12_18h50.53.061,lexical_decision_task_DD,2021.2.3,MacIntel,59.99160118,,,,,,,,,,,0.6617,0,,,,,,,,,,,,,,,,,,,,,,,,0.10796658,-0.183182237,0,0,0,,,,,,,BANANA,HB,z,m,./images/BANANAHB.png,,,,,,,,,,,,,,,,,,,,,m,0,0.6617,,,,,,,,0,54,54,154,1
,,,,,,,,,,,,,,,,,5e723ffcc1c46a022a71a6dd,33,2022-02-12_18h50.53.061,lexical_decision_task_DD,2021.2.3,MacIntel,59.99160118,,,,,,,,,,,0.6155,0,,,,,,,,,,,,,,,,,,,,,,,,0.10796658,-0.183182237,0,0,0,,,,,,,BAMBOO,LB,z,m,./images/BAMBOOLB.png,,,,,,,,,,,,,,,,,,,,,m,0,0.6155,,,,,,,,0,55,55,89,1
,,,,,,,,,,,,,,,,,5e723ffcc1c46a022a71a6dd,33,2022-02-12_18h50.53.061,lexical_decision_task_DD,2021.2.3,MacIntel,59.99160118,,,,,,,,,,,0.6464,1,,,,,,,,,,,,,,,,,,,,,,,,0.10796658,-0.183182237,0,0,0,,,,,,,SHELF,C,m,m,./images/SHELF.png,,,,,,,,,,,,,,,,,,,,,m,1,0.6464,,,,,,,,0,56,56,39,1
,,,,,,,,,,,,,,,,,5e723ffcc1c46a022a71a6dd,33,2022-02-12_18h50.53.061,lexical_decision_task_DD,2021.2.3,MacIntel,59.99160118,,,,,,,,,,,0.6629,1,,,,,,,,,,,,,,,,,,,,,,,,0.10796658,-0.183182237,0,0,0,,,,,,,FALCON,HB,m,m,./images/FALCONHB.png,,,,,,,,,,,,,,,,,,,,,m,1,0.6629,,,,,,,,0,57,57,28,1
,,,,,,,,,,,,,,,,,5e723ffcc1c46a022a71a6dd,33,2022-02-12_18h50.53.061,lexical_decision_task_DD,2021.2.3,MacIntel,59.99160118,,,,,,,,,,,0.7351,1,,,,,,,,,,,,,,,,,,,,,,,,0.10796658,-0.183182237,0,0,0,,,,,,,SPINE,LB,z,m,./images/SPINELB.png,,,,,,,,,,,,,,,,,,,,,z,1,0.7351,,,,,,,,0,58,58,149,1
,,,,,,,,,,,,,,,,,5e723ffcc1c46a022a71a6dd,33,2022-02-12_18h50.53.061,lexical_decision_task_DD,2021.2.3,MacIntel,59.99160118,,,,,,,,,,,0.6587,1,,,,,,,,,,,,,,,,,,,,,,,,0.10796658,-0.183182237,0,0,0,,,,,,,BISHOP,HB,z,m,./images/BISHOPHB.png,,,,,,,,,,,,,,,,,,,,,z,1,0.6587,,,,,,,,0,59,59,133,1
,,,,,,,,,,,,,,,,,5e723ffcc1c46a022a71a6dd,33,2022-02-12_18h50.53.061,lexical_decision_task_DD,2021.2.3,MacIntel,59.99160118,,,,,,,,,,,0.63,1,,,,,,,,,,,,,,,,,,,,,,,,0.10796658,-0.183182237,0,0,0,,,,,,,KITTEN,C,m,m,./images/KITTEN.png,,,,,,,,,,,,,,,,,,,,,m,1,0.63,,,,,,,,0,60,60,45,1
,,,,,,,,,,,,,,,,,5e723ffcc1c46a022a71a6dd,33,2022-02-12_18h50.53.061,lexical_decision_task_DD,2021.2.3,MacIntel,59.99160118,,,,,,,,,,,1.28,0,,,,,,,,,,,,,,,,,,,,,,,,0.10796658,-0.183182237,0,0,0,,,,,,,FENCE,LB,z,m,./images/FENCELB.png,,,,,,,,,,,,,,,,,,,,,m,0,1.28,,,,,,,,0,61,61,98,1
,,,,,,,,,,,,,,,,,5e723ffcc1c46a022a71a6dd,33,2022-02-12_18h50.53.061,lexical_decision_task_DD,2021.2.3,MacIntel,59.99160118,,,,,,,,,,,0.567,1,,,,,,,,,,,,,,,,,,,,,,,,0.10796658,-0.183182237,0,0,0,,,,,,,NOOSE,C,m,m,./images/NOOSE.png,,,,,,,,,,,,,,,,,,,,,m,1,0.567,,,,,,,,0,62,62,72,1
,,,,,,,,,,,,,,,,,5e723ffcc1c46a022a71a6dd,33,2022-02-12_18h50.53.061,lexical_decision_task_DD,2021.2.3,MacIntel,59.99160118,,,,,,,,,,,0.6131,1,,,,,,,,,,,,,,,,,,,,,,,,0.10796658,-0.183182237,0,0,0,,,,,,,JUNGLE,LB,m,m,./images/JUNGLELB.png,,,,,,,,,,,,,,,,,,,,,m,1,0.6131,,,,,,,,0,63,63,83,1
,,,,,,,,,,,,,,,,,5e723ffcc1c46a022a71a6dd,33,2022-02-12_18h50.53.061,lexical_decision_task_DD,2021.2.3,MacIntel,59.99160118,,,,,,,,,,,0.8397,1,,,,,,,,,,,,,,,,,,,,,,,,0.10796658,-0.183182237,0,0,0,,,,,,,FERRY,C,z,m,./images/FERRY.png,,,,,,,,,,,,,,,,,,,,,z,1,0.8397,,,,,,,,0,64,64,141,1
,,,,,,,,,,,,,,,,,5e723ffcc1c46a022a71a6dd,33,2022-02-12_18h50.53.061,lexical_decision_task_DD,2021.2.3,MacIntel,59.99160118,,,,,,,,,,,0.8512,1,,,,,,,,,,,,,,,,,,,,,,,,0.10796658,-0.183182237,0,0,0,,,,,,,MELON,HB,m,m,./images/MELONHB.png,,,,,,,,,,,,,,,,,,,,,m,1,0.8512,,,,,,,,0,65,65,22,1
,,,,,,,,,,,,,,,,,5e723ffcc1c46a022a71a6dd,33,2022-02-12_18h50.53.061,lexical_decision_task_DD,2021.2.3,MacIntel,59.99160118,,,,,,,,,,,0.615,1,,,,,,,,,,,,,,,,,,,,,,,,0.10796658,-0.183182237,0,0,0,,,,,,,JELLY,HB,m,m,./images/JELLYHB.png,,,,,,,,,,,,,,,,,,,,,m,1,0.615,,,,,,,,0,66,66,64,1
,,,,,,,,,,,,,,,,,5e723ffcc1c46a022a71a6dd,33,2022-02-12_18h50.53.061,lexical_decision_task_DD,2021.2.3,MacIntel,59.99160118,,,,,,,,,,,0.6001,1,,,,,,,,,,,,,,,,,,,,,,,,0.10796658,-0.183182237,0,0,0,,,,,,,MUSCLE,HB,m,m,./images/MUSCLEHB.png,,,,,,,,,,,,,,,,,,,,,m,1,0.6001,,,,,,,,0,67,67,4,1
,,,,,,,,,,,,,,,,,5e723ffcc1c46a022a71a6dd,33,2022-02-12_18h50.53.061,lexical_decision_task_DD,2021.2.3,MacIntel,59.99160118,,,,,,,,,,,0.4975,1,,,,,,,,,,,,,,,,,,,,,,,,0.10796658,-0.183182237,0,0,0,,,,,,,URINE,HB,m,m,./images/URINEHB.png,,,,,,,,,,,,,,,,,,,,,m,1,0.4975,,,,,,,,0,68,68,70,1
,,,,,,,,,,,,,,,,,5e723ffcc1c46a022a71a6dd,33,2022-02-12_18h50.53.061,lexical_decision_task_DD,2021.2.3,MacIntel,59.99160118,,,,,,,,,,,0.613,0,,,,,,,,,,,,,,,,,,,,,,,,0.10796658,-0.183182237,0,0,0,,,,,,,SAUCE,C,z,m,./images/SAUCE.png,,,,,,,,,,,,,,,,,,,,,m,0,0.613,,,,,,,,0,69,69,135,1
,,,,,,,,,,,,,,,,,5e723ffcc1c46a022a71a6dd,33,2022-02-12_18h50.53.061,lexical_decision_task_DD,2021.2.3,MacIntel,59.99160118,,,,,,,,,,,0.5496,1,,,,,,,,,,,,,,,,,,,,,,,,0.10796658,-0.183182237,0,0,0,,,,,,,PIMPLE,LB,m,m,./images/PIMPLELB.png,,,,,,,,,,,,,,,,,,,,,m,1,0.5496,,,,,,,,0,70,70,71,1
,,,,,,,,,,,,,,,,,5e723ffcc1c46a022a71a6dd,33,2022-02-12_18h50.53.061,lexical_decision_task_DD,2021.2.3,MacIntel,59.99160118,,,,,,,,,,,0.502,1,,,,,,,,,,,,,,,,,,,,,,,,0.10796658,-0.183182237,0,0,0,,,,,,,STRING,LB,m,m,./images/STRINGLB.png,,,,,,,,,,,,,,,,,,,,,m,1,0.502,,,,,,,,0,71,71,41,1
,,,,,,,,,,,,,,,,,5e723ffcc1c46a022a71a6dd,33,2022-02-12_18h50.53.061,lexical_decision_task_DD,2021.2.3,MacIntel,59.99160118,,,,,,,,,,,0.617,1,,,,,,,,,,,,,,,,,,,,,,,,0.10796658,-0.183182237,0,0,0,,,,,,,SHORE,C,m,m,./images/SHORE.png,,,,,,,,,,,,,,,,,,,,,m,1,0.617,,,,,,,,0,72,72,12,1
,,,,,,,,,,,,,,,,,5e723ffcc1c46a022a71a6dd,33,2022-02-12_18h50.53.061,lexical_decision_task_DD,2021.2.3,MacIntel,59.99160118,,,,,,,,,,,1.697,0,,,,,,,,,,,,,,,,,,,,,,,,0.10796658,-0.183182237,0,0,0,,,,,,,CLIFF,LB,z,m,./images/CLIFFLB.png,,,,,,,,,,,,,,,,,,,,,m,0,1.697,,,,,,,,0,73,73,92,1
,,,,,,,,,,,,,,,,,5e723ffcc1c46a022a71a6dd,33,2022-02-12_18h50.53.061,lexical_decision_task_DD,2021.2.3,MacIntel,59.99160118,,,,,,,,,,,0.9808,1,,,,,,,,,,,,,,,,,,,,,,,,0.10796658,-0.183182237,0,0,0,,,,,,,MAMMAL,LB,z,m,./images/MAMMALLB.png,,,,,,,,,,,,,,,,,,,,,z,1,0.9808,,,,,,,,0,74,74,146,1
,,,,,,,,,,,,,,,,,5e723ffcc1c46a022a71a6dd,33,2022-02-12_18h50.53.061,lexical_decision_task_DD,2021.2.3,MacIntel,59.99160118,,,,,,,,,,,1.3492,1,,,,,,,,,,,,,,,,,,,,,,,,0.10796658,-0.183182237,0,0,0,,,,,,,TIGER,HB,z,m,./images/TIGERHB.png,,,,,,,,,,,,,,,,,,,,,z,1,1.3492,,,,,,,,0,75,75,121,1
,,,,,,,,,,,,,,,,,5e723ffcc1c46a022a71a6dd,33,2022-02-12_18h50.53.061,lexical_decision_task_DD,2021.2.3,MacIntel,59.99160118,,,,,,,,,,,0.6987,1,,,,,,,,,,,,,,,,,,,,,,,,0.10796658,-0.183182237,0,0,0,,,,,,,BIRTH,HB,m,m,./images/BIRTHHB.png,,,,,,,,,,,,,,,,,,,,,m,1,0.6987,,,,,,,,0,76,76,37,1
,,,,,,,,,,,,,,,,,5e723ffcc1c46a022a71a6dd,33,2022-02-12_18h50.53.061,lexical_decision_task_DD,2021.2.3,MacIntel,59.99160118,,,,,,,,,,,0.5391,0,,,,,,,,,,,,,,,,,,,,,,,,0.10796658,-0.183182237,0,0,0,,,,,,,PILOT,LB,z,m,./images/PILOTLB.png,,,,,,,,,,,,,,,,,,,,,m,0,0.5391,,,,,,,,0,77,77,134,1
,,,,,,,,,,,,,,,,,5e723ffcc1c46a022a71a6dd,33,2022-02-12_18h50.53.061,lexical_decision_task_DD,2021.2.3,MacIntel,59.99160118,,,,,,,,,,,0.5803,1,,,,,,,,,,,,,,,,,,,,,,,,0.10796658,-0.183182237,0,0,0,,,,,,,BANNER,HB,m,m,./images/BANNERHB.png,,,,,,,,,,,,,,,,,,,,,m,1,0.5803,,,,,,,,0,78,78,52,1
,,,,,,,,,,,,,,,,,5e723ffcc1c46a022a71a6dd,33,2022-02-12_18h50.53.061,lexical_decision_task_DD,2021.2.3,MacIntel,59.99160118,,,,,,,,,,,0.5295,0,,,,,,,,,,,,,,,,,,,,,,,,0.10796658,-0.183182237,0,0,0,,,,,,,CANDY,C,z,m,./images/CANDY.png,,,,,,,,,,,,,,,,,,,,,m,0,0.5295,,,,,,,,0,79,79,123,1
,,,,,,,,,,,,,,,,,5e723ffcc1c46a022a71a6dd,33,2022-02-12_18h50.53.061,lexical_decision_task_DD,2021.2.3,MacIntel,59.99160118,,,,,,,,,,,0.4981,1,,,,,,,,,,,,,,,,,,,,,,,,0.10796658,-0.183182237,0,0,0,,,,,,,LADDER,LB,m,m,./images/LADDERLB.png,,,,,,,,,,,,,,,,,,,,,m,1,0.4981,,,,,,,,0,80,80,38,1
,,,,,,,,,,,,,,,,,5e723ffcc1c46a022a71a6dd,33,2022-02-12_18h50.53.061,lexical_decision_task_DD,2021.2.3,MacIntel,59.99160118,,,,,,,,,,,0.614,1,,,,,,,,,,,,,,,,,,,,,,,,0.10796658,-0.183182237,0,0,0,,,,,,,CEMENT,LB,m,m,./images/CEMENTLB.png,,,,,,,,,,,,,,,,,,,,,m,1,0.614,,,,,,,,0,81,81,74,1
,,,,,,,,,,,,,,,,,5e723ffcc1c46a022a71a6dd,33,2022-02-12_18h50.53.061,lexical_decision_task_DD,2021.2.3,MacIntel,59.99160118,,,,,,,,,,,0.5646,0,,,,,,,,,,,,,,,,,,,,,,,,0.10796658,-0.183182237,0,0,0,,,,,,,BUNNY,HB,z,m,./images/BUNNYHB.png,,,,,,,,,,,,,,,,,,,,,m,0,0.5646,,,,,,,,0,82,82,97,1
,,,,,,,,,,,,,,,,,5e723ffcc1c46a022a71a6dd,33,2022-02-12_18h50.53.061,lexical_decision_task_DD,2021.2.3,MacIntel,59.99160118,,,,,,,,,,,0.5648,1,,,,,,,,,,,,,,,,,,,,,,,,0.10796658,-0.183182237,0,0,0,space,,,,,,POODLE,C,m,m,./images/POODLE.png,0.9019,,,,,,,,,,,,,,,,,,,,m,1,0.5648,,,,,,,,0,83,83,81,1
,,,,,,,,,,,,,,,,,5e723ffcc1c46a022a71a6dd,33,2022-02-12_18h50.53.061,lexical_decision_task_DD,2021.2.3,MacIntel,59.99160118,,,,,,,,,,,0.582,1,,,,,,,,,,,,,,,,,,,,,,,,0.10796658,-0.183182237,0,0,0,,,,,,,DOUGH,HB,m,m,./images/DOUGHHB.png,,,,,,,,,,,,,,,,,,,,,m,1,0.582,,,,,,,,0,84,84,19,1
,,,,,,,,,,,,,,,,,5e723ffcc1c46a022a71a6dd,33,2022-02-12_18h50.53.061,lexical_decision_task_DD,2021.2.3,MacIntel,59.99160118,,,,,,,,,,,0.7353,1,,,,,,,,,,,,,,,,,,,,,,,,0.10796658,-0.183182237,0,0,0,,,,,,,MOSQUE,HB,m,m,./images/MOSQUEHB.png,,,,,,,,,,,,,,,,,,,,,m,1,0.7353,,,,,,,,0,85,85,43,1
,,,,,,,,,,,,,,,,,5e723ffcc1c46a022a71a6dd,33,2022-02-12_18h50.53.061,lexical_decision_task_DD,2021.2.3,MacIntel,59.99160118,,,,,,,,,,,0.6171,1,,,,,,,,,,,,,,,,,,,,,,,,0.10796658,-0.183182237,0,0,0,,,,,,,INFANT,HB,m,m,./images/INFANTHB.png,,,,,,,,,,,,,,,,,,,,,m,1,0.6171,,,,,,,,0,86,86,76,1
,,,,,,,,,,,,,,,,,5e723ffcc1c46a022a71a6dd,33,2022-02-12_18h50.53.061,lexical_decision_task_DD,2021.2.3,MacIntel,59.99160118,,,,,,,,,,,0.6619,0,,,,,,,,,,,,,,,,,,,,,,,,0.10796658,-0.183182237,0,0,0,,,,,,,BASKET,LB,z,m,./images/BASKETLB.png,,,,,,,,,,,,,,,,,,,,,m,0,0.6619,,,,,,,,0,87,87,128,1
,,,,,,,,,,,,,,,,,5e723ffcc1c46a022a71a6dd,33,2022-02-12_18h50.53.061,lexical_decision_task_DD,2021.2.3,MacIntel,59.99160118,,,,,,,,,,,0.6845,1,,,,,,,,,,,,,,,,,,,,,,,,0.10796658,-0.183182237,0,0,0,,,,,,,BURIAL,LB,m,m,./images/BURIALLB.png,,,,,,,,,,,,,,,,,,,,,m,1,0.6845,,,,,,,,0,88,88,59,1
,,,,,,,,,,,,,,,,,5e723ffcc1c46a022a71a6dd,33,2022-02-12_18h50.53.061,lexical_decision_task_DD,2021.2.3,MacIntel,59.99160118,,,,,,,,,,,0.9984,1,,,,,,,,,,,,,,,,,,,,,,,,0.10796658,-0.183182237,0,0,0,,,,,,,DANCER,C,z,m,./images/DANCER.png,,,,,,,,,,,,,,,,,,,,,z,1,0.9984,,,,,,,,0,89,89,105,1
,,,,,,,,,,,,,,,,,5e723ffcc1c46a022a71a6dd,33,2022-02-12_18h50.53.061,lexical_decision_task_DD,2021.2.3,MacIntel,59.99160118,,,,,,,,,,,0.5347,1,,,,,,,,,,,,,,,,,,,,,,,,0.10796658,-0.183182237,0,0,0,,,,,,,SUNSET,HB,m,m,./images/SUNSETHB.png,,,,,,,,,,,,,,,,,,,,,m,1,0.5347,,,,,,,,0,90,90,82,1
,,,,,,,,,,,,,,,,,5e723ffcc1c46a022a71a6dd,33,2022-02-12_18h50.53.061,lexical_decision_task_DD,2021.2.3,MacIntel,59.99160118,,,,,,,,,,,0.5644,1,,,,,,,,,,,,,,,,,,,,,,,,0.10796658,-0.183182237,0,0,0,,,,,,,CRADLE,LB,m,m,./images/CRADLELB.png,,,,,,,,,,,,,,,,,,,,,m,1,0.5644,,,,,,,,0,91,91,20,1
,,,,,,,,,,,,,,,,,5e723ffcc1c46a022a71a6dd,33,2022-02-12_18h50.53.061,lexical_decision_task_DD,2021.2.3,MacIntel,59.99160118,,,,,,,,,,,0.5726,1,,,,,,,,,,,,,,,,,,,,,,,,0.10796658,-0.183182237,0,0,0,,,,,,,BELLY,HB,m,m,./images/BELLYHB.png,,,,,,,,,,,,,,,,,,,,,m,1,0.5726,,,,,,,,0,92,92,10,1
,,,,,,,,,,,,,,,,,5e723ffcc1c46a022a71a6dd,33,2022-02-12_18h50.53.061,lexical_decision_task_DD,2021.2.3,MacIntel,59.99160118,,,,,,,,,,,0.5643,1,,,,,,,,,,,,,,,,,,,,,,,,0.10796658,-0.183182237,0,0,0,,,,,,,CRUMB,LB,m,m,./images/CRUMBLB.png,,,,,,,,,,,,,,,,,,,,,m,1,0.5643,,,,,,,,0,93,93,29,1
,,,,,,,,,,,,,,,,,5e723ffcc1c46a022a71a6dd,33,2022-02-12_18h50.53.061,lexical_decision_task_DD,2021.2.3,MacIntel,59.99160118,,,,,,,,,,,0.6119,1,,,,,,,,,,,,,,,,,,,,,,,,0.10796658,-0.183182237,0,0,0,,,,,,,GREASE,C,m,m,./images/GREASE.png,,,,,,,,,,,,,,,,,,,,,m,1,0.6119,,,,,,,,0,94,94,15,1
,,,,,,,,,,,,,,,,,5e723ffcc1c46a022a71a6dd,33,2022-02-12_18h50.53.061,lexical_decision_task_DD,2021.2.3,MacIntel,59.99160118,,,,,,,,,,,0.7085,1,,,,,,,,,,,,,,,,,,,,,,,,0.10796658,-0.183182237,0,0,0,,,,,,,MIDGET,HB,z,m,./images/MIDGETHB.png,,,,,,,,,,,,,,,,,,,,,z,1,0.7085,,,,,,,,0,95,95,160,1
,,,,,,,,,,,,,,,,,5e723ffcc1c46a022a71a6dd,33,2022-02-12_18h50.53.061,lexical_decision_task_DD,2021.2.3,MacIntel,59.99160118,,,,,,,,,,,0.5743,1,,,,,,,,,,,,,,,,,,,,,,,,0.10796658,-0.183182237,0,0,0,,,,,,,MALLET,LB,m,m,./images/MALLETLB.png,,,,,,,,,,,,,,,,,,,,,m,1,0.5743,,,,,,,,0,96,96,50,1
,,,,,,,,,,,,,,,,,5e723ffcc1c46a022a71a6dd,33,2022-02-12_18h50.53.061,lexical_decision_task_DD,2021.2.3,MacIntel,59.99160118,,,,,,,,,,,0.9893,0,,,,,,,,,,,,,,,,,,,,,,,,0.10796658,-0.183182237,0,0,0,,,,,,,STOOL,HB,z,m,./images/STOOLHB.png,,,,,,,,,,,,,,,,,,,,,m,0,0.9893,,,,,,,,0,97,97,127,1
,,,,,,,,,,,,,,,,,5e723ffcc1c46a022a71a6dd,33,2022-02-12_18h50.53.061,lexical_decision_task_DD,2021.2.3,MacIntel,59.99160118,,,,,,,,,,,0.6212,1,,,,,,,,,,,,,,,,,,,,,,,,0.10796658,-0.183182237,0,0,0,,,,,,,CRUST,HB,m,m,./images/CRUSTHB.png,,,,,,,,,,,,,,,,,,,,,m,1,0.6212,,,,,,,,0,98,98,79,1
,,,,,,,,,,,,,,,,,5e723ffcc1c46a022a71a6dd,33,2022-02-12_18h50.53.061,lexical_decision_task_DD,2021.2.3,MacIntel,59.99160118,,,,,,,,,,,0.5722,0,,,,,,,,,,,,,,,,,,,,,,,,0.10796658,-0.183182237,0,0,0,,,,,,,GRAPE,HB,z,m,./images/GRAPEHB.png,,,,,,,,,,,,,,,,,,,,,m,0,0.5722,,,,,,,,0,99,99,100,1
,,,,,,,,,,,,,,,,,5e723ffcc1c46a022a71a6dd,33,2022-02-12_18h50.53.061,lexical_decision_task_DD,2021.2.3,MacIntel,59.99160118,,,,,,,,,,,0.589,1,,,,,,,,,,,,,,,,,,,,,,,,0.10796658,-0.183182237,0,0,0,,,,,,,SKIING,LB,m,m,./images/SKIINGLB.png,,,,,,,,,,,,,,,,,,,,,m,1,0.589,,,,,,,,0,100,100,17,1
,,,,,,,,,,,,,,,,,5e723ffcc1c46a022a71a6dd,33,2022-02-12_18h50.53.061,lexical_decision_task_DD,2021.2.3,MacIntel,59.99160118,,,,,,,,,,,0.5147,1,,,,,,,,,,,,,,,,,,,,,,,,0.10796658,-0.183182237,0,0,0,,,,,,,MIRROR,C,m,m,./images/MIRROR.png,,,,,,,,,,,,,,,,,,,,,m,1,0.5147,,,,,,,,0,101,101,63,1
,,,,,,,,,,,,,,,,,5e723ffcc1c46a022a71a6dd,33,2022-02-12_18h50.53.061,lexical_decision_task_DD,2021.2.3,MacIntel,59.99160118,,,,,,,,,,,0.7986,1,,,,,,,,,,,,,,,,,,,,,,,,0.10796658,-0.183182237,0,0,0,,,,,,,CLOWN,HB,z,m,./images/CLOWNHB.png,,,,,,,,,,,,,,,,,,,,,z,1,0.7986,,,,,,,,0,102,102,106,1
,,,,,,,,,,,,,,,,,5e723ffcc1c46a022a71a6dd,33,2022-02-12_18h50.53.061,lexical_decision_task_DD,2021.2.3,MacIntel,59.99160118,,,,,,,,,,,0.6297,0,,,,,,,,,,,,,,,,,,,,,,,,0.10796658,-0.183182237,0,0,0,,,,,,,MONKEY,C,z,m,./images/MONKEY.png,,,,,,,,,,,,,,,,,,,,,m,0,0.6297,,,,,,,,0,103,103,129,1
,,,,,,,,,,,,,,,,,5e723ffcc1c46a022a71a6dd,33,2022-02-12_18h50.53.061,lexical_decision_task_DD,2021.2.3,MacIntel,59.99160118,,,,,,,,,,,0.5699,1,,,,,,,,,,,,,,,,,,,,,,,,0.10796658,-0.183182237,0,0,0,,,,,,,PAINT,HB,m,m,./images/PAINTHB.png,,,,,,,,,,,,,,,,,,,,,m,1,0.5699,,,,,,,,0,104,104,7,1
,,,,,,,,,,,,,,,,,5e723ffcc1c46a022a71a6dd,33,2022-02-12_18h50.53.061,lexical_decision_task_DD,2021.2.3,MacIntel,59.99160118,,,,,,,,,,,0.7083,1,,,,,,,,,,,,,,,,,,,,,,,,0.10796658,-0.183182237,0,0,0,,,,,,,LLAMA,LB,z,m,./images/LLAMALB.png,,,,,,,,,,,,,,,,,,,,,z,1,0.7083,,,,,,,,0,105,105,119,1
,,,,,,,,,,,,,,,,,5e723ffcc1c46a022a71a6dd,33,2022-02-12_18h50.53.061,lexical_decision_task_DD,2021.2.3,MacIntel,59.99160118,,,,,,,,,,,0.9542,0,,,,,,,,,,,,,,,,,,,,,,,,0.10796658,-0.183182237,0,0,0,,,,,,,GLOVE,HB,z,m,./images/GLOVEHB.png,,,,,,,,,,,,,,,,,,,,,m,0,0.9542,,,,,,,,0,106,106,157,1
,,,,,,,,,,,,,,,,,5e723ffcc1c46a022a71a6dd,33,2022-02-12_18h50.53.061,lexical_decision_task_DD,2021.2.3,MacIntel,59.99160118,,,,,,,,,,,0.5338,0,,,,,,,,,,,,,,,,,,,,,,,,0.10796658,-0.183182237,0,0,0,,,,,,,CHAIN,C,z,m,./images/CHAIN.png,,,,,,,,,,,,,,,,,,,,,m,0,0.5338,,,,,,,,0,107,107,126,1
,,,,,,,,,,,,,,,,,5e723ffcc1c46a022a71a6dd,33,2022-02-12_18h50.53.061,lexical_decision_task_DD,2021.2.3,MacIntel,59.99160118,,,,,,,,,,,0.8721,1,,,,,,,,,,,,,,,,,,,,,,,,0.10796658,-0.183182237,0,0,0,,,,,,,PASTA,LB,m,m,./images/PASTALB.png,,,,,,,,,,,,,,,,,,,,,m,1,0.8721,,,,,,,,0,108,108,5,1
,,,,,,,,,,,,,,,,,5e723ffcc1c46a022a71a6dd,33,2022-02-12_18h50.53.061,lexical_decision_task_DD,2021.2.3,MacIntel,59.99160118,,,,,,,,,,,0.5846,0,,,,,,,,,,,,,,,,,,,,,,,,0.10796658,-0.183182237,0,0,0,,,,,,,POSTER,LB,z,m,./images/POSTERLB.png,,,,,,,,,,,,,,,,,,,,,m,0,0.5846,,,,,,,,0,109,109,137,1
,,,,,,,,,,,,,,,,,5e723ffcc1c46a022a71a6dd,33,2022-02-12_18h50.53.061,lexical_decision_task_DD,2021.2.3,MacIntel,59.99160118,,,,,,,,,,,1.3002,0,,,,,,,,,,,,,,,,,,,,,,,,0.10796658,-0.183182237,0,0,0,,,,,,,WAGON,HB,z,m,./images/WAGONHB.png,,,,,,,,,,,,,,,,,,,,,m,0,1.3002,,,,,,,,0,110,110,91,1
,,,,,,,,,,,,,,,,,5e723ffcc1c46a022a71a6dd,33,2022-02-12_18h50.53.061,lexical_decision_task_DD,2021.2.3,MacIntel,59.99160118,,,,,,,,,,,0.6002,1,,,,,,,,,,,,,,,,,,,,,,,,0.10796658,-0.183182237,0,0,0,,,,,,,BARREL,LB,m,m,./images/BARRELLB.png,,,,,,,,,,,,,,,,,,,,,m,1,0.6002,,,,,,,,0,111,111,32,1
,,,,,,,,,,,,,,,,,5e723ffcc1c46a022a71a6dd,33,2022-02-12_18h50.53.061,lexical_decision_task_DD,2021.2.3,MacIntel,59.99160118,,,,,,,,,,,0.7823,1,,,,,,,,,,,,,,,,,,,,,,,,0.10796658,-0.183182237,0,0,0,,,,,,,PENCE,HB,m,m,./images/PENCEHB.png,,,,,,,,,,,,,,,,,,,,,m,1,0.7823,,,,,,,,0,112,112,16,1
,,,,,,,,,,,,,,,,,5e723ffcc1c46a022a71a6dd,33,2022-02-12_18h50.53.061,lexical_decision_task_DD,2021.2.3,MacIntel,59.99160118,,,,,,,,,,,1.0975,0,,,,,,,,,,,,,,,,,,,,,,,,0.10796658,-0.183182237,0,0,0,,,,,,,GARDEN,HB,z,m,./images/GARDENHB.png,,,,,,,,,,,,,,,,,,,,,m,0,1.0975,,,,,,,,0,113,113,94,1
,,,,,,,,,,,,,,,,,5e723ffcc1c46a022a71a6dd,33,2022-02-12_18h50.53.061,lexical_decision_task_DD,2021.2.3,MacIntel,59.99160118,,,,,,,,,,,0.6126,1,,,,,,,,,,,,,,,,,,,,,,,,0.10796658,-0.183182237,0,0,0,,,,,,,BEARD,LB,m,m,./images/BEARDLB.png,,,,,,,,,,,,,,,,,,,,,m,1,0.6126,,,,,,,,0,114,114,2,1
,,,,,,,,,,,,,,,,,5e723ffcc1c46a022a71a6dd,33,2022-02-12_18h50.53.061,lexical_decision_task_DD,2021.2.3,MacIntel,59.99160118,,,,,,,,,,,0.7648,1,,,,,,,,,,,,,,,,,,,,,,,,0.10796658,-0.183182237,0,0,0,,,,,,,CURRY,C,z,m,./images/CURRY.png,,,,,,,,,,,,,,,,,,,,,z,1,0.7648,,,,,,,,0,115,115,144,1
,,,,,,,,,,,,,,,,,5e723ffcc1c46a022a71a6dd,33,2022-02-12_18h50.53.061,lexical_decision_task_DD,2021.2.3,MacIntel,59.99160118,,,,,,,,,,,0.5201,1,,,,,,,,,,,,,,,,,,,,,,,,0.10796658,-0.183182237,0,0,0,,,,,,,MAGGOT,C,m,m,./images/MAGGOT.png,,,,,,,,,,,,,,,,,,,,,m,1,0.5201,,,,,,,,0,116,116,33,1
,,,,,,,,,,,,,,,,,5e723ffcc1c46a022a71a6dd,33,2022-02-12_18h50.53.061,lexical_decision_task_DD,2021.2.3,MacIntel,59.99160118,,,,,,,,,,,0.522,1,,,,,,,,,,,,,,,,,,,,,,,,0.10796658,-0.183182237,0,0,0,,,,,,,WALRUS,LB,m,m,./images/WALRUSLB.png,,,,,,,,,,,,,,,,,,,,,m,1,0.522,,,,,,,,0,117,117,23,1
,,,,,,,,,,,,,,,,,5e723ffcc1c46a022a71a6dd,33,2022-02-12_18h50.53.061,lexical_decision_task_DD,2021.2.3,MacIntel,59.99160118,,,,,,,,,,,0.8144,1,,,,,,,,,,,,,,,,,,,,,,,,0.10796658,-0.183182237,0,0,0,,,,,,,PISTOL,LB,z,m,./images/PISTOLLB.png,,,,,,,,,,,,,,,,,,,,,z,1,0.8144,,,,,,,,0,118,118,113,1
,,,,,,,,,,,,,,,,,5e723ffcc1c46a022a71a6dd,33,2022-02-12_18h50.53.061,lexical_decision_task_DD,2021.2.3,MacIntel,59.99160118,,,,,,,,,,,0.6993,1,,,,,,,,,,,,,,,,,,,,,,,,0.10796658,-0.183182237,0,0,0,,,,,,,FARMER,LB,m,m,./images/FARMERLB.png,,,,,,,,,,,,,,,,,,,,,m,1,0.6993,,,,,,,,0,119,119,65,1
,,,,,,,,,,,,,,,,,5e723ffcc1c46a022a71a6dd,33,2022-02-12_18h50.53.061,lexical_decision_task_DD,2021.2.3,MacIntel,59.99160118,,,,,,,,,,,0.6614,1,,,,,,,,,,,,,,,,,,,,,,,,0.10796658,-0.183182237,0,0,0,,,,,,,HOCKEY,LB,z,m,./images/HOCKEYLB.png,,,,,,,,,,,,,,,,,,,,,z,1,0.6614,,,,,,,,0,120,120,116,1
,,,,,,,,,,,,,,,,,5e723ffcc1c46a022a71a6dd,33,2022-02-12_18h50.53.061,lexical_decision_task_DD,2021.2.3,MacIntel,59.99160118,,,,,,,,,,,0.7837,1,,,,,,,,,,,,,,,,,,,,,,,,0.10796658,-0.183182237,0,0,0,,,,,,,DIVER,C,z,m,./images/DIVER.png,,,,,,,,,,,,,,,,,,,,,z,1,0.7837,,,,,,,,0,121,121,93,1
,,,,,,,,,,,,,,,,,5e723ffcc1c46a022a71a6dd,33,2022-02-12_18h50.53.061,lexical_decision_task_DD,2021.2.3,MacIntel,59.99160118,,,,,,,,,,,0.8813,1,,,,,,,,,,,,,,,,,,,,,,,,0.10796658,-0.183182237,0,0,0,,,,,,,LAGOON,LB,z,m,./images/LAGOONLB.png,,,,,,,,,,,,,,,,,,,,,z,1,0.8813,,,,,,,,0,122,122,131,1
,,,,,,,,,,,,,,,,,5e723ffcc1c46a022a71a6dd,33,2022-02-12_18h50.53.061,lexical_decision_task_DD,2021.2.3,MacIntel,59.99160118,,,,,,,,,,,0.6543,0,,,,,,,,,,,,,,,,,,,,,,,,0.10796658,-0.183182237,0,0,0,,,,,,,SPORT,C,m,m,./images/SPORT.png,,,,,,,,,,,,,,,,,,,,,z,0,0.6543,,,,,,,,0,123,123,48,1
,,,,,,,,,,,,,,,,,5e723ffcc1c46a022a71a6dd,33,2022-02-12_18h50.53.061,lexical_decision_task_DD,2021.2.3,MacIntel,59.99160118,,,,,,,,,,,0.5988,0,,,,,,,,,,,,,,,,,,,,,,,,0.10796658,-0.183182237,0,0,0,,,,,,,STREAM,LB,z,m,./images/STREAMLB.png,,,,,,,,,,,,,,,,,,,,,m,0,0.5988,,,,,,,,0,124,124,125,1
,,,,,,,,,,,,,,,,,5e723ffcc1c46a022a71a6dd,33,2022-02-12_18h50.53.061,lexical_decision_task_DD,2021.2.3,MacIntel,59.99160118,,,,,,,,,,,0.5369,0,,,,,,,,,,,,,,,,,,,,,,,,0.10796658,-0.183182237,0,0,0,space,,,,,,HAMMER,C,z,m,./images/HAMMER.png,0.8158,,,,,,,,,,,,,,,,,,,,m,0,0.5369,,,,,,,,0,125,125,159,1
,,,,,,,,,,,,,,,,,5e723ffcc1c46a022a71a6dd,33,2022-02-12_18h50.53.061,lexical_decision_task_DD,2021.2.3,MacIntel,59.99160118,,,,,,,,,,,0.6144,1,,,,,,,,,,,,,,,,,,,,,,,,0.10796658,-0.183182237,0,0,0,,,,,,,FLESH,C,z,m,./images/FLESH.png,,,,,,,,,,,,,,,,,,,,,z,1,0.6144,,,,,,,,0,126,126,108,1
,,,,,,,,,,,,,,,,,5e723ffcc1c46a022a71a6dd,33,2022-02-12_18h50.53.061,lexical_decision_task_DD,2021.2.3,MacIntel,59.99160118,,,,,,,,,,,0.66,1,,,,,,,,,,,,,,,,,,,,,,,,0.10796658,-0.183182237,0,0,0,,,,,,,VALLEY,LB,z,m,./images/VALLEYLB.png,,,,,,,,,,,,,,,,,,,,,z,1,0.66,,,,,,,,0,127,127,152,1
,,,,,,,,,,,,,,,,,5e723ffcc1c46a022a71a6dd,33,2022-02-12_18h50.53.061,lexical_decision_task_DD,2021.2.3,MacIntel,59.99160118,,,,,,,,,,,0.6995,1,,,,,,,,,,,,,,,,,,,,,,,,0.10796658,-0.183182237,0,0,0,,,,,,,TORCH,LB,m,m,./images/TORCHLB.png,,,,,,,,,,,,,,,,,,,,,m,1,0.6995,,,,,,,,0,128,128,68,1
,,,,,,,,,,,,,,,,,5e723ffcc1c46a022a71a6dd,33,2022-02-12_18h50.53.061,lexical_decision_task_DD,2021.2.3,MacIntel,59.99160118,,,,,,,,,,,0.6826,1,,,,,,,,,,,,,,,,,,,,,,,,0.10796658,-0.183182237,0,0,0,,,,,,,ARTIST,HB,z,m,./images/ARTISTHB.png,,,,,,,,,,,,,,,,,,,,,z,1,0.6826,,,,,,,,0,129,129,145,1
,,,,,,,,,,,,,,,,,5e723ffcc1c46a022a71a6dd,33,2022-02-12_18h50.53.061,lexical_decision_task_DD,2021.2.3,MacIntel,59.99160118,,,,,,,,,,,0.6168,1,,,,,,,,,,,,,,,,,,,,,,,,0.10796658,-0.183182237,0,0,0,,,,,,,PLANK,HB,m,m,./images/PLANKHB.png,,,,,,,,,,,,,,,,,,,,,m,1,0.6168,,,,,,,,0,130,130,1,1
,,,,,,,,,,,,,,,,,5e723ffcc1c46a022a71a6dd,33,2022-02-12_18h50.53.061,lexical_decision_task_DD,2021.2.3,MacIntel,59.99160118,,,,,,,,,,,1.0983,0,,,,,,,,,,,,,,,,,,,,,,,,0.10796658,-0.183182237,0,0,0,,,,,,,MUMMY,HB,z,m,./images/MUMMYHB.png,,,,,,,,,,,,,,,,,,,,,m,0,1.0983,,,,,,,,0,131,131,130,1
