key_resp.keys,key_resp.rt,instr_done_touch.x,instr_done_touch.y,instr_done_touch.leftButton,instr_done_touch.midButton,instr_done_touch.rightButton,instruction_pages.thisRepN,instruction_pages.thisTrialN,instruction_pages.thisN,instruction_pages.thisIndex,instruction_pages.ran,pageN,phase,instruct_text,has_image,instruct_image,participant,age,date,expName,psychopyVersion,OS,frameRate,response.keys,response.corr,response.rt,touch_resp.x,touch_resp.y,touch_resp.leftButton,touch_resp.midButton,touch_resp.rightButton,touch_resp.time,touch_resp.clicked_name,rt,corr,practrials.thisRepN,practrials.thisTrialN,practrials.thisN,practrials.thisIndex,practrials.ran,TrialID,Target,corrAns,end_of_practice_trials_pages.thisRepN,end_of_practice_trials_pages.thisTrialN,end_of_practice_trials_pages.thisN,end_of_practice_trials_pages.thisIndex,end_of_practice_trials_pages.ran,key_resp_2.keys,key_resp_2.corr,key_resp_2.rt,targ_click.x,targ_click.y,targ_click.leftButton,targ_click.midButton,targ_click.rightButton,targ_click.time,targ_click.clicked_name,break_done_touch.x,break_done_touch.y,break_done_touch.leftButton,break_done_touch.midButton,break_done_touch.rightButton,break_done_keyboard.keys,maintrials.thisRepN,maintrials.thisTrialN,maintrials.thisN,maintrials.thisIndex,maintrials.ran,string,blur,study,lex,stim_path,break_done_keyboard.rt,mouse_2.x,mouse_2.y,mouse_2.leftButton,mouse_2.midButton,mouse_2.rightButton,mouse_2.clicked_name,slider.response,slider.rt,trials.thisRepN,trials.thisTrialN,trials.thisN,trials.thisIndex,trials.ran,test_instructions.thisRepN,test_instructions.thisTrialN,test_instructions.thisN,test_instructions.thisIndex,test_instructions.ran,instr_done_touch.clicked_name,key_resp_3.keys,key_resp_3.corr,key_resp_3.rt,test_click.x,test_click.y,test_click.leftButton,test_click.midButton,test_click.rightButton,test_click.time,test_click.clicked_name,test_phase.thisRepN,test_phase.thisTrialN,test_phase.thisN,test_phase.thisIndex,test_phase.ran
space,19.3027,0.777926095,-0.499074089,0,0,0,0,0,0,0,1,1,instructions,"INSTRUCTIONS
At the start of each trial, look at the plus sign  (+) in the center of the screen.  This tells you that a trial is about to begin and where to look. Second, the plus sign will disappear and a string of letters will appear. Your task is to determine if the string of letters is a word or not. If the item is a word press the M key (on keyboard)  or touch the word button (phone/tablet).  If the item is not a word,  press the  Z key (on keyboard)  or touch the nonword button (on phone/tablet). 
Press the space bar or touch  continue.",0,,5e9a85acff642f1158b7d33d,32,2022-02-12_18h33.23.804,lexical_decision_task_DD,2021.2.3,Linux x86_64,60.08171113,,,,,,,,,,,,,,,,,,,,,,,,,,,,,,,,,,,,,,,,,,,,,,,,,,,,,,,,,,,,,,,,,,,,,,,,,,,,,,,,,,,,,,
space,5.2688,0.777926095,-0.499074089,0,0,0,0,1,1,1,1,2,instructions,"If your device has a keyboard, press the 'Z' key for nonwords and the 'M' key for words.





Press the space bar or touch the button below to continue.",0,keyboard-example.gif,5e9a85acff642f1158b7d33d,32,2022-02-12_18h33.23.804,lexical_decision_task_DD,2021.2.3,Linux x86_64,60.08171113,,,,,,,,,,,,,,,,,,,,,,,,,,,,,,,,,,,,,,,,,,,,,,,,,,,,,,,,,,,,,,,,,,,,,,,,,,,,,,,,,,,,,,
space,6.0388,0.777926095,-0.499074089,0,0,0,0,2,2,2,1,3,instructions,"If you are using a touchscreen only device, use the buttons on the screen. Do not use the mouse.





Press the space bar or touch the button below to continue.",0,touchscreen-example.gif,5e9a85acff642f1158b7d33d,32,2022-02-12_18h33.23.804,lexical_decision_task_DD,2021.2.3,Linux x86_64,60.08171113,,,,,,,,,,,,,,,,,,,,,,,,,,,,,,,,,,,,,,,,,,,,,,,,,,,,,,,,,,,,,,,,,,,,,,,,,,,,,,,,,,,,,,
space,9.9502,0.777926095,-0.499074089,0,0,0,0,3,3,3,1,4,instructions,"It is very important that you respond as quickly and accurately as possible, as each letter string will only be on the screen for two seconds. If you do not respond within this time, the message 'Too slow!' will be displayed and the experiment will progress to the next letter string. The first 20 trials will be practice trials and you will receive feedback on your answers. 

Press the space bar or touch the button below to start the practice trials.",0,,5e9a85acff642f1158b7d33d,32,2022-02-12_18h33.23.804,lexical_decision_task_DD,2021.2.3,Linux x86_64,60.08171113,,,,,,,,,,,,,,,,,,,,,,,,,,,,,,,,,,,,,,,,,,,,,,,,,,,,,,,,,,,,,,,,,,,,,,,,,,,,,,,,,,,,,,
,,,,,,,,,,,,,,,,,5e9a85acff642f1158b7d33d,32,2022-02-12_18h33.23.804,lexical_decision_task_DD,2021.2.3,Linux x86_64,60.08171113,m,1,0.6525,,,,,,,,0.6525,1,0,0,0,7,1,1001,VOLUME,m,,,,,,,,,,,,,,,,,,,,,,,,,,,,,,,,,,,,,,,,,,,,,,,,,,,,,,,,,,,,,,,,,,
,,,,,,,,,,,,,,,,,5e9a85acff642f1158b7d33d,32,2022-02-12_18h33.23.804,lexical_decision_task_DD,2021.2.3,Linux x86_64,60.08171113,z,1,0.7445,,,,,,,,0.7445,1,0,1,1,15,1,1001,WHAISE,z,,,,,,,,,,,,,,,,,,,,,,,,,,,,,,,,,,,,,,,,,,,,,,,,,,,,,,,,,,,,,,,,,,
,,,,,,,,,,,,,,,,,5e9a85acff642f1158b7d33d,32,2022-02-12_18h33.23.804,lexical_decision_task_DD,2021.2.3,Linux x86_64,60.08171113,z,1,0.5276,,,,,,,,0.5276,1,0,2,2,11,1,1001,RASHET,z,,,,,,,,,,,,,,,,,,,,,,,,,,,,,,,,,,,,,,,,,,,,,,,,,,,,,,,,,,,,,,,,,,
,,,,,,,,,,,,,,,,,5e9a85acff642f1158b7d33d,32,2022-02-12_18h33.23.804,lexical_decision_task_DD,2021.2.3,Linux x86_64,60.08171113,z,1,0.5718,,,,,,,,0.5718,1,0,3,3,14,1,1001,THRALE,z,,,,,,,,,,,,,,,,,,,,,,,,,,,,,,,,,,,,,,,,,,,,,,,,,,,,,,,,,,,,,,,,,,
,,,,,,,,,,,,,,,,,5e9a85acff642f1158b7d33d,32,2022-02-12_18h33.23.804,lexical_decision_task_DD,2021.2.3,Linux x86_64,60.08171113,m,0,0.8984,,,,,,,,0.8984,0,0,4,4,10,1,1001,INLADE,z,,,,,,,,,,,,,,,,,,,,,,,,,,,,,,,,,,,,,,,,,,,,,,,,,,,,,,,,,,,,,,,,,,
,,,,,,,,,,,,,,,,,5e9a85acff642f1158b7d33d,32,2022-02-12_18h33.23.804,lexical_decision_task_DD,2021.2.3,Linux x86_64,60.08171113,m,1,0.4683,,,,,,,,0.4683,1,0,5,5,2,1,1001,ALMOND,m,,,,,,,,,,,,,,,,,,,,,,,,,,,,,,,,,,,,,,,,,,,,,,,,,,,,,,,,,,,,,,,,,,
,,,,,,,,,,,,,,,,,5e9a85acff642f1158b7d33d,32,2022-02-12_18h33.23.804,lexical_decision_task_DD,2021.2.3,Linux x86_64,60.08171113,z,1,0.5457,,,,,,,,0.5457,1,0,6,6,12,1,1001,SPRINY,z,,,,,,,,,,,,,,,,,,,,,,,,,,,,,,,,,,,,,,,,,,,,,,,,,,,,,,,,,,,,,,,,,,
,,,,,,,,,,,,,,,,,5e9a85acff642f1158b7d33d,32,2022-02-12_18h33.23.804,lexical_decision_task_DD,2021.2.3,Linux x86_64,60.08171113,m,1,0.6348,,,,,,,,0.6348,1,0,7,7,3,1,1001,MATRIX,m,,,,,,,,,,,,,,,,,,,,,,,,,,,,,,,,,,,,,,,,,,,,,,,,,,,,,,,,,,,,,,,,,,
,,,,,,,,,,,,,,,,,5e9a85acff642f1158b7d33d,32,2022-02-12_18h33.23.804,lexical_decision_task_DD,2021.2.3,Linux x86_64,60.08171113,m,1,0.6448,,,,,,,,0.6448,1,0,8,8,1,1,1001,ADJUST,m,,,,,,,,,,,,,,,,,,,,,,,,,,,,,,,,,,,,,,,,,,,,,,,,,,,,,,,,,,,,,,,,,,
,,,,,,,,,,,,,,,,,5e9a85acff642f1158b7d33d,32,2022-02-12_18h33.23.804,lexical_decision_task_DD,2021.2.3,Linux x86_64,60.08171113,z,1,0.6874,,,,,,,,0.6874,1,0,9,9,8,1,1001,ASLERT,z,,,,,,,,,,,,,,,,,,,,,,,,,,,,,,,,,,,,,,,,,,,,,,,,,,,,,,,,,,,,,,,,,,
,,,,,,,,,,,,,,,,,5e9a85acff642f1158b7d33d,32,2022-02-12_18h33.23.804,lexical_decision_task_DD,2021.2.3,Linux x86_64,60.08171113,m,1,0.6313,,,,,,,,0.6313,1,0,10,10,6,1,1001,ZOMBIE,m,,,,,,,,,,,,,,,,,,,,,,,,,,,,,,,,,,,,,,,,,,,,,,,,,,,,,,,,,,,,,,,,,,
,,,,,,,,,,,,,,,,,5e9a85acff642f1158b7d33d,32,2022-02-12_18h33.23.804,lexical_decision_task_DD,2021.2.3,Linux x86_64,60.08171113,z,1,0.7103,,,,,,,,0.7103,1,0,11,11,13,1,1001,ROUPET,z,,,,,,,,,,,,,,,,,,,,,,,,,,,,,,,,,,,,,,,,,,,,,,,,,,,,,,,,,,,,,,,,,,
,,,,,,,,,,,,,,,,,5e9a85acff642f1158b7d33d,32,2022-02-12_18h33.23.804,lexical_decision_task_DD,2021.2.3,Linux x86_64,60.08171113,z,1,0.6682,,,,,,,,0.6682,1,0,12,12,9,1,1001,FARINY,z,,,,,,,,,,,,,,,,,,,,,,,,,,,,,,,,,,,,,,,,,,,,,,,,,,,,,,,,,,,,,,,,,,
,,,,,,,,,,,,,,,,,5e9a85acff642f1158b7d33d,32,2022-02-12_18h33.23.804,lexical_decision_task_DD,2021.2.3,Linux x86_64,60.08171113,m,1,0.6462,,,,,,,,0.6462,1,0,13,13,5,1,1001,OBTAIN,m,,,,,,,,,,,,,,,,,,,,,,,,,,,,,,,,,,,,,,,,,,,,,,,,,,,,,,,,,,,,,,,,,,
,,,,,,,,,,,,,,,,,5e9a85acff642f1158b7d33d,32,2022-02-12_18h33.23.804,lexical_decision_task_DD,2021.2.3,Linux x86_64,60.08171113,m,1,0.6781,,,,,,,,0.6781,1,0,14,14,0,1,1001,UTOPIA,m,,,,,,,,,,,,,,,,,,,,,,,,,,,,,,,,,,,,,,,,,,,,,,,,,,,,,,,,,,,,,,,,,,
,,,,,,,,,,,,,,,,,5e9a85acff642f1158b7d33d,32,2022-02-12_18h33.23.804,lexical_decision_task_DD,2021.2.3,Linux x86_64,60.08171113,m,1,0.6364,,,,,,,,0.6364,1,0,15,15,4,1,1001,SQUEAK,m,,,,,,,,,,,,,,,,,,,,,,,,,,,,,,,,,,,,,,,,,,,,,,,,,,,,,,,,,,,,,,,,,,
space,5.4917,0.776242768,-0.499074089,0,0,0,,,,,,1,end_of_practice,"You have completed the practice trials. During the experimental trials, you will not receive feedback. 
Before you begin, please ensure that you are in a comfortable and quiet location and will not be disturbed for about 15 minutes, as we cannot use your data if you do not complete all the trials. 
 When you are ready to start the experimental trials, please press space or touch the button below.",,,5e9a85acff642f1158b7d33d,32,2022-02-12_18h33.23.804,lexical_decision_task_DD,2021.2.3,Linux x86_64,60.08171113,,,,,,,,,,,,,,,,,,,,,0,0,0,0,1,,,,,,,,,,,,,,,,,,,,,,,,,,,,,,,,,,,,,,,,,,,,,,,,,,,,,,,,,,,,,
,,,,,,,,,,,,,,,,,5e9a85acff642f1158b7d33d,32,2022-02-12_18h33.23.804,lexical_decision_task_DD,2021.2.3,Linux x86_64,60.08171113,,,,,,,,,,,1.746,1,,,,,,,,,,,,,,m,1,1.746,,,,,,,,0.776242768,-0.499074089,0,0,0,,0,0,0,43,1,MOSQUE,HB,old,m,./images/MOSQUEHB.png,,,,,,,,,,,,,,,,,,,,,,,,,,,,,,,,,,,
,,,,,,,,,,,,,,,,,5e9a85acff642f1158b7d33d,32,2022-02-12_18h33.23.804,lexical_decision_task_DD,2021.2.3,Linux x86_64,60.08171113,,,,,,,,,,,0.8576,0,,,,,,,,,,,,,,m,0,0.8576,,,,,,,,0.776242768,-0.499074089,0,0,0,,0,1,1,115,1,MAWNS,HB,old,z,./images/MAWNSHB.png,,,,,,,,,,,,,,,,,,,,,,,,,,,,,,,,,,,
,,,,,,,,,,,,,,,,,5e9a85acff642f1158b7d33d,32,2022-02-12_18h33.23.804,lexical_decision_task_DD,2021.2.3,Linux x86_64,60.08171113,,,,,,,,,,,0.6658,1,,,,,,,,,,,,,,m,1,0.6658,,,,,,,,0.776242768,-0.499074089,0,0,0,,0,2,2,38,1,LADDER,LB,old,m,./images/LADDERLB.png,,,,,,,,,,,,,,,,,,,,,,,,,,,,,,,,,,,
,,,,,,,,,,,,,,,,,5e9a85acff642f1158b7d33d,32,2022-02-12_18h33.23.804,lexical_decision_task_DD,2021.2.3,Linux x86_64,60.08171113,,,,,,,,,,,0.6546,1,,,,,,,,,,,,,,m,1,0.6546,,,,,,,,0.776242768,-0.499074089,0,0,0,,0,3,3,63,1,MIRROR,C,old,m,./images/MIRROR.png,,,,,,,,,,,,,,,,,,,,,,,,,,,,,,,,,,,
,,,,,,,,,,,,,,,,,5e9a85acff642f1158b7d33d,32,2022-02-12_18h33.23.804,lexical_decision_task_DD,2021.2.3,Linux x86_64,60.08171113,,,,,,,,,,,0.5349,1,,,,,,,,,,,,,,z,1,0.5349,,,,,,,,0.775400935,-0.499074089,0,0,0,,0,4,4,155,1,CANGY,LB,old,z,./images/CANGYLB.png,,,,,,,,,,,,,,,,,,,,,,,,,,,,,,,,,,,
,,,,,,,,,,,,,,,,,5e9a85acff642f1158b7d33d,32,2022-02-12_18h33.23.804,lexical_decision_task_DD,2021.2.3,Linux x86_64,60.08171113,,,,,,,,,,,0.9099,0,,,,,,,,,,,,,,z,0,0.9099,,,,,,,,0.774559215,-0.499074089,0,0,0,,0,5,5,10,1,BELLY,HB,old,m,./images/BELLYHB.png,,,,,,,,,,,,,,,,,,,,,,,,,,,,,,,,,,,
,,,,,,,,,,,,,,,,,5e9a85acff642f1158b7d33d,32,2022-02-12_18h33.23.804,lexical_decision_task_DD,2021.2.3,Linux x86_64,60.08171113,,,,,,,,,,,0.5581,1,,,,,,,,,,,,,,m,1,0.5581,,,,,,,,0.774559215,-0.499074089,0,0,0,,0,6,6,23,1,WALRUS,LB,old,m,./images/WALRUSLB.png,,,,,,,,,,,,,,,,,,,,,,,,,,,,,,,,,,,
,,,,,,,,,,,,,,,,,5e9a85acff642f1158b7d33d,32,2022-02-12_18h33.23.804,lexical_decision_task_DD,2021.2.3,Linux x86_64,60.08171113,,,,,,,,,,,0.6212,1,,,,,,,,,,,,,,m,1,0.6212,,,,,,,,0.774559215,-0.499074089,0,0,0,,0,7,7,5,1,PASTA,LB,old,m,./images/PASTALB.png,,,,,,,,,,,,,,,,,,,,,,,,,,,,,,,,,,,
,,,,,,,,,,,,,,,,,5e9a85acff642f1158b7d33d,32,2022-02-12_18h33.23.804,lexical_decision_task_DD,2021.2.3,Linux x86_64,60.08171113,,,,,,,,,,,0.9185,1,,,,,,,,,,,,,,z,1,0.9185,,,,,,,,0.774559215,-0.499074089,0,0,0,,0,8,8,88,1,GLUSH,HB,old,z,./images/GLUSHHB.png,,,,,,,,,,,,,,,,,,,,,,,,,,,,,,,,,,,
,,,,,,,,,,,,,,,,,5e9a85acff642f1158b7d33d,32,2022-02-12_18h33.23.804,lexical_decision_task_DD,2021.2.3,Linux x86_64,60.08171113,,,,,,,,,,,0.6847,1,,,,,,,,,,,,,,z,1,0.6847,,,,,,,,0.774559215,-0.499074089,0,0,0,,0,9,9,130,1,CRILL,HB,old,z,./images/CRILLHB.png,,,,,,,,,,,,,,,,,,,,,,,,,,,,,,,,,,,
,,,,,,,,,,,,,,,,,5e9a85acff642f1158b7d33d,32,2022-02-12_18h33.23.804,lexical_decision_task_DD,2021.2.3,Linux x86_64,60.08171113,,,,,,,,,,,0.6683,1,,,,,,,,,,,,,,z,1,0.6683,,,,,,,,0.774559215,-0.499074089,0,0,0,,0,10,10,114,1,RIKES,C,old,z,./images/RIKES.png,,,,,,,,,,,,,,,,,,,,,,,,,,,,,,,,,,,
,,,,,,,,,,,,,,,,,5e9a85acff642f1158b7d33d,32,2022-02-12_18h33.23.804,lexical_decision_task_DD,2021.2.3,Linux x86_64,60.08171113,,,,,,,,,,,0.7424,1,,,,,,,,,,,,,,z,1,0.7424,,,,,,,,0.774559215,-0.499074089,0,0,0,,0,11,11,107,1,FASKS,LB,old,z,./images/FASKSLB.png,,,,,,,,,,,,,,,,,,,,,,,,,,,,,,,,,,,
,,,,,,,,,,,,,,,,,5e9a85acff642f1158b7d33d,32,2022-02-12_18h33.23.804,lexical_decision_task_DD,2021.2.3,Linux x86_64,60.08171113,,,,,,,,,,,0.5217,1,,,,,,,,,,,,,,m,1,0.5217,,,,,,,,0.774559215,-0.499074089,0,0,0,,0,12,12,0,1,TOMATO,C,old,m,./images/TOMATO.png,,,,,,,,,,,,,,,,,,,,,,,,,,,,,,,,,,,
,,,,,,,,,,,,,,,,,5e9a85acff642f1158b7d33d,32,2022-02-12_18h33.23.804,lexical_decision_task_DD,2021.2.3,Linux x86_64,60.08171113,,,,,,,,,,,0.5836,1,,,,,,,,,,,,,,m,1,0.5836,,,,,,,,0.774559215,-0.499074089,0,0,0,,0,13,13,60,1,TWINS,C,old,m,./images/TWINS.png,,,,,,,,,,,,,,,,,,,,,,,,,,,,,,,,,,,
,,,,,,,,,,,,,,,,,5e9a85acff642f1158b7d33d,32,2022-02-12_18h33.23.804,lexical_decision_task_DD,2021.2.3,Linux x86_64,60.08171113,,,,,,,,,,,0.518,1,,,,,,,,,,,,,,z,1,0.518,,,,,,,,0.774559215,-0.499074089,0,0,0,,0,14,14,140,1,DOVET,LB,old,z,./images/DOVETLB.png,,,,,,,,,,,,,,,,,,,,,,,,,,,,,,,,,,,
,,,,,,,,,,,,,,,,,5e9a85acff642f1158b7d33d,32,2022-02-12_18h33.23.804,lexical_decision_task_DD,2021.2.3,Linux x86_64,60.08171113,,,,,,,,,,,0.5191,1,,,,,,,,,,,,,,z,1,0.5191,,,,,,,,0.774559215,-0.499074089,0,0,0,,0,15,15,129,1,PRANS,C,old,z,./images/PRANS.png,,,,,,,,,,,,,,,,,,,,,,,,,,,,,,,,,,,
,,,,,,,,,,,,,,,,,5e9a85acff642f1158b7d33d,32,2022-02-12_18h33.23.804,lexical_decision_task_DD,2021.2.3,Linux x86_64,60.08171113,,,,,,,,,,,0.6263,1,,,,,,,,,,,,,,z,1,0.6263,,,,,,,,0.774559215,-0.499074089,0,0,0,,0,16,16,164,1,SGREW,LB,old,z,./images/SGREWLB.png,,,,,,,,,,,,,,,,,,,,,,,,,,,,,,,,,,,
,,,,,,,,,,,,,,,,,5e9a85acff642f1158b7d33d,32,2022-02-12_18h33.23.804,lexical_decision_task_DD,2021.2.3,Linux x86_64,60.08171113,,,,,,,,,,,0.7402,0,,,,,,,,,,,,,,z,0,0.7402,,,,,,,,0.774559215,-0.499074089,0,0,0,,0,17,17,40,1,SWING,HB,old,m,./images/SWINGHB.png,,,,,,,,,,,,,,,,,,,,,,,,,,,,,,,,,,,
,,,,,,,,,,,,,,,,,5e9a85acff642f1158b7d33d,32,2022-02-12_18h33.23.804,lexical_decision_task_DD,2021.2.3,Linux x86_64,60.08171113,,,,,,,,,,,0.6954,1,,,,,,,,,,,,,,m,1,0.6954,,,,,,,,0.774559215,-0.499074089,0,0,0,,0,18,18,7,1,PAINT,HB,old,m,./images/PAINTHB.png,,,,,,,,,,,,,,,,,,,,,,,,,,,,,,,,,,,
,,,,,,,,,,,,,,,,,5e9a85acff642f1158b7d33d,32,2022-02-12_18h33.23.804,lexical_decision_task_DD,2021.2.3,Linux x86_64,60.08171113,,,,,,,,,,,0.6122,1,,,,,,,,,,,,,,z,1,0.6122,,,,,,,,0.774559215,-0.499074089,0,0,0,,0,19,19,97,1,CHIDS,HB,old,z,./images/CHIDSHB.png,,,,,,,,,,,,,,,,,,,,,,,,,,,,,,,,,,,
,,,,,,,,,,,,,,,,,5e9a85acff642f1158b7d33d,32,2022-02-12_18h33.23.804,lexical_decision_task_DD,2021.2.3,Linux x86_64,60.08171113,,,,,,,,,,,0.5444,1,,,,,,,,,,,,,,m,1,0.5444,,,,,,,,0.774559215,-0.499074089,0,0,0,,0,20,20,66,1,SWEAT,C,old,m,./images/SWEAT.png,,,,,,,,,,,,,,,,,,,,,,,,,,,,,,,,,,,
,,,,,,,,,,,,,,,,,5e9a85acff642f1158b7d33d,32,2022-02-12_18h33.23.804,lexical_decision_task_DD,2021.2.3,Linux x86_64,60.08171113,,,,,,,,,,,0.6993,1,,,,,,,,,,,,,,z,1,0.6993,,,,,,,,0.774559215,-0.499074089,0,0,0,,0,21,21,119,1,PAFER,LB,old,z,./images/PAFERLB.png,,,,,,,,,,,,,,,,,,,,,,,,,,,,,,,,,,,
,,,,,,,,,,,,,,,,,5e9a85acff642f1158b7d33d,32,2022-02-12_18h33.23.804,lexical_decision_task_DD,2021.2.3,Linux x86_64,60.08171113,,,,,,,,,,,0.605,1,,,,,,,,,,,,,,z,1,0.605,,,,,,,,0.774559215,-0.499074089,0,0,0,,0,22,22,143,1,MONGS,LB,old,z,./images/MONGSLB.png,,,,,,,,,,,,,,,,,,,,,,,,,,,,,,,,,,,
,,,,,,,,,,,,,,,,,5e9a85acff642f1158b7d33d,32,2022-02-12_18h33.23.804,lexical_decision_task_DD,2021.2.3,Linux x86_64,60.08171113,,,,,,,,,,,0.7603,1,,,,,,,,,,,,,,z,1,0.7603,,,,,,,,0.774559215,-0.499074089,0,0,0,,0,23,23,131,1,NACES,LB,old,z,./images/NACESLB.png,,,,,,,,,,,,,,,,,,,,,,,,,,,,,,,,,,,
,,,,,,,,,,,,,,,,,5e9a85acff642f1158b7d33d,32,2022-02-12_18h33.23.804,lexical_decision_task_DD,2021.2.3,Linux x86_64,60.08171113,,,,,,,,,,,0.6378,1,,,,,,,,,,,,,,z,1,0.6378,,,,,,,,0.774559215,-0.499074089,0,0,0,,0,24,24,147,1,ZOLES,C,old,z,./images/ZOLES.png,,,,,,,,,,,,,,,,,,,,,,,,,,,,,,,,,,,
,,,,,,,,,,,,,,,,,5e9a85acff642f1158b7d33d,32,2022-02-12_18h33.23.804,lexical_decision_task_DD,2021.2.3,Linux x86_64,60.08171113,,,,,,,,,,,0.6654,1,,,,,,,,,,,,,,m,1,0.6654,,,,,,,,0.774559215,-0.499074089,0,0,0,,0,25,25,68,1,TORCH,LB,old,m,./images/TORCHLB.png,,,,,,,,,,,,,,,,,,,,,,,,,,,,,,,,,,,
,,,,,,,,,,,,,,,,,5e9a85acff642f1158b7d33d,32,2022-02-12_18h33.23.804,lexical_decision_task_DD,2021.2.3,Linux x86_64,60.08171113,,,,,,,,,,,0.5207,1,,,,,,,,,,,,,,z,1,0.5207,,,,,,,,0.774559215,-0.499074089,0,0,0,,0,26,26,87,1,TRING,C,old,z,./images/TRING.png,,,,,,,,,,,,,,,,,,,,,,,,,,,,,,,,,,,
,,,,,,,,,,,,,,,,,5e9a85acff642f1158b7d33d,32,2022-02-12_18h33.23.804,lexical_decision_task_DD,2021.2.3,Linux x86_64,60.08171113,,,,,,,,,,,1.0098,0,,,,,,,,,,,,,,m,0,1.0098,,,,,,,,0.774559215,-0.499074089,0,0,0,,0,27,27,85,1,CHULK,HB,old,z,./images/CHULKHB.png,,,,,,,,,,,,,,,,,,,,,,,,,,,,,,,,,,,
,,,,,,,,,,,,,,,,,5e9a85acff642f1158b7d33d,32,2022-02-12_18h33.23.804,lexical_decision_task_DD,2021.2.3,Linux x86_64,60.08171113,,,,,,,,,,,0.6676,1,,,,,,,,,,,,,,m,1,0.6676,,,,,,,,0.774559215,-0.499074089,0,0,0,,0,28,28,78,1,LITTER,C,old,m,./images/LITTER.png,,,,,,,,,,,,,,,,,,,,,,,,,,,,,,,,,,,
,,,,,,,,,,,,,,,,,5e9a85acff642f1158b7d33d,32,2022-02-12_18h33.23.804,lexical_decision_task_DD,2021.2.3,Linux x86_64,60.08171113,,,,,,,,,,,0.5825,1,,,,,,,,,,,,,,z,1,0.5825,,,,,,,,0.774559215,-0.499074089,0,0,0,,0,29,29,158,1,EGECT,LB,old,z,./images/EGECTLB.png,,,,,,,,,,,,,,,,,,,,,,,,,,,,,,,,,,,
,,,,,,,,,,,,,,,,,5e9a85acff642f1158b7d33d,32,2022-02-12_18h33.23.804,lexical_decision_task_DD,2021.2.3,Linux x86_64,60.08171113,,,,,,,,,,,0.4602,1,,,,,,,,,,,,,,z,1,0.4602,,,,,,,,0.774559215,-0.499074089,0,0,0,,0,30,30,110,1,CRUNK,LB,old,z,./images/CRUNKLB.png,,,,,,,,,,,,,,,,,,,,,,,,,,,,,,,,,,,
,,,,,,,,,,,,,,,,,5e9a85acff642f1158b7d33d,32,2022-02-12_18h33.23.804,lexical_decision_task_DD,2021.2.3,Linux x86_64,60.08171113,,,,,,,,,,,0.6924,0,,,,,,,,,,,,,,z,0,0.6924,,,,,,,,0.774559215,-0.499074089,0,0,0,,0,31,31,49,1,DRUMS,HB,old,m,./images/DRUMSHB.png,,,,,,,,,,,,,,,,,,,,,,,,,,,,,,,,,,,
,,,,,,,,,,,,,,,,,5e9a85acff642f1158b7d33d,32,2022-02-12_18h33.23.804,lexical_decision_task_DD,2021.2.3,Linux x86_64,60.08171113,,,,,,,,,,,1.0097,1,,,,,,,,,,,,,,m,1,1.0097,,,,,,,,0.774559215,-0.499074089,0,0,0,,0,32,32,58,1,BABOON,HB,old,m,./images/BABOONHB.png,,,,,,,,,,,,,,,,,,,,,,,,,,,,,,,,,,,
,,,,,,,,,,,,,,,,,5e9a85acff642f1158b7d33d,32,2022-02-12_18h33.23.804,lexical_decision_task_DD,2021.2.3,Linux x86_64,60.08171113,,,,,,,,,,,0.9359,0,,,,,,,,,,,,,,m,0,0.9359,,,,,,,,0.774559215,-0.499074089,0,0,0,,0,33,33,142,1,PLASK,HB,old,z,./images/PLASKHB.png,,,,,,,,,,,,,,,,,,,,,,,,,,,,,,,,,,,
,,,,,,,,,,,,,,,,,5e9a85acff642f1158b7d33d,32,2022-02-12_18h33.23.804,lexical_decision_task_DD,2021.2.3,Linux x86_64,60.08171113,,,,,,,,,,,0.6628,1,,,,,,,,,,,,,,m,1,0.6628,,,,,,,,0.774559215,-0.499074089,0,0,0,,0,34,34,41,1,STRING,LB,old,m,./images/STRINGLB.png,,,,,,,,,,,,,,,,,,,,,,,,,,,,,,,,,,,
,,,,,,,,,,,,,,,,,5e9a85acff642f1158b7d33d,32,2022-02-12_18h33.23.804,lexical_decision_task_DD,2021.2.3,Linux x86_64,60.08171113,,,,,,,,,,,0.8094,1,,,,,,,,,,,,,,z,1,0.8094,,,,,,,,0.774559215,-0.499074089,0,0,0,,0,35,35,133,1,POWDY,HB,old,z,./images/POWDYHB.png,,,,,,,,,,,,,,,,,,,,,,,,,,,,,,,,,,,
,,,,,,,,,,,,,,,,,5e9a85acff642f1158b7d33d,32,2022-02-12_18h33.23.804,lexical_decision_task_DD,2021.2.3,Linux x86_64,60.08171113,,,,,,,,,,,0.8103,1,,,,,,,,,,,,,,m,1,0.8103,,,,,,,,0.774559215,-0.499074089,0,0,0,,0,36,36,64,1,JELLY,HB,old,m,./images/JELLYHB.png,,,,,,,,,,,,,,,,,,,,,,,,,,,,,,,,,,,
,,,,,,,,,,,,,,,,,5e9a85acff642f1158b7d33d,32,2022-02-12_18h33.23.804,lexical_decision_task_DD,2021.2.3,Linux x86_64,60.08171113,,,,,,,,,,,1.2228,1,,,,,,,,,,,,,,m,1,1.2228,,,,,,,,0.774559215,-0.499074089,0,0,0,,0,37,37,73,1,SNACK,HB,old,m,./images/SNACKHB.png,,,,,,,,,,,,,,,,,,,,,,,,,,,,,,,,,,,
,,,,,,,,,,,,,,,,,5e9a85acff642f1158b7d33d,32,2022-02-12_18h33.23.804,lexical_decision_task_DD,2021.2.3,Linux x86_64,60.08171113,,,,,,,,,,,0.6253,1,,,,,,,,,,,,,,m,1,0.6253,,,,,,,,0.774559215,-0.499074089,0,0,0,,0,38,38,32,1,BARREL,LB,old,m,./images/BARRELLB.png,,,,,,,,,,,,,,,,,,,,,,,,,,,,,,,,,,,
,,,,,,,,,,,,,,,,,5e9a85acff642f1158b7d33d,32,2022-02-12_18h33.23.804,lexical_decision_task_DD,2021.2.3,Linux x86_64,60.08171113,,,,,,,,,,,0.7914,1,,,,,,,,,,,,,,z,1,0.7914,,,,,,,,0.774559215,-0.499074089,0,0,0,,0,39,39,151,1,TINKY,HB,old,z,./images/TINKYHB.png,,,,,,,,,,,,,,,,,,,,,,,,,,,,,,,,,,,
,,,,,,,,,,,,,,,,,5e9a85acff642f1158b7d33d,32,2022-02-12_18h33.23.804,lexical_decision_task_DD,2021.2.3,Linux x86_64,60.08171113,,,,,,,,,,,1.2261,1,,,,,,,,,,,,,,z,1,1.2261,,,,,,,,0.774559215,-0.499074089,0,0,0,,0,40,40,100,1,DRIBS,HB,old,z,./images/DRIBSHB.png,,,,,,,,,,,,,,,,,,,,,,,,,,,,,,,,,,,
,,,,,,,,,,,,,,,,,5e9a85acff642f1158b7d33d,32,2022-02-12_18h33.23.804,lexical_decision_task_DD,2021.2.3,Linux x86_64,60.08171113,,,,,,,,,,,0.5939,1,,,,,,,,,,,,,,m,1,0.5939,,,,,,,,0.774559215,-0.499074089,0,0,0,space,0,41,41,83,1,JUNGLE,LB,old,m,./images/JUNGLELB.png,14.9282,,,,,,,,,,,,,,,,,,,,,,,,,,,,,,,,,,
,,,,,,,,,,,,,,,,,5e9a85acff642f1158b7d33d,32,2022-02-12_18h33.23.804,lexical_decision_task_DD,2021.2.3,Linux x86_64,60.08171113,,,,,,,,,,,0.4935,1,,,,,,,,,,,,,,z,1,0.4935,,,,,,,,0.774559215,-0.499074089,0,0,0,,0,42,42,94,1,BLANS,HB,old,z,./images/BLANSHB.png,,,,,,,,,,,,,,,,,,,,,,,,,,,,,,,,,,,
,,,,,,,,,,,,,,,,,5e9a85acff642f1158b7d33d,32,2022-02-12_18h33.23.804,lexical_decision_task_DD,2021.2.3,Linux x86_64,60.08171113,,,,,,,,,,,0.799,1,,,,,,,,,,,,,,z,1,0.799,,,,,,,,0.774559215,-0.499074089,0,0,0,,0,43,43,157,1,INLER,HB,old,z,./images/INLERHB.png,,,,,,,,,,,,,,,,,,,,,,,,,,,,,,,,,,,
,,,,,,,,,,,,,,,,,5e9a85acff642f1158b7d33d,32,2022-02-12_18h33.23.804,lexical_decision_task_DD,2021.2.3,Linux x86_64,60.08171113,,,,,,,,,,,0.9941,1,,,,,,,,,,,,,,z,1,0.9941,,,,,,,,0.774559215,-0.499074089,0,0,0,,0,44,44,148,1,JOMS,HB,old,z,./images/JOMSHB.png,,,,,,,,,,,,,,,,,,,,,,,,,,,,,,,,,,,
,,,,,,,,,,,,,,,,,5e9a85acff642f1158b7d33d,32,2022-02-12_18h33.23.804,lexical_decision_task_DD,2021.2.3,Linux x86_64,60.08171113,,,,,,,,,,,0.6,1,,,,,,,,,,,,,,z,1,0.6,,,,,,,,0.774559215,-0.499074089,0,0,0,,0,45,45,156,1,HIXES,C,old,z,./images/HIXES.png,,,,,,,,,,,,,,,,,,,,,,,,,,,,,,,,,,,
,,,,,,,,,,,,,,,,,5e9a85acff642f1158b7d33d,32,2022-02-12_18h33.23.804,lexical_decision_task_DD,2021.2.3,Linux x86_64,60.08171113,,,,,,,,,,,0.5888,1,,,,,,,,,,,,,,m,1,0.5888,,,,,,,,0.774559215,-0.499074089,0,0,0,,0,46,46,48,1,SPORT,C,old,m,./images/SPORT.png,,,,,,,,,,,,,,,,,,,,,,,,,,,,,,,,,,,
,,,,,,,,,,,,,,,,,5e9a85acff642f1158b7d33d,32,2022-02-12_18h33.23.804,lexical_decision_task_DD,2021.2.3,Linux x86_64,60.08171113,,,,,,,,,,,0.6315,1,,,,,,,,,,,,,,m,1,0.6315,,,,,,,,0.774559215,-0.499074089,0,0,0,,0,47,47,65,1,FARMER,LB,old,m,./images/FARMERLB.png,,,,,,,,,,,,,,,,,,,,,,,,,,,,,,,,,,,
,,,,,,,,,,,,,,,,,5e9a85acff642f1158b7d33d,32,2022-02-12_18h33.23.804,lexical_decision_task_DD,2021.2.3,Linux x86_64,60.08171113,,,,,,,,,,,0.7424,1,,,,,,,,,,,,,,m,1,0.7424,,,,,,,,0.774559215,-0.499074089,0,0,0,,0,48,48,19,1,DOUGH,HB,old,m,./images/DOUGHHB.png,,,,,,,,,,,,,,,,,,,,,,,,,,,,,,,,,,,
,,,,,,,,,,,,,,,,,5e9a85acff642f1158b7d33d,32,2022-02-12_18h33.23.804,lexical_decision_task_DD,2021.2.3,Linux x86_64,60.08171113,,,,,,,,,,,0.5416,1,,,,,,,,,,,,,,m,1,0.5416,,,,,,,,0.774559215,-0.499074089,0,0,0,,0,49,49,59,1,BURIAL,LB,old,m,./images/BURIALLB.png,,,,,,,,,,,,,,,,,,,,,,,,,,,,,,,,,,,
,,,,,,,,,,,,,,,,,5e9a85acff642f1158b7d33d,32,2022-02-12_18h33.23.804,lexical_decision_task_DD,2021.2.3,Linux x86_64,60.08171113,,,,,,,,,,,0.6196,1,,,,,,,,,,,,,,m,1,0.6196,,,,,,,,0.774559215,-0.499074089,0,0,0,,0,50,50,81,1,POODLE,C,old,m,./images/POODLE.png,,,,,,,,,,,,,,,,,,,,,,,,,,,,,,,,,,,
,,,,,,,,,,,,,,,,,5e9a85acff642f1158b7d33d,32,2022-02-12_18h33.23.804,lexical_decision_task_DD,2021.2.3,Linux x86_64,60.08171113,,,,,,,,,,,0.5263,1,,,,,,,,,,,,,,m,1,0.5263,,,,,,,,0.774559215,-0.499074089,0,0,0,,0,51,51,74,1,CEMENT,LB,old,m,./images/CEMENTLB.png,,,,,,,,,,,,,,,,,,,,,,,,,,,,,,,,,,,
,,,,,,,,,,,,,,,,,5e9a85acff642f1158b7d33d,32,2022-02-12_18h33.23.804,lexical_decision_task_DD,2021.2.3,Linux x86_64,60.08171113,,,,,,,,,,,0.4747,1,,,,,,,,,,,,,,m,1,0.4747,,,,,,,,0.774559215,-0.499074089,0,0,0,,0,52,52,3,1,FINGER,C,old,m,./images/FINGER.png,,,,,,,,,,,,,,,,,,,,,,,,,,,,,,,,,,,
,,,,,,,,,,,,,,,,,5e9a85acff642f1158b7d33d,32,2022-02-12_18h33.23.804,lexical_decision_task_DD,2021.2.3,Linux x86_64,60.08171113,,,,,,,,,,,0.4866,1,,,,,,,,,,,,,,m,1,0.4866,,,,,,,,0.774559215,-0.499074089,0,0,0,,0,53,53,30,1,STORM,C,old,m,./images/STORM.png,,,,,,,,,,,,,,,,,,,,,,,,,,,,,,,,,,,
,,,,,,,,,,,,,,,,,5e9a85acff642f1158b7d33d,32,2022-02-12_18h33.23.804,lexical_decision_task_DD,2021.2.3,Linux x86_64,60.08171113,,,,,,,,,,,0.5107,1,,,,,,,,,,,,,,z,1,0.5107,,,,,,,,0.774559215,-0.499074089,0,0,0,,0,54,54,116,1,BALGY,LB,old,z,./images/BALGYLB.png,,,,,,,,,,,,,,,,,,,,,,,,,,,,,,,,,,,
,,,,,,,,,,,,,,,,,5e9a85acff642f1158b7d33d,32,2022-02-12_18h33.23.804,lexical_decision_task_DD,2021.2.3,Linux x86_64,60.08171113,,,,,,,,,,,0.6092,1,,,,,,,,,,,,,,z,1,0.6092,,,,,,,,0.774559215,-0.499074089,0,0,0,,0,55,55,91,1,SHENS,HB,old,z,./images/SHENSHB.png,,,,,,,,,,,,,,,,,,,,,,,,,,,,,,,,,,,
,,,,,,,,,,,,,,,,,5e9a85acff642f1158b7d33d,32,2022-02-12_18h33.23.804,lexical_decision_task_DD,2021.2.3,Linux x86_64,60.08171113,,,,,,,,,,,0.6293,1,,,,,,,,,,,,,,m,1,0.6293,,,,,,,,0.774559215,-0.499074089,0,0,0,,0,56,56,71,1,PIMPLE,LB,old,m,./images/PIMPLELB.png,,,,,,,,,,,,,,,,,,,,,,,,,,,,,,,,,,,
,,,,,,,,,,,,,,,,,5e9a85acff642f1158b7d33d,32,2022-02-12_18h33.23.804,lexical_decision_task_DD,2021.2.3,Linux x86_64,60.08171113,,,,,,,,,,,0.5838,1,,,,,,,,,,,,,,m,1,0.5838,,,,,,,,0.774559215,-0.499074089,0,0,0,,0,57,57,12,1,SHORE,C,old,m,./images/SHORE.png,,,,,,,,,,,,,,,,,,,,,,,,,,,,,,,,,,,
,,,,,,,,,,,,,,,,,5e9a85acff642f1158b7d33d,32,2022-02-12_18h33.23.804,lexical_decision_task_DD,2021.2.3,Linux x86_64,60.08171113,,,,,,,,,,,0.6271,1,,,,,,,,,,,,,,z,1,0.6271,,,,,,,,0.774559215,-0.499074089,0,0,0,,0,58,58,160,1,VEETS,HB,old,z,./images/VEETSHB.png,,,,,,,,,,,,,,,,,,,,,,,,,,,,,,,,,,,
,,,,,,,,,,,,,,,,,5e9a85acff642f1158b7d33d,32,2022-02-12_18h33.23.804,lexical_decision_task_DD,2021.2.3,Linux x86_64,60.08171113,,,,,,,,,,,0.5904,1,,,,,,,,,,,,,,m,1,0.5904,,,,,,,,0.774559215,-0.499074089,0,0,0,,0,59,59,33,1,MAGGOT,C,old,m,./images/MAGGOT.png,,,,,,,,,,,,,,,,,,,,,,,,,,,,,,,,,,,
,,,,,,,,,,,,,,,,,5e9a85acff642f1158b7d33d,32,2022-02-12_18h33.23.804,lexical_decision_task_DD,2021.2.3,Linux x86_64,60.08171113,,,,,,,,,,,0.5524,1,,,,,,,,,,,,,,m,1,0.5524,,,,,,,,0.774559215,-0.499074089,0,0,0,,0,60,60,45,1,KITTEN,C,old,m,./images/KITTEN.png,,,,,,,,,,,,,,,,,,,,,,,,,,,,,,,,,,,
,,,,,,,,,,,,,,,,,5e9a85acff642f1158b7d33d,32,2022-02-12_18h33.23.804,lexical_decision_task_DD,2021.2.3,Linux x86_64,60.08171113,,,,,,,,,,,0.8999,1,,,,,,,,,,,,,,m,1,0.8999,,,,,,,,0.773717721,-0.499074089,0,0,0,,0,61,61,82,1,SUNSET,HB,old,m,./images/SUNSETHB.png,,,,,,,,,,,,,,,,,,,,,,,,,,,,,,,,,,,
,,,,,,,,,,,,,,,,,5e9a85acff642f1158b7d33d,32,2022-02-12_18h33.23.804,lexical_decision_task_DD,2021.2.3,Linux x86_64,60.08171113,,,,,,,,,,,0.6584,1,,,,,,,,,,,,,,z,1,0.6584,,,,,,,,0.773717721,-0.499074089,0,0,0,,0,62,62,120,1,RINED,C,old,z,./images/RINED.png,,,,,,,,,,,,,,,,,,,,,,,,,,,,,,,,,,,
,,,,,,,,,,,,,,,,,5e9a85acff642f1158b7d33d,32,2022-02-12_18h33.23.804,lexical_decision_task_DD,2021.2.3,Linux x86_64,60.08171113,,,,,,,,,,,1.0939,0,,,,,,,,,,,,,,z,0,1.0939,,,,,,,,0.773717721,-0.499074089,0,0,0,,0,63,63,22,1,MELON,HB,old,m,./images/MELONHB.png,,,,,,,,,,,,,,,,,,,,,,,,,,,,,,,,,,,
,,,,,,,,,,,,,,,,,5e9a85acff642f1158b7d33d,32,2022-02-12_18h33.23.804,lexical_decision_task_DD,2021.2.3,Linux x86_64,60.08171113,,,,,,,,,,,0.8195,1,,,,,,,,,,,,,,m,1,0.8195,,,,,,,,0.773717721,-0.499074089,0,0,0,,0,64,64,28,1,FALCON,HB,old,m,./images/FALCONHB.png,,,,,,,,,,,,,,,,,,,,,,,,,,,,,,,,,,,
,,,,,,,,,,,,,,,,,5e9a85acff642f1158b7d33d,32,2022-02-12_18h33.23.804,lexical_decision_task_DD,2021.2.3,Linux x86_64,60.08171113,,,,,,,,,,,0.7124,1,,,,,,,,,,,,,,z,1,0.7124,,,,,,,,0.773717721,-0.499074089,0,0,0,,0,65,65,92,1,PAIMS,LB,old,z,./images/PAIMSLB.png,,,,,,,,,,,,,,,,,,,,,,,,,,,,,,,,,,,
,,,,,,,,,,,,,,,,,5e9a85acff642f1158b7d33d,32,2022-02-12_18h33.23.804,lexical_decision_task_DD,2021.2.3,Linux x86_64,60.08171113,,,,,,,,,,,0.5523,1,,,,,,,,,,,,,,m,1,0.5523,,,,,,,,0.773717721,-0.499074089,0,0,0,,0,66,66,27,1,ATTIC,C,old,m,./images/ATTIC.png,,,,,,,,,,,,,,,,,,,,,,,,,,,,,,,,,,,
,,,,,,,,,,,,,,,,,5e9a85acff642f1158b7d33d,32,2022-02-12_18h33.23.804,lexical_decision_task_DD,2021.2.3,Linux x86_64,60.08171113,,,,,,,,,,,0.9655,1,,,,,,,,,,,,,,m,1,0.9655,,,,,,,,0.773717721,-0.499074089,0,0,0,,0,67,67,24,1,SCREW,C,old,m,./images/SCREW.png,,,,,,,,,,,,,,,,,,,,,,,,,,,,,,,,,,,
,,,,,,,,,,,,,,,,,5e9a85acff642f1158b7d33d,32,2022-02-12_18h33.23.804,lexical_decision_task_DD,2021.2.3,Linux x86_64,60.08171113,,,,,,,,,,,0.9423,1,,,,,,,,,,,,,,m,1,0.9423,,,,,,,,0.773717721,-0.499074089,0,0,0,,0,68,68,35,1,PEACH,LB,old,m,./images/PEACHLB.png,,,,,,,,,,,,,,,,,,,,,,,,,,,,,,,,,,,
,,,,,,,,,,,,,,,,,5e9a85acff642f1158b7d33d,32,2022-02-12_18h33.23.804,lexical_decision_task_DD,2021.2.3,Linux x86_64,60.08171113,,,,,,,,,,,0.7285,1,,,,,,,,,,,,,,z,1,0.7285,,,,,,,,0.773717721,-0.499074089,0,0,0,,0,69,69,112,1,MYING,HB,old,z,./images/MYINGHB.png,,,,,,,,,,,,,,,,,,,,,,,,,,,,,,,,,,,
,,,,,,,,,,,,,,,,,5e9a85acff642f1158b7d33d,32,2022-02-12_18h33.23.804,lexical_decision_task_DD,2021.2.3,Linux x86_64,60.08171113,,,,,,,,,,,0.6585,1,,,,,,,,,,,,,,z,1,0.6585,,,,,,,,0.773717721,-0.499074089,0,0,0,,0,70,70,141,1,PLEET,C,old,z,./images/PLEET.png,,,,,,,,,,,,,,,,,,,,,,,,,,,,,,,,,,,
,,,,,,,,,,,,,,,,,5e9a85acff642f1158b7d33d,32,2022-02-12_18h33.23.804,lexical_decision_task_DD,2021.2.3,Linux x86_64,60.08171113,,,,,,,,,,,0.5776,1,,,,,,,,,,,,,,m,1,0.5776,,,,,,,,0.773717721,-0.499074089,0,0,0,,0,71,71,77,1,COUCH,LB,old,m,./images/COUCHLB.png,,,,,,,,,,,,,,,,,,,,,,,,,,,,,,,,,,,
,,,,,,,,,,,,,,,,,5e9a85acff642f1158b7d33d,32,2022-02-12_18h33.23.804,lexical_decision_task_DD,2021.2.3,Linux x86_64,60.08171113,,,,,,,,,,,0.8071,1,,,,,,,,,,,,,,z,1,0.8071,,,,,,,,0.773717721,-0.499074089,0,0,0,,0,72,72,90,1,NEAST,C,old,z,./images/NEAST.png,,,,,,,,,,,,,,,,,,,,,,,,,,,,,,,,,,,
,,,,,,,,,,,,,,,,,5e9a85acff642f1158b7d33d,32,2022-02-12_18h33.23.804,lexical_decision_task_DD,2021.2.3,Linux x86_64,60.08171113,,,,,,,,,,,0.5849,1,,,,,,,,,,,,,,m,1,0.5849,,,,,,,,0.773717721,-0.499074089,0,0,0,,0,73,73,26,1,SMOKER,LB,old,m,./images/SMOKERLB.png,,,,,,,,,,,,,,,,,,,,,,,,,,,,,,,,,,,
,,,,,,,,,,,,,,,,,5e9a85acff642f1158b7d33d,32,2022-02-12_18h33.23.804,lexical_decision_task_DD,2021.2.3,Linux x86_64,60.08171113,,,,,,,,,,,0.6962,1,,,,,,,,,,,,,,z,1,0.6962,,,,,,,,0.773717721,-0.499074089,0,0,0,,0,74,74,103,1,FLORT,HB,old,z,./images/FLORTHB.png,,,,,,,,,,,,,,,,,,,,,,,,,,,,,,,,,,,
,,,,,,,,,,,,,,,,,5e9a85acff642f1158b7d33d,32,2022-02-12_18h33.23.804,lexical_decision_task_DD,2021.2.3,Linux x86_64,60.08171113,,,,,,,,,,,1.2289,0,,,,,,,,,,,,,,z,0,1.2289,,,,,,,,0.773717721,-0.499074089,0,0,0,,0,75,75,52,1,BANNER,HB,old,m,./images/BANNERHB.png,,,,,,,,,,,,,,,,,,,,,,,,,,,,,,,,,,,
,,,,,,,,,,,,,,,,,5e9a85acff642f1158b7d33d,32,2022-02-12_18h33.23.804,lexical_decision_task_DD,2021.2.3,Linux x86_64,60.08171113,,,,,,,,,,,0.5575,1,,,,,,,,,,,,,,m,1,0.5575,,,,,,,,0.773717721,-0.499074089,0,0,0,,0,76,76,8,1,TULIP,LB,old,m,./images/TULIPLB.png,,,,,,,,,,,,,,,,,,,,,,,,,,,,,,,,,,,
,,,,,,,,,,,,,,,,,5e9a85acff642f1158b7d33d,32,2022-02-12_18h33.23.804,lexical_decision_task_DD,2021.2.3,Linux x86_64,60.08171113,,,,,,,,,,,0.6404,0,,,,,,,,,,,,,,z,0,0.6404,,,,,,,,0.773717721,-0.499074089,0,0,0,,0,77,77,67,1,SAILOR,HB,old,m,./images/SAILORHB.png,,,,,,,,,,,,,,,,,,,,,,,,,,,,,,,,,,,
,,,,,,,,,,,,,,,,,5e9a85acff642f1158b7d33d,32,2022-02-12_18h33.23.804,lexical_decision_task_DD,2021.2.3,Linux x86_64,60.08171113,,,,,,,,,,,0.8132,1,,,,,,,,,,,,,,z,1,0.8132,,,,,,,,0.773717721,-0.499074089,0,0,0,,0,78,78,136,1,WERVE,HB,old,z,./images/WERVEHB.png,,,,,,,,,,,,,,,,,,,,,,,,,,,,,,,,,,,
,,,,,,,,,,,,,,,,,5e9a85acff642f1158b7d33d,32,2022-02-12_18h33.23.804,lexical_decision_task_DD,2021.2.3,Linux x86_64,60.08171113,,,,,,,,,,,0.558,1,,,,,,,,,,,,,,m,1,0.558,,,,,,,,0.773717721,-0.499074089,0,0,0,,0,79,79,69,1,COOKER,C,old,m,./images/COOKER.png,,,,,,,,,,,,,,,,,,,,,,,,,,,,,,,,,,,
,,,,,,,,,,,,,,,,,5e9a85acff642f1158b7d33d,32,2022-02-12_18h33.23.804,lexical_decision_task_DD,2021.2.3,Linux x86_64,60.08171113,,,,,,,,,,,0.6633,1,,,,,,,,,,,,,,m,1,0.6633,,,,,,,,0.773717721,-0.499074089,0,0,0,,0,80,80,80,1,WEASEL,LB,old,m,./images/WEASELLB.png,,,,,,,,,,,,,,,,,,,,,,,,,,,,,,,,,,,
,,,,,,,,,,,,,,,,,5e9a85acff642f1158b7d33d,32,2022-02-12_18h33.23.804,lexical_decision_task_DD,2021.2.3,Linux x86_64,60.08171113,,,,,,,,,,,0.6787,1,,,,,,,,,,,,,,m,1,0.6787,,,,,,,,0.773717721,-0.499074089,0,0,0,,0,81,81,13,1,MOTOR,HB,old,m,./images/MOTORHB.png,,,,,,,,,,,,,,,,,,,,,,,,,,,,,,,,,,,
,,,,,,,,,,,,,,,,,5e9a85acff642f1158b7d33d,32,2022-02-12_18h33.23.804,lexical_decision_task_DD,2021.2.3,Linux x86_64,60.08171113,,,,,,,,,,,0.6086,1,,,,,,,,,,,,,,m,1,0.6086,,,,,,,,0.773717721,-0.499074089,0,0,0,,0,82,82,14,1,PICKLE,LB,old,m,./images/PICKLELB.png,,,,,,,,,,,,,,,,,,,,,,,,,,,,,,,,,,,
,,,,,,,,,,,,,,,,,5e9a85acff642f1158b7d33d,32,2022-02-12_18h33.23.804,lexical_decision_task_DD,2021.2.3,Linux x86_64,60.08171113,,,,,,,,,,,0.5764,1,,,,,,,,,,,,,,z,1,0.5764,,,,,,,,0.766212318,-0.499074089,0,0,0,space,0,83,83,146,1,MOOST,LB,old,z,./images/MOOSTLB.png,55.93,,,,,,,,,,,,,,,,,,,,,,,,,,,,,,,,,,
,,,,,,,,,,,,,,,,,5e9a85acff642f1158b7d33d,32,2022-02-12_18h33.23.804,lexical_decision_task_DD,2021.2.3,Linux x86_64,60.08171113,,,,,,,,,,,0.6078,0,,,,,,,,,,,,,,z,0,0.6078,,,,,,,,0.766212318,-0.499074089,0,0,0,,0,84,84,16,1,PENCE,HB,old,m,./images/PENCEHB.png,,,,,,,,,,,,,,,,,,,,,,,,,,,,,,,,,,,
,,,,,,,,,,,,,,,,,5e9a85acff642f1158b7d33d,32,2022-02-12_18h33.23.804,lexical_decision_task_DD,2021.2.3,Linux x86_64,60.08171113,,,,,,,,,,,0.7947,1,,,,,,,,,,,,,,m,1,0.7947,,,,,,,,0.766212318,-0.499074089,0,0,0,,0,85,85,79,1,CRUST,HB,old,m,./images/CRUSTHB.png,,,,,,,,,,,,,,,,,,,,,,,,,,,,,,,,,,,
,,,,,,,,,,,,,,,,,5e9a85acff642f1158b7d33d,32,2022-02-12_18h33.23.804,lexical_decision_task_DD,2021.2.3,Linux x86_64,60.08171113,,,,,,,,,,,0.5833,1,,,,,,,,,,,,,,m,1,0.5833,,,,,,,,0.766212318,-0.499074089,0,0,0,,0,86,86,15,1,GREASE,C,old,m,./images/GREASE.png,,,,,,,,,,,,,,,,,,,,,,,,,,,,,,,,,,,
,,,,,,,,,,,,,,,,,5e9a85acff642f1158b7d33d,32,2022-02-12_18h33.23.804,lexical_decision_task_DD,2021.2.3,Linux x86_64,60.08171113,,,,,,,,,,,0.5269,1,,,,,,,,,,,,,,z,1,0.5269,,,,,,,,0.766212318,-0.499074089,0,0,0,,0,87,87,99,1,BACKY,C,old,z,./images/BACKY.png,,,,,,,,,,,,,,,,,,,,,,,,,,,,,,,,,,,
,,,,,,,,,,,,,,,,,5e9a85acff642f1158b7d33d,32,2022-02-12_18h33.23.804,lexical_decision_task_DD,2021.2.3,Linux x86_64,60.08171113,,,,,,,,,,,0.5842,0,,,,,,,,,,,,,,m,0,0.5842,,,,,,,,0.766212318,-0.499074089,0,0,0,,0,88,88,98,1,BAMPS,LB,old,z,./images/BAMPSLB.png,,,,,,,,,,,,,,,,,,,,,,,,,,,,,,,,,,,
,,,,,,,,,,,,,,,,,5e9a85acff642f1158b7d33d,32,2022-02-12_18h33.23.804,lexical_decision_task_DD,2021.2.3,Linux x86_64,60.08171113,,,,,,,,,,,0.505,1,,,,,,,,,,,,,,z,1,0.505,,,,,,,,0.766212318,-0.499074089,0,0,0,,0,89,89,137,1,JOOST,LB,old,z,./images/JOOSTLB.png,,,,,,,,,,,,,,,,,,,,,,,,,,,,,,,,,,,
,,,,,,,,,,,,,,,,,5e9a85acff642f1158b7d33d,32,2022-02-12_18h33.23.804,lexical_decision_task_DD,2021.2.3,Linux x86_64,60.08171113,,,,,,,,,,,0.6434,1,,,,,,,,,,,,,,z,1,0.6434,,,,,,,,0.766212318,-0.499074089,0,0,0,,0,90,90,162,1,LEICH,C,old,z,./images/LEICH.png,,,,,,,,,,,,,,,,,,,,,,,,,,,,,,,,,,,
,,,,,,,,,,,,,,,,,5e9a85acff642f1158b7d33d,32,2022-02-12_18h33.23.804,lexical_decision_task_DD,2021.2.3,Linux x86_64,60.08171113,,,,,,,,,,,0.5888,1,,,,,,,,,,,,,,m,1,0.5888,,,,,,,,0.766212318,-0.499074089,0,0,0,,0,91,91,75,1,GRAIN,C,old,m,./images/GRAIN.png,,,,,,,,,,,,,,,,,,,,,,,,,,,,,,,,,,,
,,,,,,,,,,,,,,,,,5e9a85acff642f1158b7d33d,32,2022-02-12_18h33.23.804,lexical_decision_task_DD,2021.2.3,Linux x86_64,60.08171113,,,,,,,,,,,1.0379,1,,,,,,,,,,,,,,m,1,1.0379,,,,,,,,0.766212318,-0.499074089,0,0,0,,0,92,92,4,1,MUSCLE,HB,old,m,./images/MUSCLEHB.png,,,,,,,,,,,,,,,,,,,,,,,,,,,,,,,,,,,
,,,,,,,,,,,,,,,,,5e9a85acff642f1158b7d33d,32,2022-02-12_18h33.23.804,lexical_decision_task_DD,2021.2.3,Linux x86_64,60.08171113,,,,,,,,,,,0.519,1,,,,,,,,,,,,,,z,1,0.519,,,,,,,,0.766212318,-0.499074089,0,0,0,,0,93,93,101,1,GLEET,LB,old,z,./images/GLEETLB.png,,,,,,,,,,,,,,,,,,,,,,,,,,,,,,,,,,,
,,,,,,,,,,,,,,,,,5e9a85acff642f1158b7d33d,32,2022-02-12_18h33.23.804,lexical_decision_task_DD,2021.2.3,Linux x86_64,60.08171113,,,,,,,,,,,0.5617,1,,,,,,,,,,,,,,z,1,0.5617,,,,,,,,0.766212318,-0.499074089,0,0,0,,0,94,94,89,1,DRIEK,LB,old,z,./images/DRIEKLB.png,,,,,,,,,,,,,,,,,,,,,,,,,,,,,,,,,,,
,,,,,,,,,,,,,,,,,5e9a85acff642f1158b7d33d,32,2022-02-12_18h33.23.804,lexical_decision_task_DD,2021.2.3,Linux x86_64,60.08171113,,,,,,,,,,,0.98,1,,,,,,,,,,,,,,z,1,0.98,,,,,,,,0.766212318,-0.499074089,0,0,0,,0,95,95,139,1,BLEAR,HB,old,z,./images/BLEARHB.png,,,,,,,,,,,,,,,,,,,,,,,,,,,,,,,,,,,
,,,,,,,,,,,,,,,,,5e9a85acff642f1158b7d33d,32,2022-02-12_18h33.23.804,lexical_decision_task_DD,2021.2.3,Linux x86_64,60.08171113,,,,,,,,,,,0.6686,1,,,,,,,,,,,,,,m,1,0.6686,,,,,,,,0.766212318,-0.499074089,0,0,0,,0,96,96,2,1,BEARD,LB,old,m,./images/BEARDLB.png,,,,,,,,,,,,,,,,,,,,,,,,,,,,,,,,,,,
,,,,,,,,,,,,,,,,,5e9a85acff642f1158b7d33d,32,2022-02-12_18h33.23.804,lexical_decision_task_DD,2021.2.3,Linux x86_64,60.08171113,,,,,,,,,,,0.6447,1,,,,,,,,,,,,,,m,1,0.6447,,,,,,,,0.766212318,-0.499074089,0,0,0,,0,97,97,54,1,TRIPOD,C,old,m,./images/TRIPOD.png,,,,,,,,,,,,,,,,,,,,,,,,,,,,,,,,,,,
,,,,,,,,,,,,,,,,,5e9a85acff642f1158b7d33d,32,2022-02-12_18h33.23.804,lexical_decision_task_DD,2021.2.3,Linux x86_64,60.08171113,,,,,,,,,,,0.568,1,,,,,,,,,,,,,,m,1,0.568,,,,,,,,0.766212318,-0.499074089,0,0,0,,0,98,98,51,1,ONION,C,old,m,./images/ONION.png,,,,,,,,,,,,,,,,,,,,,,,,,,,,,,,,,,,
,,,,,,,,,,,,,,,,,5e9a85acff642f1158b7d33d,32,2022-02-12_18h33.23.804,lexical_decision_task_DD,2021.2.3,Linux x86_64,60.08171113,,,,,,,,,,,0.7453,1,,,,,,,,,,,,,,m,1,0.7453,,,,,,,,0.766212318,-0.499074089,0,0,0,,0,99,99,70,1,URINE,HB,old,m,./images/URINEHB.png,,,,,,,,,,,,,,,,,,,,,,,,,,,,,,,,,,,
,,,,,,,,,,,,,,,,,5e9a85acff642f1158b7d33d,32,2022-02-12_18h33.23.804,lexical_decision_task_DD,2021.2.3,Linux x86_64,60.08171113,,,,,,,,,,,0.6008,1,,,,,,,,,,,,,,z,1,0.6008,,,,,,,,0.766212318,-0.499074089,0,0,0,,0,100,100,111,1,HOSSE,C,old,z,./images/HOSSE.png,,,,,,,,,,,,,,,,,,,,,,,,,,,,,,,,,,,
,,,,,,,,,,,,,,,,,5e9a85acff642f1158b7d33d,32,2022-02-12_18h33.23.804,lexical_decision_task_DD,2021.2.3,Linux x86_64,60.08171113,,,,,,,,,,,0.849,1,,,,,,,,,,,,,,z,1,0.849,,,,,,,,0.766212318,-0.499074089,0,0,0,,0,101,101,159,1,CUDDY,C,old,z,./images/CUDDY.png,,,,,,,,,,,,,,,,,,,,,,,,,,,,,,,,,,,
,,,,,,,,,,,,,,,,,5e9a85acff642f1158b7d33d,32,2022-02-12_18h33.23.804,lexical_decision_task_DD,2021.2.3,Linux x86_64,60.08171113,,,,,,,,,,,0.6924,1,,,,,,,,,,,,,,z,1,0.6924,,,,,,,,0.766212318,-0.499074089,0,0,0,,0,102,102,121,1,CEERS,HB,old,z,./images/CEERSHB.png,,,,,,,,,,,,,,,,,,,,,,,,,,,,,,,,,,,
,,,,,,,,,,,,,,,,,5e9a85acff642f1158b7d33d,32,2022-02-12_18h33.23.804,lexical_decision_task_DD,2021.2.3,Linux x86_64,60.08171113,,,,,,,,,,,0.5568,1,,,,,,,,,,,,,,z,1,0.5568,,,,,,,,0.766212318,-0.499074089,0,0,0,,0,103,103,126,1,GUELS,C,old,z,./images/GUELS.png,,,,,,,,,,,,,,,,,,,,,,,,,,,,,,,,,,,
,,,,,,,,,,,,,,,,,5e9a85acff642f1158b7d33d,32,2022-02-12_18h33.23.804,lexical_decision_task_DD,2021.2.3,Linux x86_64,60.08171113,,,,,,,,,,,0.6091,1,,,,,,,,,,,,,,z,1,0.6091,,,,,,,,0.766212318,-0.499074089,0,0,0,,0,104,104,150,1,NOOLS,C,old,z,./images/NOOLS.png,,,,,,,,,,,,,,,,,,,,,,,,,,,,,,,,,,,
,,,,,,,,,,,,,,,,,5e9a85acff642f1158b7d33d,32,2022-02-12_18h33.23.804,lexical_decision_task_DD,2021.2.3,Linux x86_64,60.08171113,,,,,,,,,,,0.6191,1,,,,,,,,,,,,,,z,1,0.6191,,,,,,,,0.766212318,-0.499074089,0,0,0,,0,105,105,145,1,LAMEL,HB,old,z,./images/LAMELHB.png,,,,,,,,,,,,,,,,,,,,,,,,,,,,,,,,,,,
,,,,,,,,,,,,,,,,,5e9a85acff642f1158b7d33d,32,2022-02-12_18h33.23.804,lexical_decision_task_DD,2021.2.3,Linux x86_64,60.08171113,,,,,,,,,,,0.6508,1,,,,,,,,,,,,,,m,1,0.6508,,,,,,,,0.766212318,-0.499074089,0,0,0,,0,106,106,55,1,MUFFIN,HB,old,m,./images/MUFFINHB.png,,,,,,,,,,,,,,,,,,,,,,,,,,,,,,,,,,,
,,,,,,,,,,,,,,,,,5e9a85acff642f1158b7d33d,32,2022-02-12_18h33.23.804,lexical_decision_task_DD,2021.2.3,Linux x86_64,60.08171113,,,,,,,,,,,0.6736,1,,,,,,,,,,,,,,z,1,0.6736,,,,,,,,0.766212318,-0.499074089,0,0,0,,0,107,107,132,1,SCIFF,C,old,z,./images/SCIFF.png,,,,,,,,,,,,,,,,,,,,,,,,,,,,,,,,,,,
,,,,,,,,,,,,,,,,,5e9a85acff642f1158b7d33d,32,2022-02-12_18h33.23.804,lexical_decision_task_DD,2021.2.3,Linux x86_64,60.08171113,,,,,,,,,,,0.5059,1,,,,,,,,,,,,,,z,1,0.5059,,,,,,,,0.766212318,-0.499074089,0,0,0,,0,108,108,144,1,NAIRY,C,old,z,./images/NAIRY.png,,,,,,,,,,,,,,,,,,,,,,,,,,,,,,,,,,,
,,,,,,,,,,,,,,,,,5e9a85acff642f1158b7d33d,32,2022-02-12_18h33.23.804,lexical_decision_task_DD,2021.2.3,Linux x86_64,60.08171113,,,,,,,,,,,0.4728,1,,,,,,,,,,,,,,z,1,0.4728,,,,,,,,0.766212318,-0.499074089,0,0,0,,0,109,109,138,1,PLICE,C,old,z,./images/PLICE.png,,,,,,,,,,,,,,,,,,,,,,,,,,,,,,,,,,,
,,,,,,,,,,,,,,,,,5e9a85acff642f1158b7d33d,32,2022-02-12_18h33.23.804,lexical_decision_task_DD,2021.2.3,Linux x86_64,60.08171113,,,,,,,,,,,0.5228,1,,,,,,,,,,,,,,z,1,0.5228,,,,,,,,0.766212318,-0.499074089,0,0,0,,0,110,110,135,1,JOODY,C,old,z,./images/JOODY.png,,,,,,,,,,,,,,,,,,,,,,,,,,,,,,,,,,,
,,,,,,,,,,,,,,,,,5e9a85acff642f1158b7d33d,32,2022-02-12_18h33.23.804,lexical_decision_task_DD,2021.2.3,Linux x86_64,60.08171113,,,,,,,,,,,0.6001,1,,,,,,,,,,,,,,m,1,0.6001,,,,,,,,0.766212318,-0.499074089,0,0,0,,0,111,111,18,1,JAGUAR,C,old,m,./images/JAGUAR.png,,,,,,,,,,,,,,,,,,,,,,,,,,,,,,,,,,,
,,,,,,,,,,,,,,,,,5e9a85acff642f1158b7d33d,32,2022-02-12_18h33.23.804,lexical_decision_task_DD,2021.2.3,Linux x86_64,60.08171113,,,,,,,,,,,0.7577,1,,,,,,,,,,,,,,m,1,0.7577,,,,,,,,0.766212318,-0.499074089,0,0,0,,0,112,112,25,1,WRIST,HB,old,m,./images/WRISTHB.png,,,,,,,,,,,,,,,,,,,,,,,,,,,,,,,,,,,
,,,,,,,,,,,,,,,,,5e9a85acff642f1158b7d33d,32,2022-02-12_18h33.23.804,lexical_decision_task_DD,2021.2.3,Linux x86_64,60.08171113,,,,,,,,,,,0.5378,1,,,,,,,,,,,,,,z,1,0.5378,,,,,,,,0.766212318,-0.499074089,0,0,0,,0,113,113,153,1,CLUPS,C,old,z,./images/CLUPS.png,,,,,,,,,,,,,,,,,,,,,,,,,,,,,,,,,,,
,,,,,,,,,,,,,,,,,5e9a85acff642f1158b7d33d,32,2022-02-12_18h33.23.804,lexical_decision_task_DD,2021.2.3,Linux x86_64,60.08171113,,,,,,,,,,,0.8476,1,,,,,,,,,,,,,,z,1,0.8476,,,,,,,,0.766212318,-0.499074089,0,0,0,,0,114,114,109,1,BURGE,HB,old,z,./images/BURGEHB.png,,,,,,,,,,,,,,,,,,,,,,,,,,,,,,,,,,,
,,,,,,,,,,,,,,,,,5e9a85acff642f1158b7d33d,32,2022-02-12_18h33.23.804,lexical_decision_task_DD,2021.2.3,Linux x86_64,60.08171113,,,,,,,,,,,0.7153,1,,,,,,,,,,,,,,m,1,0.7153,,,,,,,,0.766212318,-0.499074089,0,0,0,,0,115,115,17,1,SKIING,LB,old,m,./images/SKIINGLB.png,,,,,,,,,,,,,,,,,,,,,,,,,,,,,,,,,,,
,,,,,,,,,,,,,,,,,5e9a85acff642f1158b7d33d,32,2022-02-12_18h33.23.804,lexical_decision_task_DD,2021.2.3,Linux x86_64,60.08171113,,,,,,,,,,,1.0586,1,,,,,,,,,,,,,,m,1,1.0586,,,,,,,,0.766212318,-0.499074089,0,0,0,,0,116,116,29,1,CRUMB,LB,old,m,./images/CRUMBLB.png,,,,,,,,,,,,,,,,,,,,,,,,,,,,,,,,,,,
,,,,,,,,,,,,,,,,,5e9a85acff642f1158b7d33d,32,2022-02-12_18h33.23.804,lexical_decision_task_DD,2021.2.3,Linux x86_64,60.08171113,,,,,,,,,,,0.618,1,,,,,,,,,,,,,,m,1,0.618,,,,,,,,0.766212318,-0.499074089,0,0,0,,0,117,117,9,1,RHINO,C,old,m,./images/RHINO.png,,,,,,,,,,,,,,,,,,,,,,,,,,,,,,,,,,,
,,,,,,,,,,,,,,,,,5e9a85acff642f1158b7d33d,32,2022-02-12_18h33.23.804,lexical_decision_task_DD,2021.2.3,Linux x86_64,60.08171113,,,,,,,,,,,0.5766,1,,,,,,,,,,,,,,z,1,0.5766,,,,,,,,0.766212318,-0.499074089,0,0,0,,0,118,118,95,1,HANTY,LB,old,z,./images/HANTYLB.png,,,,,,,,,,,,,,,,,,,,,,,,,,,,,,,,,,,
,,,,,,,,,,,,,,,,,5e9a85acff642f1158b7d33d,32,2022-02-12_18h33.23.804,lexical_decision_task_DD,2021.2.3,Linux x86_64,60.08171113,,,,,,,,,,,0.6262,1,,,,,,,,,,,,,,m,1,0.6262,,,,,,,,0.766212318,-0.499074089,0,0,0,,0,119,119,37,1,BIRTH,HB,old,m,./images/BIRTHHB.png,,,,,,,,,,,,,,,,,,,,,,,,,,,,,,,,,,,
,,,,,,,,,,,,,,,,,5e9a85acff642f1158b7d33d,32,2022-02-12_18h33.23.804,lexical_decision_task_DD,2021.2.3,Linux x86_64,60.08171113,,,,,,,,,,,0.5837,1,,,,,,,,,,,,,,m,1,0.5837,,,,,,,,0.766212318,-0.499074089,0,0,0,,0,120,120,56,1,PACKET,LB,old,m,./images/PACKETLB.png,,,,,,,,,,,,,,,,,,,,,,,,,,,,,,,,,,,
,,,,,,,,,,,,,,,,,5e9a85acff642f1158b7d33d,32,2022-02-12_18h33.23.804,lexical_decision_task_DD,2021.2.3,Linux x86_64,60.08171113,,,,,,,,,,,0.5299,1,,,,,,,,,,,,,,z,1,0.5299,,,,,,,,0.766212318,-0.499074089,0,0,0,,0,121,121,167,1,ZONET,LB,old,z,./images/ZONETLB.png,,,,,,,,,,,,,,,,,,,,,,,,,,,,,,,,,,,
,,,,,,,,,,,,,,,,,5e9a85acff642f1158b7d33d,32,2022-02-12_18h33.23.804,lexical_decision_task_DD,2021.2.3,Linux x86_64,60.08171113,,,,,,,,,,,1.184,1,,,,,,,,,,,,,,z,1,1.184,,,,,,,,0.766212318,-0.499074089,0,0,0,,0,122,122,124,1,TUNCH,HB,old,z,./images/TUNCHHB.png,,,,,,,,,,,,,,,,,,,,,,,,,,,,,,,,,,,
,,,,,,,,,,,,,,,,,5e9a85acff642f1158b7d33d,32,2022-02-12_18h33.23.804,lexical_decision_task_DD,2021.2.3,Linux x86_64,60.08171113,,,,,,,,,,,0.5926,1,,,,,,,,,,,,,,z,1,0.5926,,,,,,,,0.766212318,-0.499074089,0,0,0,,0,123,123,165,1,TROWN,C,old,z,./images/TROWN.png,,,,,,,,,,,,,,,,,,,,,,,,,,,,,,,,,,,
,,,,,,,,,,,,,,,,,5e9a85acff642f1158b7d33d,32,2022-02-12_18h33.23.804,lexical_decision_task_DD,2021.2.3,Linux x86_64,60.08171113,,,,,,,,,,,0.6999,1,,,,,,,,,,,,,,m,1,0.6999,,,,,,,,0.766212318,-0.499074089,0,0,0,,0,124,124,1,1,PLANK,HB,old,m,./images/PLANKHB.png,,,,,,,,,,,,,,,,,,,,,,,,,,,,,,,,,,,
,,,,,,,,,,,,,,,,,5e9a85acff642f1158b7d33d,32,2022-02-12_18h33.23.804,lexical_decision_task_DD,2021.2.3,Linux x86_64,60.08171113,,,,,,,,,,,0.5417,1,,,,,,,,,,,,,,z,1,0.5417,,,,,,,,0.765395465,-0.499074089,0,0,0,space,0,125,125,86,1,AIFED,LB,old,z,./images/AIFEDLB.png,48.6904,,,,,,,,,,,,,,,,,,,,,,,,,,,,,,,,,,
,,,,,,,,,,,,,,,,,5e9a85acff642f1158b7d33d,32,2022-02-12_18h33.23.804,lexical_decision_task_DD,2021.2.3,Linux x86_64,60.08171113,,,,,,,,,,,0.6075,1,,,,,,,,,,,,,,z,1,0.6075,,,,,,,,0.765395465,-0.499074089,0,0,0,,0,126,126,152,1,FRAIN,LB,old,z,./images/FRAINLB.png,,,,,,,,,,,,,,,,,,,,,,,,,,,,,,,,,,,
,,,,,,,,,,,,,,,,,5e9a85acff642f1158b7d33d,32,2022-02-12_18h33.23.804,lexical_decision_task_DD,2021.2.3,Linux x86_64,60.08171113,,,,,,,,,,,0.4908,1,,,,,,,,,,,,,,z,1,0.4908,,,,,,,,0.765395465,-0.499074089,0,0,0,,0,127,127,128,1,GRIFT,LB,old,z,./images/GRIFTLB.png,,,,,,,,,,,,,,,,,,,,,,,,,,,,,,,,,,,
,,,,,,,,,,,,,,,,,5e9a85acff642f1158b7d33d,32,2022-02-12_18h33.23.804,lexical_decision_task_DD,2021.2.3,Linux x86_64,60.08171113,,,,,,,,,,,0.592,1,,,,,,,,,,,,,,z,1,0.592,,,,,,,,0.765395465,-0.499074089,0,0,0,,0,128,128,125,1,MOOKY,LB,old,z,./images/MOOKYLB.png,,,,,,,,,,,,,,,,,,,,,,,,,,,,,,,,,,,
,,,,,,,,,,,,,,,,,5e9a85acff642f1158b7d33d,32,2022-02-12_18h33.23.804,lexical_decision_task_DD,2021.2.3,Linux x86_64,60.08171113,,,,,,,,,,,0.7626,1,,,,,,,,,,,,,,z,1,0.7626,,,,,,,,0.765395465,-0.499074089,0,0,0,,0,129,129,154,1,THINT,HB,old,z,./images/THINTHB.png,,,,,,,,,,,,,,,,,,,,,,,,,,,,,,,,,,,
,,,,,,,,,,,,,,,,,5e9a85acff642f1158b7d33d,32,2022-02-12_18h33.23.804,lexical_decision_task_DD,2021.2.3,Linux x86_64,60.08171113,,,,,,,,,,,0.5524,1,,,,,,,,,,,,,,z,1,0.5524,,,,,,,,0.765395465,-0.499074089,0,0,0,,0,130,130,122,1,BLOOT,LB,old,z,./images/BLOOTLB.png,,,,,,,,,,,,,,,,,,,,,,,,,,,,,,,,,,,
,,,,,,,,,,,,,,,,,5e9a85acff642f1158b7d33d,32,2022-02-12_18h33.23.804,lexical_decision_task_DD,2021.2.3,Linux x86_64,60.08171113,,,,,,,,,,,0.9837,1,,,,,,,,,,,,,,z,1,0.9837,,,,,,,,0.765395465,-0.499074089,0,0,0,,0,131,131,106,1,CLUMS,HB,old,z,./images/CLUMSHB.png,,,,,,,,,,,,,,,,,,,,,,,,,,,,,,,,,,,
,,,,,,,,,,,,,,,,,5e9a85acff642f1158b7d33d,32,2022-02-12_18h33.23.804,lexical_decision_task_DD,2021.2.3,Linux x86_64,60.08171113,,,,,,,,,,,0.9361,1,,,,,,,,,,,,,,z,1,0.9361,,,,,,,,0.765395465,-0.499074089,0,0,0,,0,132,132,127,1,NINDY,HB,old,z,./images/NINDYHB.png,,,,,,,,,,,,,,,,,,,,,,,,,,,,,,,,,,,
,,,,,,,,,,,,,,,,,5e9a85acff642f1158b7d33d,32,2022-02-12_18h33.23.804,lexical_decision_task_DD,2021.2.3,Linux x86_64,60.08171113,,,,,,,,,,,0.6764,1,,,,,,,,,,,,,,z,1,0.6764,,,,,,,,0.765395465,-0.499074089,0,0,0,,0,133,133,163,1,GAMBA,HB,old,z,./images/GAMBAHB.png,,,,,,,,,,,,,,,,,,,,,,,,,,,,,,,,,,,
,,,,,,,,,,,,,,,,,5e9a85acff642f1158b7d33d,32,2022-02-12_18h33.23.804,lexical_decision_task_DD,2021.2.3,Linux x86_64,60.08171113,,,,,,,,,,,0.6107,1,,,,,,,,,,,,,,m,1,0.6107,,,,,,,,0.765395465,-0.499074089,0,0,0,,0,134,134,6,1,SQUARE,C,old,m,./images/SQUARE.png,,,,,,,,,,,,,,,,,,,,,,,,,,,,,,,,,,,
,,,,,,,,,,,,,,,,,5e9a85acff642f1158b7d33d,32,2022-02-12_18h33.23.804,lexical_decision_task_DD,2021.2.3,Linux x86_64,60.08171113,,,,,,,,,,,0.5523,1,,,,,,,,,,,,,,m,1,0.5523,,,,,,,,0.765395465,-0.499074089,0,0,0,,0,135,135,44,1,LIZARD,LB,old,m,./images/LIZARDLB.png,,,,,,,,,,,,,,,,,,,,,,,,,,,,,,,,,,,
,,,,,,,,,,,,,,,,,5e9a85acff642f1158b7d33d,32,2022-02-12_18h33.23.804,lexical_decision_task_DD,2021.2.3,Linux x86_64,60.08171113,,,,,,,,,,,0.5063,1,,,,,,,,,,,,,,z,1,0.5063,,,,,,,,0.765395465,-0.499074089,0,0,0,,0,136,136,105,1,MOKER,C,old,z,./images/MOKER.png,,,,,,,,,,,,,,,,,,,,,,,,,,,,,,,,,,,
,,,,,,,,,,,,,,,,,5e9a85acff642f1158b7d33d,32,2022-02-12_18h33.23.804,lexical_decision_task_DD,2021.2.3,Linux x86_64,60.08171113,,,,,,,,,,,0.5853,1,,,,,,,,,,,,,,z,1,0.5853,,,,,,,,0.765395465,-0.499074089,0,0,0,,0,137,137,96,1,KEAMS,C,old,z,./images/KEAMS.png,,,,,,,,,,,,,,,,,,,,,,,,,,,,,,,,,,,
,,,,,,,,,,,,,,,,,5e9a85acff642f1158b7d33d,32,2022-02-12_18h33.23.804,lexical_decision_task_DD,2021.2.3,Linux x86_64,60.08171113,,,,,,,,,,,0.5674,1,,,,,,,,,,,,,,m,1,0.5674,,,,,,,,0.765395465,-0.499074089,0,0,0,,0,138,138,62,1,PURSE,LB,old,m,./images/PURSELB.png,,,,,,,,,,,,,,,,,,,,,,,,,,,,,,,,,,,
,,,,,,,,,,,,,,,,,5e9a85acff642f1158b7d33d,32,2022-02-12_18h33.23.804,lexical_decision_task_DD,2021.2.3,Linux x86_64,60.08171113,,,,,,,,,,,0.5578,0,,,,,,,,,,,,,,z,0,0.5578,,,,,,,,0.765395465,-0.499074089,0,0,0,,0,139,139,53,1,CARPET,LB,old,m,./images/CARPETLB.png,,,,,,,,,,,,,,,,,,,,,,,,,,,,,,,,,,,
,,,,,,,,,,,,,,,,,5e9a85acff642f1158b7d33d,32,2022-02-12_18h33.23.804,lexical_decision_task_DD,2021.2.3,Linux x86_64,60.08171113,,,,,,,,,,,0.5114,1,,,,,,,,,,,,,,z,1,0.5114,,,,,,,,0.765395465,-0.499074089,0,0,0,,0,140,140,113,1,LINEW,LB,old,z,./images/LINEWLB.png,,,,,,,,,,,,,,,,,,,,,,,,,,,,,,,,,,,
,,,,,,,,,,,,,,,,,5e9a85acff642f1158b7d33d,32,2022-02-12_18h33.23.804,lexical_decision_task_DD,2021.2.3,Linux x86_64,60.08171113,,,,,,,,,,,0.5471,1,,,,,,,,,,,,,,z,1,0.5471,,,,,,,,0.765395465,-0.499074089,0,0,0,,0,141,141,134,1,TROSS,LB,old,z,./images/TROSSLB.png,,,,,,,,,,,,,,,,,,,,,,,,,,,,,,,,,,,
,,,,,,,,,,,,,,,,,5e9a85acff642f1158b7d33d,32,2022-02-12_18h33.23.804,lexical_decision_task_DD,2021.2.3,Linux x86_64,60.08171113,,,,,,,,,,,0.6541,1,,,,,,,,,,,,,,m,1,0.6541,,,,,,,,0.764579402,-0.499074089,0,0,0,,0,142,142,39,1,SHELF,C,old,m,./images/SHELF.png,,,,,,,,,,,,,,,,,,,,,,,,,,,,,,,,,,,
,,,,,,,,,,,,,,,,,5e9a85acff642f1158b7d33d,32,2022-02-12_18h33.23.804,lexical_decision_task_DD,2021.2.3,Linux x86_64,60.08171113,,,,,,,,,,,0.5324,1,,,,,,,,,,,,,,z,1,0.5324,,,,,,,,0.764579402,-0.499074089,0,0,0,,0,143,143,149,1,VEASE,LB,old,z,./images/VEASELB.png,,,,,,,,,,,,,,,,,,,,,,,,,,,,,,,,,,,
,,,,,,,,,,,,,,,,,5e9a85acff642f1158b7d33d,32,2022-02-12_18h33.23.804,lexical_decision_task_DD,2021.2.3,Linux x86_64,60.08171113,,,,,,,,,,,0.6344,1,,,,,,,,,,,,,,m,1,0.6344,,,,,,,,0.764579402,-0.499074089,0,0,0,,0,144,144,47,1,BERRY,LB,old,m,./images/BERRYLB.png,,,,,,,,,,,,,,,,,,,,,,,,,,,,,,,,,,,
,,,,,,,,,,,,,,,,,5e9a85acff642f1158b7d33d,32,2022-02-12_18h33.23.804,lexical_decision_task_DD,2021.2.3,Linux x86_64,60.08171113,,,,,,,,,,,0.8669,0,,,,,,,,,,,,,,z,0,0.8669,,,,,,,,0.764579402,-0.499074089,0,0,0,,0,145,145,76,1,INFANT,HB,old,m,./images/INFANTHB.png,,,,,,,,,,,,,,,,,,,,,,,,,,,,,,,,,,,
,,,,,,,,,,,,,,,,,5e9a85acff642f1158b7d33d,32,2022-02-12_18h33.23.804,lexical_decision_task_DD,2021.2.3,Linux x86_64,60.08171113,,,,,,,,,,,1.1123,1,,,,,,,,,,,,,,m,1,1.1123,,,,,,,,0.764579402,-0.499074089,0,0,0,,0,146,146,61,1,CANDLE,HB,old,m,./images/CANDLEHB.png,,,,,,,,,,,,,,,,,,,,,,,,,,,,,,,,,,,
,,,,,,,,,,,,,,,,,5e9a85acff642f1158b7d33d,32,2022-02-12_18h33.23.804,lexical_decision_task_DD,2021.2.3,Linux x86_64,60.08171113,,,,,,,,,,,0.6443,1,,,,,,,,,,,,,,z,1,0.6443,,,,,,,,0.764579402,-0.499074089,0,0,0,,0,147,147,104,1,GITTY,LB,old,z,./images/GITTYLB.png,,,,,,,,,,,,,,,,,,,,,,,,,,,,,,,,,,,
,,,,,,,,,,,,,,,,,5e9a85acff642f1158b7d33d,32,2022-02-12_18h33.23.804,lexical_decision_task_DD,2021.2.3,Linux x86_64,60.08171113,,,,,,,,,,,0.7955,1,,,,,,,,,,,,,,z,1,0.7955,,,,,,,,0.764579402,-0.499074089,0,0,0,,0,148,148,93,1,SMONE,C,old,z,./images/SMONE.png,,,,,,,,,,,,,,,,,,,,,,,,,,,,,,,,,,,
,,,,,,,,,,,,,,,,,5e9a85acff642f1158b7d33d,32,2022-02-12_18h33.23.804,lexical_decision_task_DD,2021.2.3,Linux x86_64,60.08171113,,,,,,,,,,,0.7262,1,,,,,,,,,,,,,,m,1,0.7262,,,,,,,,0.764579402,-0.499074089,0,0,0,,0,149,149,11,1,BONNET,LB,old,m,./images/BONNETLB.png,,,,,,,,,,,,,,,,,,,,,,,,,,,,,,,,,,,
,,,,,,,,,,,,,,,,,5e9a85acff642f1158b7d33d,32,2022-02-12_18h33.23.804,lexical_decision_task_DD,2021.2.3,Linux x86_64,60.08171113,,,,,,,,,,,0.6167,1,,,,,,,,,,,,,,z,1,0.6167,,,,,,,,0.764579402,-0.499074089,0,0,0,,0,150,150,84,1,HAXES,C,old,z,./images/HAXES.png,,,,,,,,,,,,,,,,,,,,,,,,,,,,,,,,,,,
,,,,,,,,,,,,,,,,,5e9a85acff642f1158b7d33d,32,2022-02-12_18h33.23.804,lexical_decision_task_DD,2021.2.3,Linux x86_64,60.08171113,,,,,,,,,,,0.7258,1,,,,,,,,,,,,,,m,1,0.7258,,,,,,,,0.764579402,-0.499074089,0,0,0,,0,151,151,50,1,MALLET,LB,old,m,./images/MALLETLB.png,,,,,,,,,,,,,,,,,,,,,,,,,,,,,,,,,,,
,,,,,,,,,,,,,,,,,5e9a85acff642f1158b7d33d,32,2022-02-12_18h33.23.804,lexical_decision_task_DD,2021.2.3,Linux x86_64,60.08171113,,,,,,,,,,,0.5869,1,,,,,,,,,,,,,,m,1,0.5869,,,,,,,,0.764579402,-0.499074089,0,0,0,,0,152,152,57,1,MOOSE,C,old,m,./images/MOOSE.png,,,,,,,,,,,,,,,,,,,,,,,,,,,,,,,,,,,
,,,,,,,,,,,,,,,,,5e9a85acff642f1158b7d33d,32,2022-02-12_18h33.23.804,lexical_decision_task_DD,2021.2.3,Linux x86_64,60.08171113,,,,,,,,,,,0.8625,1,,,,,,,,,,,,,,z,1,0.8625,,,,,,,,0.764579402,-0.499074089,0,0,0,,0,153,153,118,1,BAVEL,HB,old,z,./images/BAVELHB.png,,,,,,,,,,,,,,,,,,,,,,,,,,,,,,,,,,,
,,,,,,,,,,,,,,,,,5e9a85acff642f1158b7d33d,32,2022-02-12_18h33.23.804,lexical_decision_task_DD,2021.2.3,Linux x86_64,60.08171113,,,,,,,,,,,0.8112,0,,,,,,,,,,,,,,z,0,0.8112,,,,,,,,0.764579402,-0.499074089,0,0,0,,0,154,154,31,1,QUILL,HB,old,m,./images/QUILLHB.png,,,,,,,,,,,,,,,,,,,,,,,,,,,,,,,,,,,
,,,,,,,,,,,,,,,,,5e9a85acff642f1158b7d33d,32,2022-02-12_18h33.23.804,lexical_decision_task_DD,2021.2.3,Linux x86_64,60.08171113,,,,,,,,,,,0.5354,1,,,,,,,,,,,,,,m,1,0.5354,,,,,,,,0.764579402,-0.499074089,0,0,0,,0,155,155,72,1,NOOSE,C,old,m,./images/NOOSE.png,,,,,,,,,,,,,,,,,,,,,,,,,,,,,,,,,,,
,,,,,,,,,,,,,,,,,5e9a85acff642f1158b7d33d,32,2022-02-12_18h33.23.804,lexical_decision_task_DD,2021.2.3,Linux x86_64,60.08171113,,,,,,,,,,,0.5026,1,,,,,,,,,,,,,,m,1,0.5026,,,,,,,,0.764579402,-0.499074089,0,0,0,,0,156,156,36,1,THROAT,C,old,m,./images/THROAT.png,,,,,,,,,,,,,,,,,,,,,,,,,,,,,,,,,,,
,,,,,,,,,,,,,,,,,5e9a85acff642f1158b7d33d,32,2022-02-12_18h33.23.804,lexical_decision_task_DD,2021.2.3,Linux x86_64,60.08171113,,,,,,,,,,,0.5912,1,,,,,,,,,,,,,,z,1,0.5912,,,,,,,,0.764579402,-0.499074089,0,0,0,,0,157,157,117,1,STEEG,C,old,z,./images/STEEG.png,,,,,,,,,,,,,,,,,,,,,,,,,,,,,,,,,,,
,,,,,,,,,,,,,,,,,5e9a85acff642f1158b7d33d,32,2022-02-12_18h33.23.804,lexical_decision_task_DD,2021.2.3,Linux x86_64,60.08171113,,,,,,,,,,,0.9894,1,,,,,,,,,,,,,,z,1,0.9894,,,,,,,,0.764579402,-0.499074089,0,0,0,,0,158,158,166,1,SHORY,HB,old,z,./images/SHORYHB.png,,,,,,,,,,,,,,,,,,,,,,,,,,,,,,,,,,,
,,,,,,,,,,,,,,,,,5e9a85acff642f1158b7d33d,32,2022-02-12_18h33.23.804,lexical_decision_task_DD,2021.2.3,Linux x86_64,60.08171113,,,,,,,,,,,0.7169,1,,,,,,,,,,,,,,m,1,0.7169,,,,,,,,0.764579402,-0.499074089,0,0,0,,0,159,159,42,1,FOLDER,C,old,m,./images/FOLDER.png,,,,,,,,,,,,,,,,,,,,,,,,,,,,,,,,,,,
,,,,,,,,,,,,,,,,,5e9a85acff642f1158b7d33d,32,2022-02-12_18h33.23.804,lexical_decision_task_DD,2021.2.3,Linux x86_64,60.08171113,,,,,,,,,,,0.5925,1,,,,,,,,,,,,,,m,1,0.5925,,,,,,,,0.764579402,-0.499074089,0,0,0,,0,160,160,21,1,KIDNEY,C,old,m,./images/KIDNEY.png,,,,,,,,,,,,,,,,,,,,,,,,,,,,,,,,,,,
,,,,,,,,,,,,,,,,,5e9a85acff642f1158b7d33d,32,2022-02-12_18h33.23.804,lexical_decision_task_DD,2021.2.3,Linux x86_64,60.08171113,,,,,,,,,,,0.5256,1,,,,,,,,,,,,,,z,1,0.5256,,,,,,,,0.764579402,-0.499074089,0,0,0,,0,161,161,161,1,BLAPS,LB,old,z,./images/BLAPSLB.png,,,,,,,,,,,,,,,,,,,,,,,,,,,,,,,,,,,
,,,,,,,,,,,,,,,,,5e9a85acff642f1158b7d33d,32,2022-02-12_18h33.23.804,lexical_decision_task_DD,2021.2.3,Linux x86_64,60.08171113,,,,,,,,,,,0.8886,1,,,,,,,,,,,,,,z,1,0.8886,,,,,,,,0.764579402,-0.499074089,0,0,0,,0,162,162,102,1,DULLE,C,old,z,./images/DULLE.png,,,,,,,,,,,,,,,,,,,,,,,,,,,,,,,,,,,
,,,,,,,,,,,,,,,,,5e9a85acff642f1158b7d33d,32,2022-02-12_18h33.23.804,lexical_decision_task_DD,2021.2.3,Linux x86_64,60.08171113,,,,,,,,,,,0.6666,0,,,,,,,,,,,,,,m,0,0.6666,,,,,,,,0.764579402,-0.499074089,0,0,0,,0,163,163,123,1,SEDGE,C,old,z,./images/SEDGE.png,,,,,,,,,,,,,,,,,,,,,,,,,,,,,,,,,,,
,,,,,,,,,,,,,,,,,5e9a85acff642f1158b7d33d,32,2022-02-12_18h33.23.804,lexical_decision_task_DD,2021.2.3,Linux x86_64,60.08171113,,,,,,,,,,,0.585,1,,,,,,,,,,,,,,z,1,0.585,,,,,,,,0.764579402,-0.499074089,0,0,0,,0,164,164,108,1,GRUET,C,old,z,./images/GRUET.png,,,,,,,,,,,,,,,,,,,,,,,,,,,,,,,,,,,
,,,,,,,,,,,,,,,,,5e9a85acff642f1158b7d33d,32,2022-02-12_18h33.23.804,lexical_decision_task_DD,2021.2.3,Linux x86_64,60.08171113,,,,,,,,,,,0.8157,1,,,,,,,,,,,,,,m,1,0.8157,,,,,,,,0.763763339,-0.499074089,0,0,0,,0,165,165,46,1,PEARL,HB,old,m,./images/PEARLHB.png,,,,,,,,,,,,,,,,,,,,,,,,,,,,,,,,,,,
,,,,,,,,,,,,,,,,,5e9a85acff642f1158b7d33d,32,2022-02-12_18h33.23.804,lexical_decision_task_DD,2021.2.3,Linux x86_64,60.08171113,,,,,,,,,,,0.5922,1,,,,,,,,,,,,,,m,1,0.5922,,,,,,,,0.763763339,-0.499074089,0,0,0,,0,166,166,20,1,CRADLE,LB,old,m,./images/CRADLELB.png,,,,,,,,,,,,,,,,,,,,,,,,,,,,,,,,,,,
,,,,,,,,,,,,,,,,,5e9a85acff642f1158b7d33d,32,2022-02-12_18h33.23.804,lexical_decision_task_DD,2021.2.3,Linux x86_64,60.08171113,,,,,,,,,,,0.593,1,,,,,,,,,,,,,,m,1,0.593,,,,,,,,0.763763339,-0.499074089,0,0,0,,0,167,167,34,1,CANYON,HB,old,m,./images/CANYONHB.png,,,,,,,,,,,,,,,,,,,,,,,,,,,,,,,,,,,
,,,,,,,,,,,,,,,,,5e9a85acff642f1158b7d33d,32,2022-02-12_18h33.23.804,lexical_decision_task_DD,2021.2.3,Linux x86_64,60.08171113,,,,,,,,,,,,,,,,,,,,,,,,,,,,,,,,,,,,,,,,,,,,,,,,How likely will it be that you will recognize the words presented very blurred on a scale of 0 (not likely) to 100 (most likely)?,,,,,-0.017944775,-0.421929889,1,0,0,jol_adv,3,7.6944,0,0,0,2,1,,,,,,,,,,,,,,,,,,,,,
,,,,,,,,,,,,,,,,,5e9a85acff642f1158b7d33d,32,2022-02-12_18h33.23.804,lexical_decision_task_DD,2021.2.3,Linux x86_64,60.08171113,,,,,,,,,,,,,,,,,,,,,,,,,,,,,,,,,,,,,,,,,,,,,,,,How likely will it be that you will recognize the words presented clearly on a scale of 0 (not likely) to 100 (most likely)?,,,,,,,,,,,5,4.2073,0,1,1,0,1,,,,,,,,,,,,,,,,,,,,,
,,,,,,,,,,,,,,,,,5e9a85acff642f1158b7d33d,32,2022-02-12_18h33.23.804,lexical_decision_task_DD,2021.2.3,Linux x86_64,60.08171113,,,,,,,,,,,,,,,,,,,,,,,,,,,,,,,,,,,,,,,,,,,,,,,,How likely will it be that you will recognize the words presented slighly blurred on a scale of 0 (not likely) to 100 (most likely)?,,,,,,,,,,,3,3.5284,0,2,2,1,1,,,,,,,,,,,,,,,,,,,,,
space,16.6293,0.747902789,-0.499074089,0,0,0,,,,,,1,test,"In the next phase you will be presented with the words from the the first phase. Your job is to decide whether you remember seeing the word or not. If you remember seeing the word press ""old"" or type ""m"". If you do not remember seeing the word press ""new"" or type ""z"". Please press the space bar or click on continue to begin. ",,,5e9a85acff642f1158b7d33d,32,2022-02-12_18h33.23.804,lexical_decision_task_DD,2021.2.3,Linux x86_64,60.08171113,,,,,,,,,,,,,,,,,,,,,,,,,,,,,,,,,,,,,,,,,,,,,,,,,,,,,,,,,,,,,,,,,,0,0,0,0,1,,,,,,,,,,,,,,,,
space,1.5991,0.747902789,-0.499074089,0,0,0,,,,,,1,test,"In the next phase you will be presented with the words from the the first phase. Your job is to decide whether you remember seeing the word or not. If you remember seeing the word press ""old"" or type ""m"". If you do not remember seeing the word press ""new"" or type ""z"". Please press the space bar or click on continue to begin. ",,,5e9a85acff642f1158b7d33d,32,2022-02-12_18h33.23.804,lexical_decision_task_DD,2021.2.3,Linux x86_64,60.08171113,,,,,,,,,,,,,,,,,,,,,,,,,,,,,,,,,,,,,,,,,,,,,,,,,,,,,,,,,,,,,,,,,,1,0,1,0,1,,,,,,,,,,,,,,,,
,,-0.003792305,-0.418923229,1,0,0,,,,,,1,test,"In the next phase you will be presented with the words from the the first phase. Your job is to decide whether you remember seeing the word or not. If you remember seeing the word press ""old"" or type ""m"". If you do not remember seeing the word press ""new"" or type ""z"". Please press the space bar or click on continue to begin. ",,,5e9a85acff642f1158b7d33d,32,2022-02-12_18h33.23.804,lexical_decision_task_DD,2021.2.3,Linux x86_64,60.08171113,,,,,,,,,,,,,,,,,,,,,,,,,,,,,,,,,,,,,,,,,,,,,,,,,,,,,,,,,,,,,,,,,,2,0,2,0,1,instr_done_button,,,,,,,,,,,,,,,
,,0.003239031,-0.395467193,1,0,0,,,,,,1,test,"In the next phase you will be presented with the words from the the first phase. Your job is to decide whether you remember seeing the word or not. If you remember seeing the word press ""old"" or type ""m"". If you do not remember seeing the word press ""new"" or type ""z"". Please press the space bar or click on continue to begin. ",,,5e9a85acff642f1158b7d33d,32,2022-02-12_18h33.23.804,lexical_decision_task_DD,2021.2.3,Linux x86_64,60.08171113,,,,,,,,,,,,,,,,,,,,,,,,,,,,,,,,,,,,,,,,,,,,,,,,,,,,,,,,,,,,,,,,,,3,0,3,0,1,instr_done_button,,,,,,,,,,,,,,,
,,-0.028469271,-0.408350132,1,0,0,,,,,,1,test,"In the next phase you will be presented with the words from the the first phase. Your job is to decide whether you remember seeing the word or not. If you remember seeing the word press ""old"" or type ""m"". If you do not remember seeing the word press ""new"" or type ""z"". Please press the space bar or click on continue to begin. ",,,5e9a85acff642f1158b7d33d,32,2022-02-12_18h33.23.804,lexical_decision_task_DD,2021.2.3,Linux x86_64,60.08171113,,,,,,,,,,,,,,,,,,,,,,,,,,,,,,,,,,,,,,,,,,,,,,,,,,,,,,,,,,,,,,,,,,4,0,4,0,1,instr_done_button,,,,,,,,,,,,,,,
,,,,,,,,,,,,,,,,,5e9a85acff642f1158b7d33d,32,2022-02-12_18h33.23.804,lexical_decision_task_DD,2021.2.3,Linux x86_64,60.08171113,,,,,,,,,,,1.0831,1,,,,,,,,,,,,,,,,,,,,,,,,0.345871442,-0.465551207,0,0,0,,,,,,,URINE,HB,m,m,./images/URINEHB.png,,,,,,,,,,,,,,,,,,,,,m,1,1.0831,,,,,,,,0,0,0,70,1
,,,,,,,,,,,,,,,,,5e9a85acff642f1158b7d33d,32,2022-02-12_18h33.23.804,lexical_decision_task_DD,2021.2.3,Linux x86_64,60.08171113,,,,,,,,,,,0.7656,1,,,,,,,,,,,,,,,,,,,,,,,,0.345871442,-0.465551207,0,0,0,,,,,,,BLOKE,C,z,m,./images/BLOKE.png,,,,,,,,,,,,,,,,,,,,,z,1,0.7656,,,,,,,,0,1,1,96,1
,,,,,,,,,,,,,,,,,5e9a85acff642f1158b7d33d,32,2022-02-12_18h33.23.804,lexical_decision_task_DD,2021.2.3,Linux x86_64,60.08171113,,,,,,,,,,,0.745,1,,,,,,,,,,,,,,,,,,,,,,,,0.345871442,-0.465551207,0,0,0,,,,,,,POSTER,LB,z,m,./images/POSTERLB.png,,,,,,,,,,,,,,,,,,,,,z,1,0.745,,,,,,,,0,2,2,137,1
,,,,,,,,,,,,,,,,,5e9a85acff642f1158b7d33d,32,2022-02-12_18h33.23.804,lexical_decision_task_DD,2021.2.3,Linux x86_64,60.08171113,,,,,,,,,,,0.5472,0,,,,,,,,,,,,,,,,,,,,,,,,0.345871442,-0.465551207,0,0,0,,,,,,,TRIPOD,C,m,m,./images/TRIPOD.png,,,,,,,,,,,,,,,,,,,,,z,0,0.5472,,,,,,,,0,3,3,54,1
,,,,,,,,,,,,,,,,,5e9a85acff642f1158b7d33d,32,2022-02-12_18h33.23.804,lexical_decision_task_DD,2021.2.3,Linux x86_64,60.08171113,,,,,,,,,,,0.6145,1,,,,,,,,,,,,,,,,,,,,,,,,0.345871442,-0.465551207,0,0,0,,,,,,,MOTOR,HB,m,m,./images/MOTORHB.png,,,,,,,,,,,,,,,,,,,,,m,1,0.6145,,,,,,,,0,4,4,13,1
,,,,,,,,,,,,,,,,,5e9a85acff642f1158b7d33d,32,2022-02-12_18h33.23.804,lexical_decision_task_DD,2021.2.3,Linux x86_64,60.08171113,,,,,,,,,,,0.5986,1,,,,,,,,,,,,,,,,,,,,,,,,0.345871442,-0.465551207,0,0,0,,,,,,,PICKLE,LB,m,m,./images/PICKLELB.png,,,,,,,,,,,,,,,,,,,,,m,1,0.5986,,,,,,,,0,5,5,14,1
,,,,,,,,,,,,,,,,,5e9a85acff642f1158b7d33d,32,2022-02-12_18h33.23.804,lexical_decision_task_DD,2021.2.3,Linux x86_64,60.08171113,,,,,,,,,,,0.8631,1,,,,,,,,,,,,,,,,,,,,,,,,0.345871442,-0.465551207,0,0,0,,,,,,,MIDGET,HB,z,m,./images/MIDGETHB.png,,,,,,,,,,,,,,,,,,,,,z,1,0.8631,,,,,,,,0,6,6,160,1
,,,,,,,,,,,,,,,,,5e9a85acff642f1158b7d33d,32,2022-02-12_18h33.23.804,lexical_decision_task_DD,2021.2.3,Linux x86_64,60.08171113,,,,,,,,,,,0.8175,1,,,,,,,,,,,,,,,,,,,,,,,,0.345871442,-0.465551207,0,0,0,,,,,,,CARPET,LB,m,m,./images/CARPETLB.png,,,,,,,,,,,,,,,,,,,,,m,1,0.8175,,,,,,,,0,7,7,53,1
,,,,,,,,,,,,,,,,,5e9a85acff642f1158b7d33d,32,2022-02-12_18h33.23.804,lexical_decision_task_DD,2021.2.3,Linux x86_64,60.08171113,,,,,,,,,,,0.6506,0,,,,,,,,,,,,,,,,,,,,,,,,0.345871442,-0.465551207,0,0,0,,,,,,,STEAK,HB,z,m,./images/STEAKHB.png,,,,,,,,,,,,,,,,,,,,,m,0,0.6506,,,,,,,,0,8,8,115,1
,,,,,,,,,,,,,,,,,5e9a85acff642f1158b7d33d,32,2022-02-12_18h33.23.804,lexical_decision_task_DD,2021.2.3,Linux x86_64,60.08171113,,,,,,,,,,,0.6828,1,,,,,,,,,,,,,,,,,,,,,,,,0.345871442,-0.465551207,0,0,0,,,,,,,LITTER,C,m,m,./images/LITTER.png,,,,,,,,,,,,,,,,,,,,,m,1,0.6828,,,,,,,,0,9,9,78,1
,,,,,,,,,,,,,,,,,5e9a85acff642f1158b7d33d,32,2022-02-12_18h33.23.804,lexical_decision_task_DD,2021.2.3,Linux x86_64,60.08171113,,,,,,,,,,,0.6497,1,,,,,,,,,,,,,,,,,,,,,,,,0.345871442,-0.465551207,0,0,0,,,,,,,SAUCE,C,z,m,./images/SAUCE.png,,,,,,,,,,,,,,,,,,,,,z,1,0.6497,,,,,,,,0,10,10,135,1
,,,,,,,,,,,,,,,,,5e9a85acff642f1158b7d33d,32,2022-02-12_18h33.23.804,lexical_decision_task_DD,2021.2.3,Linux x86_64,60.08171113,,,,,,,,,,,0.6912,1,,,,,,,,,,,,,,,,,,,,,,,,0.345871442,-0.465551207,0,0,0,,,,,,,STAIN,C,z,m,./images/STAIN.png,,,,,,,,,,,,,,,,,,,,,z,1,0.6912,,,,,,,,0,11,11,90,1
,,,,,,,,,,,,,,,,,5e9a85acff642f1158b7d33d,32,2022-02-12_18h33.23.804,lexical_decision_task_DD,2021.2.3,Linux x86_64,60.08171113,,,,,,,,,,,0.8679,1,,,,,,,,,,,,,,,,,,,,,,,,0.345871442,-0.465551207,0,0,0,,,,,,,STOVE,LB,z,m,./images/STOVELB.png,,,,,,,,,,,,,,,,,,,,,z,1,0.8679,,,,,,,,0,12,12,86,1
,,,,,,,,,,,,,,,,,5e9a85acff642f1158b7d33d,32,2022-02-12_18h33.23.804,lexical_decision_task_DD,2021.2.3,Linux x86_64,60.08171113,,,,,,,,,,,0.5675,1,,,,,,,,,,,,,,,,,,,,,,,,0.345871442,-0.465551207,0,0,0,,,,,,,PURSE,LB,m,m,./images/PURSELB.png,,,,,,,,,,,,,,,,,,,,,m,1,0.5675,,,,,,,,0,13,13,62,1
,,,,,,,,,,,,,,,,,5e9a85acff642f1158b7d33d,32,2022-02-12_18h33.23.804,lexical_decision_task_DD,2021.2.3,Linux x86_64,60.08171113,,,,,,,,,,,0.8275,0,,,,,,,,,,,,,,,,,,,,,,,,0.345871442,-0.465551207,0,0,0,,,,,,,MONKEY,C,z,m,./images/MONKEY.png,,,,,,,,,,,,,,,,,,,,,m,0,0.8275,,,,,,,,0,14,14,129,1
,,,,,,,,,,,,,,,,,5e9a85acff642f1158b7d33d,32,2022-02-12_18h33.23.804,lexical_decision_task_DD,2021.2.3,Linux x86_64,60.08171113,,,,,,,,,,,0.6983,1,,,,,,,,,,,,,,,,,,,,,,,,0.345871442,-0.465551207,0,0,0,,,,,,,GRANNY,LB,z,m,./images/GRANNYLB.png,,,,,,,,,,,,,,,,,,,,,z,1,0.6983,,,,,,,,0,15,15,104,1
,,,,,,,,,,,,,,,,,5e9a85acff642f1158b7d33d,32,2022-02-12_18h33.23.804,lexical_decision_task_DD,2021.2.3,Linux x86_64,60.08171113,,,,,,,,,,,1.0317,1,,,,,,,,,,,,,,,,,,,,,,,,0.345871442,-0.465551207,0,0,0,,,,,,,BRUSH,LB,z,m,./images/BRUSHLB.png,,,,,,,,,,,,,,,,,,,,,z,1,1.0317,,,,,,,,0,16,16,143,1
,,,,,,,,,,,,,,,,,5e9a85acff642f1158b7d33d,32,2022-02-12_18h33.23.804,lexical_decision_task_DD,2021.2.3,Linux x86_64,60.08171113,,,,,,,,,,,0.7317,1,,,,,,,,,,,,,,,,,,,,,,,,0.345871442,-0.465551207,0,0,0,,,,,,,ONION,C,m,m,./images/ONION.png,,,,,,,,,,,,,,,,,,,,,m,1,0.7317,,,,,,,,0,17,17,51,1
,,,,,,,,,,,,,,,,,5e9a85acff642f1158b7d33d,32,2022-02-12_18h33.23.804,lexical_decision_task_DD,2021.2.3,Linux x86_64,60.08171113,,,,,,,,,,,0.8639,1,,,,,,,,,,,,,,,,,,,,,,,,0.345871442,-0.465551207,0,0,0,,,,,,,BEARD,LB,m,m,./images/BEARDLB.png,,,,,,,,,,,,,,,,,,,,,m,1,0.8639,,,,,,,,0,18,18,2,1
,,,,,,,,,,,,,,,,,5e9a85acff642f1158b7d33d,32,2022-02-12_18h33.23.804,lexical_decision_task_DD,2021.2.3,Linux x86_64,60.08171113,,,,,,,,,,,0.9283,1,,,,,,,,,,,,,,,,,,,,,,,,0.345871442,-0.465551207,0,0,0,,,,,,,BELLY,HB,m,m,./images/BELLYHB.png,,,,,,,,,,,,,,,,,,,,,m,1,0.9283,,,,,,,,0,19,19,10,1
,,,,,,,,,,,,,,,,,5e9a85acff642f1158b7d33d,32,2022-02-12_18h33.23.804,lexical_decision_task_DD,2021.2.3,Linux x86_64,60.08171113,,,,,,,,,,,1.0089,0,,,,,,,,,,,,,,,,,,,,,,,,0.345871442,-0.465551207,0,0,0,,,,,,,CLOWN,HB,z,m,./images/CLOWNHB.png,,,,,,,,,,,,,,,,,,,,,m,0,1.0089,,,,,,,,0,20,20,106,1
,,,,,,,,,,,,,,,,,5e9a85acff642f1158b7d33d,32,2022-02-12_18h33.23.804,lexical_decision_task_DD,2021.2.3,Linux x86_64,60.08171113,,,,,,,,,,,0.8896,1,,,,,,,,,,,,,,,,,,,,,,,,0.345871442,-0.465551207,0,0,0,,,,,,,FENCE,LB,z,m,./images/FENCELB.png,,,,,,,,,,,,,,,,,,,,,z,1,0.8896,,,,,,,,0,21,21,98,1
,,,,,,,,,,,,,,,,,5e9a85acff642f1158b7d33d,32,2022-02-12_18h33.23.804,lexical_decision_task_DD,2021.2.3,Linux x86_64,60.08171113,,,,,,,,,,,0.8297,0,,,,,,,,,,,,,,,,,,,,,,,,0.345871442,-0.465551207,0,0,0,,,,,,,BOILER,C,z,m,./images/BOILER.png,,,,,,,,,,,,,,,,,,,,,m,0,0.8297,,,,,,,,0,22,22,120,1
,,,,,,,,,,,,,,,,,5e9a85acff642f1158b7d33d,32,2022-02-12_18h33.23.804,lexical_decision_task_DD,2021.2.3,Linux x86_64,60.08171113,,,,,,,,,,,0.6011,1,,,,,,,,,,,,,,,,,,,,,,,,0.345871442,-0.465551207,0,0,0,,,,,,,CANDLE,HB,m,m,./images/CANDLEHB.png,,,,,,,,,,,,,,,,,,,,,m,1,0.6011,,,,,,,,0,23,23,61,1
,,,,,,,,,,,,,,,,,5e9a85acff642f1158b7d33d,32,2022-02-12_18h33.23.804,lexical_decision_task_DD,2021.2.3,Linux x86_64,60.08171113,,,,,,,,,,,0.6004,0,,,,,,,,,,,,,,,,,,,,,,,,0.345871442,-0.465551207,0,0,0,,,,,,,RULER,HB,z,m,./images/RULERHB.png,,,,,,,,,,,,,,,,,,,,,m,0,0.6004,,,,,,,,0,24,24,163,1
,,,,,,,,,,,,,,,,,5e9a85acff642f1158b7d33d,32,2022-02-12_18h33.23.804,lexical_decision_task_DD,2021.2.3,Linux x86_64,60.08171113,,,,,,,,,,,0.6382,1,,,,,,,,,,,,,,,,,,,,,,,,0.345871442,-0.465551207,0,0,0,,,,,,,POODLE,C,m,m,./images/POODLE.png,,,,,,,,,,,,,,,,,,,,,m,1,0.6382,,,,,,,,0,25,25,81,1
,,,,,,,,,,,,,,,,,5e9a85acff642f1158b7d33d,32,2022-02-12_18h33.23.804,lexical_decision_task_DD,2021.2.3,Linux x86_64,60.08171113,,,,,,,,,,,0.6689,1,,,,,,,,,,,,,,,,,,,,,,,,0.345871442,-0.465551207,0,0,0,,,,,,,CEMENT,LB,m,m,./images/CEMENTLB.png,,,,,,,,,,,,,,,,,,,,,m,1,0.6689,,,,,,,,0,26,26,74,1
,,,,,,,,,,,,,,,,,5e9a85acff642f1158b7d33d,32,2022-02-12_18h33.23.804,lexical_decision_task_DD,2021.2.3,Linux x86_64,60.08171113,,,,,,,,,,,0.6675,1,,,,,,,,,,,,,,,,,,,,,,,,0.345871442,-0.465551207,0,0,0,,,,,,,TORCH,LB,m,m,./images/TORCHLB.png,,,,,,,,,,,,,,,,,,,,,m,1,0.6675,,,,,,,,0,27,27,68,1
,,,,,,,,,,,,,,,,,5e9a85acff642f1158b7d33d,32,2022-02-12_18h33.23.804,lexical_decision_task_DD,2021.2.3,Linux x86_64,60.08171113,,,,,,,,,,,0.6816,1,,,,,,,,,,,,,,,,,,,,,,,,0.345871442,-0.465551207,0,0,0,,,,,,,TOWEL,HB,z,m,./images/TOWELHB.png,,,,,,,,,,,,,,,,,,,,,z,1,0.6816,,,,,,,,0,28,28,85,1
,,,,,,,,,,,,,,,,,5e9a85acff642f1158b7d33d,32,2022-02-12_18h33.23.804,lexical_decision_task_DD,2021.2.3,Linux x86_64,60.08171113,,,,,,,,,,,0.6489,0,,,,,,,,,,,,,,,,,,,,,,,,0.345871442,-0.465551207,0,0,0,,,,,,,BROOM,C,z,m,./images/BROOM.png,,,,,,,,,,,,,,,,,,,,,m,0,0.6489,,,,,,,,0,29,29,162,1
,,,,,,,,,,,,,,,,,5e9a85acff642f1158b7d33d,32,2022-02-12_18h33.23.804,lexical_decision_task_DD,2021.2.3,Linux x86_64,60.08171113,,,,,,,,,,,0.7435,0,,,,,,,,,,,,,,,,,,,,,,,,0.345871442,-0.465551207,0,0,0,,,,,,,STATUE,C,z,m,./images/STATUE.png,,,,,,,,,,,,,,,,,,,,,m,0,0.7435,,,,,,,,0,30,30,150,1
,,,,,,,,,,,,,,,,,5e9a85acff642f1158b7d33d,32,2022-02-12_18h33.23.804,lexical_decision_task_DD,2021.2.3,Linux x86_64,60.08171113,,,,,,,,,,,0.7149,1,,,,,,,,,,,,,,,,,,,,,,,,0.345871442,-0.465551207,0,0,0,,,,,,,INFANT,HB,m,m,./images/INFANTHB.png,,,,,,,,,,,,,,,,,,,,,m,1,0.7149,,,,,,,,0,31,31,76,1
,,,,,,,,,,,,,,,,,5e9a85acff642f1158b7d33d,32,2022-02-12_18h33.23.804,lexical_decision_task_DD,2021.2.3,Linux x86_64,60.08171113,,,,,,,,,,,1.0661,1,,,,,,,,,,,,,,,,,,,,,,,,0.345871442,-0.465551207,0,0,0,,,,,,,CHALK,HB,z,m,./images/CHALKHB.png,,,,,,,,,,,,,,,,,,,,,z,1,1.0661,,,,,,,,0,32,32,109,1
,,,,,,,,,,,,,,,,,5e9a85acff642f1158b7d33d,32,2022-02-12_18h33.23.804,lexical_decision_task_DD,2021.2.3,Linux x86_64,60.08171113,,,,,,,,,,,0.7311,0,,,,,,,,,,,,,,,,,,,,,,,,0.345871442,-0.465551207,0,0,0,,,,,,,FLESH,C,z,m,./images/FLESH.png,,,,,,,,,,,,,,,,,,,,,m,0,0.7311,,,,,,,,0,33,33,108,1
,,,,,,,,,,,,,,,,,5e9a85acff642f1158b7d33d,32,2022-02-12_18h33.23.804,lexical_decision_task_DD,2021.2.3,Linux x86_64,60.08171113,,,,,,,,,,,0.4967,0,,,,,,,,,,,,,,,,,,,,,,,,0.345871442,-0.465551207,0,0,0,,,,,,,PLANK,HB,m,m,./images/PLANKHB.png,,,,,,,,,,,,,,,,,,,,,z,0,0.4967,,,,,,,,0,34,34,1,1
,,,,,,,,,,,,,,,,,5e9a85acff642f1158b7d33d,32,2022-02-12_18h33.23.804,lexical_decision_task_DD,2021.2.3,Linux x86_64,60.08171113,,,,,,,,,,,0.7876,1,,,,,,,,,,,,,,,,,,,,,,,,0.345871442,-0.465551207,0,0,0,,,,,,,BANANA,HB,z,m,./images/BANANAHB.png,,,,,,,,,,,,,,,,,,,,,z,1,0.7876,,,,,,,,0,35,35,154,1
,,,,,,,,,,,,,,,,,5e9a85acff642f1158b7d33d,32,2022-02-12_18h33.23.804,lexical_decision_task_DD,2021.2.3,Linux x86_64,60.08171113,,,,,,,,,,,0.6883,1,,,,,,,,,,,,,,,,,,,,,,,,0.345871442,-0.465551207,0,0,0,,,,,,,CRADLE,LB,m,m,./images/CRADLELB.png,,,,,,,,,,,,,,,,,,,,,m,1,0.6883,,,,,,,,0,36,36,20,1
,,,,,,,,,,,,,,,,,5e9a85acff642f1158b7d33d,32,2022-02-12_18h33.23.804,lexical_decision_task_DD,2021.2.3,Linux x86_64,60.08171113,,,,,,,,,,,0.6863,1,,,,,,,,,,,,,,,,,,,,,,,,0.345871442,-0.465551207,0,0,0,,,,,,,MALLET,LB,m,m,./images/MALLETLB.png,,,,,,,,,,,,,,,,,,,,,m,1,0.6863,,,,,,,,0,37,37,50,1
,,,,,,,,,,,,,,,,,5e9a85acff642f1158b7d33d,32,2022-02-12_18h33.23.804,lexical_decision_task_DD,2021.2.3,Linux x86_64,60.08171113,,,,,,,,,,,0.6028,1,,,,,,,,,,,,,,,,,,,,,,,,0.345871442,-0.465551207,0,0,0,,,,,,,BONNET,LB,m,m,./images/BONNETLB.png,,,,,,,,,,,,,,,,,,,,,m,1,0.6028,,,,,,,,0,38,38,11,1
,,,,,,,,,,,,,,,,,5e9a85acff642f1158b7d33d,32,2022-02-12_18h33.23.804,lexical_decision_task_DD,2021.2.3,Linux x86_64,60.08171113,,,,,,,,,,,0.6441,1,,,,,,,,,,,,,,,,,,,,,,,,0.345871442,-0.465551207,0,0,0,,,,,,,KITTEN,C,m,m,./images/KITTEN.png,,,,,,,,,,,,,,,,,,,,,m,1,0.6441,,,,,,,,0,39,39,45,1
,,,,,,,,,,,,,,,,,5e9a85acff642f1158b7d33d,32,2022-02-12_18h33.23.804,lexical_decision_task_DD,2021.2.3,Linux x86_64,60.08171113,,,,,,,,,,,0.6997,1,,,,,,,,,,,,,,,,,,,,,,,,0.345871442,-0.465551207,0,0,0,,,,,,,MUFFIN,HB,m,m,./images/MUFFINHB.png,,,,,,,,,,,,,,,,,,,,,m,1,0.6997,,,,,,,,0,40,40,55,1
,,,,,,,,,,,,,,,,,5e9a85acff642f1158b7d33d,32,2022-02-12_18h33.23.804,lexical_decision_task_DD,2021.2.3,Linux x86_64,60.08171113,,,,,,,,,,,1.3929,1,,,,,,,,,,,,,,,,,,,,,,,,0.345028818,-0.466393831,0,0,0,space,,,,,,STRING,LB,m,m,./images/STRINGLB.png,46.106,,,,,,,,,,,,,,,,,,,,m,1,1.3929,,,,,,,,0,41,41,41,1
,,,,,,,,,,,,,,,,,5e9a85acff642f1158b7d33d,32,2022-02-12_18h33.23.804,lexical_decision_task_DD,2021.2.3,Linux x86_64,60.08171113,,,,,,,,,,,0.6437,0,,,,,,,,,,,,,,,,,,,,,,,,0.345028818,-0.466393831,0,0,0,,,,,,,BUNNY,HB,z,m,./images/BUNNYHB.png,,,,,,,,,,,,,,,,,,,,,m,0,0.6437,,,,,,,,0,42,42,97,1
,,,,,,,,,,,,,,,,,5e9a85acff642f1158b7d33d,32,2022-02-12_18h33.23.804,lexical_decision_task_DD,2021.2.3,Linux x86_64,60.08171113,,,,,,,,,,,0.5643,1,,,,,,,,,,,,,,,,,,,,,,,,0.345028818,-0.466393831,0,0,0,,,,,,,BIRTH,HB,m,m,./images/BIRTHHB.png,,,,,,,,,,,,,,,,,,,,,m,1,0.5643,,,,,,,,0,43,43,37,1
,,,,,,,,,,,,,,,,,5e9a85acff642f1158b7d33d,32,2022-02-12_18h33.23.804,lexical_decision_task_DD,2021.2.3,Linux x86_64,60.08171113,,,,,,,,,,,0.605,1,,,,,,,,,,,,,,,,,,,,,,,,0.345028818,-0.466393831,0,0,0,,,,,,,STORM,C,m,m,./images/STORM.png,,,,,,,,,,,,,,,,,,,,,m,1,0.605,,,,,,,,0,44,44,30,1
,,,,,,,,,,,,,,,,,5e9a85acff642f1158b7d33d,32,2022-02-12_18h33.23.804,lexical_decision_task_DD,2021.2.3,Linux x86_64,60.08171113,,,,,,,,,,,0.8138,1,,,,,,,,,,,,,,,,,,,,,,,,0.345028818,-0.466393831,0,0,0,,,,,,,ATTIC,C,m,m,./images/ATTIC.png,,,,,,,,,,,,,,,,,,,,,m,1,0.8138,,,,,,,,0,45,45,27,1
,,,,,,,,,,,,,,,,,5e9a85acff642f1158b7d33d,32,2022-02-12_18h33.23.804,lexical_decision_task_DD,2021.2.3,Linux x86_64,60.08171113,,,,,,,,,,,0.6135,1,,,,,,,,,,,,,,,,,,,,,,,,0.345028818,-0.466393831,0,0,0,,,,,,,LIZARD,LB,m,m,./images/LIZARDLB.png,,,,,,,,,,,,,,,,,,,,,m,1,0.6135,,,,,,,,0,46,46,44,1
,,,,,,,,,,,,,,,,,5e9a85acff642f1158b7d33d,32,2022-02-12_18h33.23.804,lexical_decision_task_DD,2021.2.3,Linux x86_64,60.08171113,,,,,,,,,,,0.7284,0,,,,,,,,,,,,,,,,,,,,,,,,0.345028818,-0.466393831,0,0,0,,,,,,,WALNUT,C,z,m,./images/WALNUT.png,,,,,,,,,,,,,,,,,,,,,m,0,0.7284,,,,,,,,0,47,47,84,1
,,,,,,,,,,,,,,,,,5e9a85acff642f1158b7d33d,32,2022-02-12_18h33.23.804,lexical_decision_task_DD,2021.2.3,Linux x86_64,60.08171113,,,,,,,,,,,0.8105,1,,,,,,,,,,,,,,,,,,,,,,,,0.345028818,-0.466393831,0,0,0,,,,,,,WEASEL,LB,m,m,./images/WEASELLB.png,,,,,,,,,,,,,,,,,,,,,m,1,0.8105,,,,,,,,0,48,48,80,1
,,,,,,,,,,,,,,,,,5e9a85acff642f1158b7d33d,32,2022-02-12_18h33.23.804,lexical_decision_task_DD,2021.2.3,Linux x86_64,60.08171113,,,,,,,,,,,0.9807,0,,,,,,,,,,,,,,,,,,,,,,,,0.345028818,-0.466393831,0,0,0,,,,,,,STREAM,LB,z,m,./images/STREAMLB.png,,,,,,,,,,,,,,,,,,,,,m,0,0.9807,,,,,,,,0,49,49,125,1
,,,,,,,,,,,,,,,,,5e9a85acff642f1158b7d33d,32,2022-02-12_18h33.23.804,lexical_decision_task_DD,2021.2.3,Linux x86_64,60.08171113,,,,,,,,,,,0.7597,1,,,,,,,,,,,,,,,,,,,,,,,,0.345028818,-0.466393831,0,0,0,,,,,,,SKIING,LB,m,m,./images/SKIINGLB.png,,,,,,,,,,,,,,,,,,,,,m,1,0.7597,,,,,,,,0,50,50,17,1
,,,,,,,,,,,,,,,,,5e9a85acff642f1158b7d33d,32,2022-02-12_18h33.23.804,lexical_decision_task_DD,2021.2.3,Linux x86_64,60.08171113,,,,,,,,,,,0.608,1,,,,,,,,,,,,,,,,,,,,,,,,0.345028818,-0.466393831,0,0,0,,,,,,,CHAIN,C,z,m,./images/CHAIN.png,,,,,,,,,,,,,,,,,,,,,z,1,0.608,,,,,,,,0,51,51,126,1
,,,,,,,,,,,,,,,,,5e9a85acff642f1158b7d33d,32,2022-02-12_18h33.23.804,lexical_decision_task_DD,2021.2.3,Linux x86_64,60.08171113,,,,,,,,,,,0.6961,1,,,,,,,,,,,,,,,,,,,,,,,,0.345028818,-0.466393831,0,0,0,,,,,,,SPINE,LB,z,m,./images/SPINELB.png,,,,,,,,,,,,,,,,,,,,,z,1,0.6961,,,,,,,,0,52,52,149,1
,,,,,,,,,,,,,,,,,5e9a85acff642f1158b7d33d,32,2022-02-12_18h33.23.804,lexical_decision_task_DD,2021.2.3,Linux x86_64,60.08171113,,,,,,,,,,,0.9463,1,,,,,,,,,,,,,,,,,,,,,,,,0.345028818,-0.466393831,0,0,0,,,,,,,WHISKY,LB,z,m,./images/WHISKYLB.png,,,,,,,,,,,,,,,,,,,,,z,1,0.9463,,,,,,,,0,53,53,167,1
,,,,,,,,,,,,,,,,,5e9a85acff642f1158b7d33d,32,2022-02-12_18h33.23.804,lexical_decision_task_DD,2021.2.3,Linux x86_64,60.08171113,,,,,,,,,,,0.7982,1,,,,,,,,,,,,,,,,,,,,,,,,0.345028818,-0.466393831,0,0,0,,,,,,,SLOPE,C,z,m,./images/SLOPE.png,,,,,,,,,,,,,,,,,,,,,z,1,0.7982,,,,,,,,0,54,54,114,1
,,,,,,,,,,,,,,,,,5e9a85acff642f1158b7d33d,32,2022-02-12_18h33.23.804,lexical_decision_task_DD,2021.2.3,Linux x86_64,60.08171113,,,,,,,,,,,0.9475,1,,,,,,,,,,,,,,,,,,,,,,,,0.345028818,-0.466393831,0,0,0,,,,,,,PEBBLE,HB,z,m,./images/PEBBLEHB.png,,,,,,,,,,,,,,,,,,,,,z,1,0.9475,,,,,,,,0,55,55,166,1
,,,,,,,,,,,,,,,,,5e9a85acff642f1158b7d33d,32,2022-02-12_18h33.23.804,lexical_decision_task_DD,2021.2.3,Linux x86_64,60.08171113,,,,,,,,,,,0.6678,0,,,,,,,,,,,,,,,,,,,,,,,,0.345028818,-0.466393831,0,0,0,,,,,,,BOXER,HB,z,m,./images/BOXERHB.png,,,,,,,,,,,,,,,,,,,,,m,0,0.6678,,,,,,,,0,56,56,88,1
,,,,,,,,,,,,,,,,,5e9a85acff642f1158b7d33d,32,2022-02-12_18h33.23.804,lexical_decision_task_DD,2021.2.3,Linux x86_64,60.08171113,,,,,,,,,,,0.8278,1,,,,,,,,,,,,,,,,,,,,,,,,0.345028818,-0.466393831,0,0,0,,,,,,,ARTIST,HB,z,m,./images/ARTISTHB.png,,,,,,,,,,,,,,,,,,,,,z,1,0.8278,,,,,,,,0,57,57,145,1
,,,,,,,,,,,,,,,,,5e9a85acff642f1158b7d33d,32,2022-02-12_18h33.23.804,lexical_decision_task_DD,2021.2.3,Linux x86_64,60.08171113,,,,,,,,,,,1.0199,1,,,,,,,,,,,,,,,,,,,,,,,,0.345028818,-0.466393831,0,0,0,,,,,,,TIGER,HB,z,m,./images/TIGERHB.png,,,,,,,,,,,,,,,,,,,,,z,1,1.0199,,,,,,,,0,58,58,121,1
,,,,,,,,,,,,,,,,,5e9a85acff642f1158b7d33d,32,2022-02-12_18h33.23.804,lexical_decision_task_DD,2021.2.3,Linux x86_64,60.08171113,,,,,,,,,,,0.7653,1,,,,,,,,,,,,,,,,,,,,,,,,0.345028818,-0.466393831,0,0,0,,,,,,,CLOTH,LB,z,m,./images/CLOTHLB.png,,,,,,,,,,,,,,,,,,,,,z,1,0.7653,,,,,,,,0,59,59,107,1
,,,,,,,,,,,,,,,,,5e9a85acff642f1158b7d33d,32,2022-02-12_18h33.23.804,lexical_decision_task_DD,2021.2.3,Linux x86_64,60.08171113,,,,,,,,,,,0.5943,0,,,,,,,,,,,,,,,,,,,,,,,,0.345028818,-0.466393831,0,0,0,,,,,,,SAILOR,HB,m,m,./images/SAILORHB.png,,,,,,,,,,,,,,,,,,,,,z,0,0.5943,,,,,,,,0,60,60,67,1
,,,,,,,,,,,,,,,,,5e9a85acff642f1158b7d33d,32,2022-02-12_18h33.23.804,lexical_decision_task_DD,2021.2.3,Linux x86_64,60.08171113,,,,,,,,,,,0.6298,1,,,,,,,,,,,,,,,,,,,,,,,,0.345028818,-0.466393831,0,0,0,,,,,,,PIMPLE,LB,m,m,./images/PIMPLELB.png,,,,,,,,,,,,,,,,,,,,,m,1,0.6298,,,,,,,,0,61,61,71,1
,,,,,,,,,,,,,,,,,5e9a85acff642f1158b7d33d,32,2022-02-12_18h33.23.804,lexical_decision_task_DD,2021.2.3,Linux x86_64,60.08171113,,,,,,,,,,,0.5942,1,,,,,,,,,,,,,,,,,,,,,,,,0.345028818,-0.466393831,0,0,0,,,,,,,ARROW,C,z,m,./images/ARROW.png,,,,,,,,,,,,,,,,,,,,,z,1,0.5942,,,,,,,,0,62,62,153,1
,,,,,,,,,,,,,,,,,5e9a85acff642f1158b7d33d,32,2022-02-12_18h33.23.804,lexical_decision_task_DD,2021.2.3,Linux x86_64,60.08171113,,,,,,,,,,,0.7444,1,,,,,,,,,,,,,,,,,,,,,,,,0.345028818,-0.466393831,0,0,0,,,,,,,MAMMAL,LB,z,m,./images/MAMMALLB.png,,,,,,,,,,,,,,,,,,,,,z,1,0.7444,,,,,,,,0,63,63,146,1
,,,,,,,,,,,,,,,,,5e9a85acff642f1158b7d33d,32,2022-02-12_18h33.23.804,lexical_decision_task_DD,2021.2.3,Linux x86_64,60.08171113,,,,,,,,,,,0.6784,1,,,,,,,,,,,,,,,,,,,,,,,,0.345028818,-0.466393831,0,0,0,,,,,,,PISTOL,LB,z,m,./images/PISTOLLB.png,,,,,,,,,,,,,,,,,,,,,z,1,0.6784,,,,,,,,0,64,64,113,1
,,,,,,,,,,,,,,,,,5e9a85acff642f1158b7d33d,32,2022-02-12_18h33.23.804,lexical_decision_task_DD,2021.2.3,Linux x86_64,60.08171113,,,,,,,,,,,0.6632,1,,,,,,,,,,,,,,,,,,,,,,,,0.345028818,-0.466393831,0,0,0,,,,,,,CANYON,HB,m,m,./images/CANYONHB.png,,,,,,,,,,,,,,,,,,,,,m,1,0.6632,,,,,,,,0,65,65,34,1
,,,,,,,,,,,,,,,,,5e9a85acff642f1158b7d33d,32,2022-02-12_18h33.23.804,lexical_decision_task_DD,2021.2.3,Linux x86_64,60.08171113,,,,,,,,,,,0.6665,1,,,,,,,,,,,,,,,,,,,,,,,,0.345028818,-0.466393831,0,0,0,,,,,,,CLOUD,LB,z,m,./images/CLOUDLB.png,,,,,,,,,,,,,,,,,,,,,z,1,0.6665,,,,,,,,0,66,66,110,1
,,,,,,,,,,,,,,,,,5e9a85acff642f1158b7d33d,32,2022-02-12_18h33.23.804,lexical_decision_task_DD,2021.2.3,Linux x86_64,60.08171113,,,,,,,,,,,0.5867,1,,,,,,,,,,,,,,,,,,,,,,,,0.345028818,-0.466393831,0,0,0,,,,,,,ENGINE,LB,z,m,./images/ENGINELB.png,,,,,,,,,,,,,,,,,,,,,z,1,0.5867,,,,,,,,0,67,67,122,1
,,,,,,,,,,,,,,,,,5e9a85acff642f1158b7d33d,32,2022-02-12_18h33.23.804,lexical_decision_task_DD,2021.2.3,Linux x86_64,60.08171113,,,,,,,,,,,0.766,1,,,,,,,,,,,,,,,,,,,,,,,,0.345028818,-0.466393831,0,0,0,,,,,,,CURRY,C,z,m,./images/CURRY.png,,,,,,,,,,,,,,,,,,,,,z,1,0.766,,,,,,,,0,68,68,144,1
,,,,,,,,,,,,,,,,,5e9a85acff642f1158b7d33d,32,2022-02-12_18h33.23.804,lexical_decision_task_DD,2021.2.3,Linux x86_64,60.08171113,,,,,,,,,,,0.5987,1,,,,,,,,,,,,,,,,,,,,,,,,0.345028818,-0.466393831,0,0,0,,,,,,,BABOON,HB,m,m,./images/BABOONHB.png,,,,,,,,,,,,,,,,,,,,,m,1,0.5987,,,,,,,,0,69,69,58,1
,,,,,,,,,,,,,,,,,5e9a85acff642f1158b7d33d,32,2022-02-12_18h33.23.804,lexical_decision_task_DD,2021.2.3,Linux x86_64,60.08171113,,,,,,,,,,,0.6178,1,,,,,,,,,,,,,,,,,,,,,,,,0.345028818,-0.466393831,0,0,0,,,,,,,FALCON,HB,m,m,./images/FALCONHB.png,,,,,,,,,,,,,,,,,,,,,m,1,0.6178,,,,,,,,0,70,70,28,1
,,,,,,,,,,,,,,,,,5e9a85acff642f1158b7d33d,32,2022-02-12_18h33.23.804,lexical_decision_task_DD,2021.2.3,Linux x86_64,60.08171113,,,,,,,,,,,0.8804,0,,,,,,,,,,,,,,,,,,,,,,,,0.345028818,-0.466393831,0,0,0,,,,,,,DIVER,C,z,m,./images/DIVER.png,,,,,,,,,,,,,,,,,,,,,m,0,0.8804,,,,,,,,0,71,71,93,1
,,,,,,,,,,,,,,,,,5e9a85acff642f1158b7d33d,32,2022-02-12_18h33.23.804,lexical_decision_task_DD,2021.2.3,Linux x86_64,60.08171113,,,,,,,,,,,0.6798,1,,,,,,,,,,,,,,,,,,,,,,,,0.345028818,-0.466393831,0,0,0,,,,,,,FOLDER,C,m,m,./images/FOLDER.png,,,,,,,,,,,,,,,,,,,,,m,1,0.6798,,,,,,,,0,72,72,42,1
,,,,,,,,,,,,,,,,,5e9a85acff642f1158b7d33d,32,2022-02-12_18h33.23.804,lexical_decision_task_DD,2021.2.3,Linux x86_64,60.08171113,,,,,,,,,,,0.8658,1,,,,,,,,,,,,,,,,,,,,,,,,0.345028818,-0.466393831,0,0,0,,,,,,,CANDY,C,z,m,./images/CANDY.png,,,,,,,,,,,,,,,,,,,,,z,1,0.8658,,,,,,,,0,73,73,123,1
,,,,,,,,,,,,,,,,,5e9a85acff642f1158b7d33d,32,2022-02-12_18h33.23.804,lexical_decision_task_DD,2021.2.3,Linux x86_64,60.08171113,,,,,,,,,,,0.6956,1,,,,,,,,,,,,,,,,,,,,,,,,0.345028818,-0.466393831,0,0,0,,,,,,,CLIFF,LB,z,m,./images/CLIFFLB.png,,,,,,,,,,,,,,,,,,,,,z,1,0.6956,,,,,,,,0,74,74,92,1
,,,,,,,,,,,,,,,,,5e9a85acff642f1158b7d33d,32,2022-02-12_18h33.23.804,lexical_decision_task_DD,2021.2.3,Linux x86_64,60.08171113,,,,,,,,,,,1.1053,0,,,,,,,,,,,,,,,,,,,,,,,,0.345028818,-0.466393831,0,0,0,,,,,,,BANNER,HB,m,m,./images/BANNERHB.png,,,,,,,,,,,,,,,,,,,,,z,0,1.1053,,,,,,,,0,75,75,52,1
,,,,,,,,,,,,,,,,,5e9a85acff642f1158b7d33d,32,2022-02-12_18h33.23.804,lexical_decision_task_DD,2021.2.3,Linux x86_64,60.08171113,,,,,,,,,,,0.6167,1,,,,,,,,,,,,,,,,,,,,,,,,0.345028818,-0.466393831,0,0,0,,,,,,,PARCEL,C,z,m,./images/PARCEL.png,,,,,,,,,,,,,,,,,,,,,z,1,0.6167,,,,,,,,0,76,76,102,1
,,,,,,,,,,,,,,,,,5e9a85acff642f1158b7d33d,32,2022-02-12_18h33.23.804,lexical_decision_task_DD,2021.2.3,Linux x86_64,60.08171113,,,,,,,,,,,0.562,0,,,,,,,,,,,,,,,,,,,,,,,,0.345028818,-0.466393831,0,0,0,,,,,,,FINGER,C,m,m,./images/FINGER.png,,,,,,,,,,,,,,,,,,,,,z,0,0.562,,,,,,,,0,77,77,3,1
,,,,,,,,,,,,,,,,,5e9a85acff642f1158b7d33d,32,2022-02-12_18h33.23.804,lexical_decision_task_DD,2021.2.3,Linux x86_64,60.08171113,,,,,,,,,,,0.5905,1,,,,,,,,,,,,,,,,,,,,,,,,0.345028818,-0.466393831,0,0,0,,,,,,,JAGUAR,C,m,m,./images/JAGUAR.png,,,,,,,,,,,,,,,,,,,,,m,1,0.5905,,,,,,,,0,78,78,18,1
,,,,,,,,,,,,,,,,,5e9a85acff642f1158b7d33d,32,2022-02-12_18h33.23.804,lexical_decision_task_DD,2021.2.3,Linux x86_64,60.08171113,,,,,,,,,,,0.6941,0,,,,,,,,,,,,,,,,,,,,,,,,0.345028818,-0.466393831,0,0,0,,,,,,,DOUGH,HB,m,m,./images/DOUGHHB.png,,,,,,,,,,,,,,,,,,,,,z,0,0.6941,,,,,,,,0,79,79,19,1
,,,,,,,,,,,,,,,,,5e9a85acff642f1158b7d33d,32,2022-02-12_18h33.23.804,lexical_decision_task_DD,2021.2.3,Linux x86_64,60.08171113,,,,,,,,,,,0.6618,1,,,,,,,,,,,,,,,,,,,,,,,,0.345028818,-0.466393831,0,0,0,,,,,,,NOOSE,C,m,m,./images/NOOSE.png,,,,,,,,,,,,,,,,,,,,,m,1,0.6618,,,,,,,,0,80,80,72,1
,,,,,,,,,,,,,,,,,5e9a85acff642f1158b7d33d,32,2022-02-12_18h33.23.804,lexical_decision_task_DD,2021.2.3,Linux x86_64,60.08171113,,,,,,,,,,,0.9104,1,,,,,,,,,,,,,,,,,,,,,,,,0.345028818,-0.466393831,0,0,0,,,,,,,WRIST,HB,m,m,./images/WRISTHB.png,,,,,,,,,,,,,,,,,,,,,m,1,0.9104,,,,,,,,0,81,81,25,1
,,,,,,,,,,,,,,,,,5e9a85acff642f1158b7d33d,32,2022-02-12_18h33.23.804,lexical_decision_task_DD,2021.2.3,Linux x86_64,60.08171113,,,,,,,,,,,0.6174,1,,,,,,,,,,,,,,,,,,,,,,,,0.345028818,-0.466393831,0,0,0,,,,,,,TULIP,LB,m,m,./images/TULIPLB.png,,,,,,,,,,,,,,,,,,,,,m,1,0.6174,,,,,,,,0,82,82,8,1
,,,,,,,,,,,,,,,,,5e9a85acff642f1158b7d33d,32,2022-02-12_18h33.23.804,lexical_decision_task_DD,2021.2.3,Linux x86_64,60.08171113,,,,,,,,,,,0.7018,1,,,,,,,,,,,,,,,,,,,,,,,,0.345028818,-0.466393831,0,0,0,space,,,,,,MUMMY,HB,z,m,./images/MUMMYHB.png,18.3814,,,,,,,,,,,,,,,,,,,,z,1,0.7018,,,,,,,,0,83,83,130,1
,,,,,,,,,,,,,,,,,5e9a85acff642f1158b7d33d,32,2022-02-12_18h33.23.804,lexical_decision_task_DD,2021.2.3,Linux x86_64,60.08171113,,,,,,,,,,,0.6851,1,,,,,,,,,,,,,,,,,,,,,,,,0.345028818,-0.466393831,0,0,0,,,,,,,DANCER,C,z,m,./images/DANCER.png,,,,,,,,,,,,,,,,,,,,,z,1,0.6851,,,,,,,,0,84,84,105,1
,,,,,,,,,,,,,,,,,5e9a85acff642f1158b7d33d,32,2022-02-12_18h33.23.804,lexical_decision_task_DD,2021.2.3,Linux x86_64,60.08171113,,,,,,,,,,,0.5974,1,,,,,,,,,,,,,,,,,,,,,,,,0.345028818,-0.466393831,0,0,0,,,,,,,MIRROR,C,m,m,./images/MIRROR.png,,,,,,,,,,,,,,,,,,,,,m,1,0.5974,,,,,,,,0,85,85,63,1
,,,,,,,,,,,,,,,,,5e9a85acff642f1158b7d33d,32,2022-02-12_18h33.23.804,lexical_decision_task_DD,2021.2.3,Linux x86_64,60.08171113,,,,,,,,,,,0.6491,1,,,,,,,,,,,,,,,,,,,,,,,,0.345028818,-0.466393831,0,0,0,,,,,,,BERRY,LB,m,m,./images/BERRYLB.png,,,,,,,,,,,,,,,,,,,,,m,1,0.6491,,,,,,,,0,86,86,47,1
,,,,,,,,,,,,,,,,,5e9a85acff642f1158b7d33d,32,2022-02-12_18h33.23.804,lexical_decision_task_DD,2021.2.3,Linux x86_64,60.08171113,,,,,,,,,,,0.6036,0,,,,,,,,,,,,,,,,,,,,,,,,0.345028818,-0.466393831,0,0,0,,,,,,,BAMBOO,LB,z,m,./images/BAMBOOLB.png,,,,,,,,,,,,,,,,,,,,,m,0,0.6036,,,,,,,,0,87,87,89,1
,,,,,,,,,,,,,,,,,5e9a85acff642f1158b7d33d,32,2022-02-12_18h33.23.804,lexical_decision_task_DD,2021.2.3,Linux x86_64,60.08171113,,,,,,,,,,,0.7773,1,,,,,,,,,,,,,,,,,,,,,,,,0.345028818,-0.466393831,0,0,0,,,,,,,STOOL,HB,z,m,./images/STOOLHB.png,,,,,,,,,,,,,,,,,,,,,z,1,0.7773,,,,,,,,0,88,88,127,1
,,,,,,,,,,,,,,,,,5e9a85acff642f1158b7d33d,32,2022-02-12_18h33.23.804,lexical_decision_task_DD,2021.2.3,Linux x86_64,60.08171113,,,,,,,,,,,1.2811,1,,,,,,,,,,,,,,,,,,,,,,,,0.345028818,-0.466393831,0,0,0,,,,,,,MELON,HB,m,m,./images/MELONHB.png,,,,,,,,,,,,,,,,,,,,,m,1,1.2811,,,,,,,,0,89,89,22,1
,,,,,,,,,,,,,,,,,5e9a85acff642f1158b7d33d,32,2022-02-12_18h33.23.804,lexical_decision_task_DD,2021.2.3,Linux x86_64,60.08171113,,,,,,,,,,,0.6485,1,,,,,,,,,,,,,,,,,,,,,,,,0.345028818,-0.466393831,0,0,0,,,,,,,JUMPER,LB,z,m,./images/JUMPERLB.png,,,,,,,,,,,,,,,,,,,,,z,1,0.6485,,,,,,,,0,90,90,158,1
,,,,,,,,,,,,,,,,,5e9a85acff642f1158b7d33d,32,2022-02-12_18h33.23.804,lexical_decision_task_DD,2021.2.3,Linux x86_64,60.08171113,,,,,,,,,,,0.8138,0,,,,,,,,,,,,,,,,,,,,,,,,0.345028818,-0.466393831,0,0,0,,,,,,,CRUMB,LB,m,m,./images/CRUMBLB.png,,,,,,,,,,,,,,,,,,,,,z,0,0.8138,,,,,,,,0,91,91,29,1
,,,,,,,,,,,,,,,,,5e9a85acff642f1158b7d33d,32,2022-02-12_18h33.23.804,lexical_decision_task_DD,2021.2.3,Linux x86_64,60.08171113,,,,,,,,,,,0.7523,1,,,,,,,,,,,,,,,,,,,,,,,,0.345028818,-0.466393831,0,0,0,,,,,,,SHELF,C,m,m,./images/SHELF.png,,,,,,,,,,,,,,,,,,,,,m,1,0.7523,,,,,,,,0,92,92,39,1
,,,,,,,,,,,,,,,,,5e9a85acff642f1158b7d33d,32,2022-02-12_18h33.23.804,lexical_decision_task_DD,2021.2.3,Linux x86_64,60.08171113,,,,,,,,,,,0.5477,1,,,,,,,,,,,,,,,,,,,,,,,,0.345028818,-0.466393831,0,0,0,,,,,,,MEDAL,LB,z,m,./images/MEDALLB.png,,,,,,,,,,,,,,,,,,,,,z,1,0.5477,,,,,,,,0,93,93,95,1
,,,,,,,,,,,,,,,,,5e9a85acff642f1158b7d33d,32,2022-02-12_18h33.23.804,lexical_decision_task_DD,2021.2.3,Linux x86_64,60.08171113,,,,,,,,,,,0.6447,0,,,,,,,,,,,,,,,,,,,,,,,,0.345028818,-0.466393831,0,0,0,,,,,,,BURIAL,LB,m,m,./images/BURIALLB.png,,,,,,,,,,,,,,,,,,,,,z,0,0.6447,,,,,,,,0,94,94,59,1
,,,,,,,,,,,,,,,,,5e9a85acff642f1158b7d33d,32,2022-02-12_18h33.23.804,lexical_decision_task_DD,2021.2.3,Linux x86_64,60.08171113,,,,,,,,,,,0.9679,0,,,,,,,,,,,,,,,,,,,,,,,,0.345028818,-0.466393831,0,0,0,,,,,,,SHORE,C,m,m,./images/SHORE.png,,,,,,,,,,,,,,,,,,,,,z,0,0.9679,,,,,,,,0,95,95,12,1
,,,,,,,,,,,,,,,,,5e9a85acff642f1158b7d33d,32,2022-02-12_18h33.23.804,lexical_decision_task_DD,2021.2.3,Linux x86_64,60.08171113,,,,,,,,,,,0.7439,0,,,,,,,,,,,,,,,,,,,,,,,,0.345028818,-0.466393831,0,0,0,,,,,,,MOOSE,C,m,m,./images/MOOSE.png,,,,,,,,,,,,,,,,,,,,,z,0,0.7439,,,,,,,,0,96,96,57,1
,,,,,,,,,,,,,,,,,5e9a85acff642f1158b7d33d,32,2022-02-12_18h33.23.804,lexical_decision_task_DD,2021.2.3,Linux x86_64,60.08171113,,,,,,,,,,,0.5105,1,,,,,,,,,,,,,,,,,,,,,,,,0.345028818,-0.466393831,0,0,0,,,,,,,WAGON,HB,z,m,./images/WAGONHB.png,,,,,,,,,,,,,,,,,,,,,z,1,0.5105,,,,,,,,0,97,97,91,1
,,,,,,,,,,,,,,,,,5e9a85acff642f1158b7d33d,32,2022-02-12_18h33.23.804,lexical_decision_task_DD,2021.2.3,Linux x86_64,60.08171113,,,,,,,,,,,0.6636,1,,,,,,,,,,,,,,,,,,,,,,,,0.345028818,-0.466393831,0,0,0,,,,,,,CHERRY,C,z,m,./images/CHERRY.png,,,,,,,,,,,,,,,,,,,,,z,1,0.6636,,,,,,,,0,98,98,138,1
,,,,,,,,,,,,,,,,,5e9a85acff642f1158b7d33d,32,2022-02-12_18h33.23.804,lexical_decision_task_DD,2021.2.3,Linux x86_64,60.08171113,,,,,,,,,,,0.5354,1,,,,,,,,,,,,,,,,,,,,,,,,0.345028818,-0.466393831,0,0,0,,,,,,,DRILL,C,z,m,./images/DRILL.png,,,,,,,,,,,,,,,,,,,,,z,1,0.5354,,,,,,,,0,99,99,165,1
,,,,,,,,,,,,,,,,,5e9a85acff642f1158b7d33d,32,2022-02-12_18h33.23.804,lexical_decision_task_DD,2021.2.3,Linux x86_64,60.08171113,,,,,,,,,,,0.6628,1,,,,,,,,,,,,,,,,,,,,,,,,0.345028818,-0.466393831,0,0,0,,,,,,,JUNGLE,LB,m,m,./images/JUNGLELB.png,,,,,,,,,,,,,,,,,,,,,m,1,0.6628,,,,,,,,0,100,100,83,1
,,,,,,,,,,,,,,,,,5e9a85acff642f1158b7d33d,32,2022-02-12_18h33.23.804,lexical_decision_task_DD,2021.2.3,Linux x86_64,60.08171113,,,,,,,,,,,0.5683,0,,,,,,,,,,,,,,,,,,,,,,,,0.345028818,-0.466393831,0,0,0,,,,,,,GRAIN,C,m,m,./images/GRAIN.png,,,,,,,,,,,,,,,,,,,,,z,0,0.5683,,,,,,,,0,101,101,75,1
,,,,,,,,,,,,,,,,,5e9a85acff642f1158b7d33d,32,2022-02-12_18h33.23.804,lexical_decision_task_DD,2021.2.3,Linux x86_64,60.08171113,,,,,,,,,,,0.7117,0,,,,,,,,,,,,,,,,,,,,,,,,0.345028818,-0.466393831,0,0,0,,,,,,,BRIDE,HB,z,m,./images/BRIDEHB.png,,,,,,,,,,,,,,,,,,,,,m,0,0.7117,,,,,,,,0,102,102,148,1
,,,,,,,,,,,,,,,,,5e9a85acff642f1158b7d33d,32,2022-02-12_18h33.23.804,lexical_decision_task_DD,2021.2.3,Linux x86_64,60.08171113,,,,,,,,,,,0.7,0,,,,,,,,,,,,,,,,,,,,,,,,0.345028818,-0.466393831,0,0,0,,,,,,,SCREW,C,m,m,./images/SCREW.png,,,,,,,,,,,,,,,,,,,,,z,0,0.7,,,,,,,,0,103,103,24,1
,,,,,,,,,,,,,,,,,5e9a85acff642f1158b7d33d,32,2022-02-12_18h33.23.804,lexical_decision_task_DD,2021.2.3,Linux x86_64,60.08171113,,,,,,,,,,,0.6643,1,,,,,,,,,,,,,,,,,,,,,,,,0.345028818,-0.466393831,0,0,0,,,,,,,THROAT,C,m,m,./images/THROAT.png,,,,,,,,,,,,,,,,,,,,,m,1,0.6643,,,,,,,,0,104,104,36,1
,,,,,,,,,,,,,,,,,5e9a85acff642f1158b7d33d,32,2022-02-12_18h33.23.804,lexical_decision_task_DD,2021.2.3,Linux x86_64,60.08171113,,,,,,,,,,,0.9794,0,,,,,,,,,,,,,,,,,,,,,,,,0.345028818,-0.466393831,0,0,0,,,,,,,GRAPE,HB,z,m,./images/GRAPEHB.png,,,,,,,,,,,,,,,,,,,,,m,0,0.9794,,,,,,,,0,105,105,100,1
,,,,,,,,,,,,,,,,,5e9a85acff642f1158b7d33d,32,2022-02-12_18h33.23.804,lexical_decision_task_DD,2021.2.3,Linux x86_64,60.08171113,,,,,,,,,,,0.6202,1,,,,,,,,,,,,,,,,,,,,,,,,0.345028818,-0.466393831,0,0,0,,,,,,,PASTA,LB,m,m,./images/PASTALB.png,,,,,,,,,,,,,,,,,,,,,m,1,0.6202,,,,,,,,0,106,106,5,1
,,,,,,,,,,,,,,,,,5e9a85acff642f1158b7d33d,32,2022-02-12_18h33.23.804,lexical_decision_task_DD,2021.2.3,Linux x86_64,60.08171113,,,,,,,,,,,0.5202,1,,,,,,,,,,,,,,,,,,,,,,,,0.345028818,-0.466393831,0,0,0,,,,,,,HEATER,LB,z,m,./images/HEATERLB.png,,,,,,,,,,,,,,,,,,,,,z,1,0.5202,,,,,,,,0,107,107,140,1
,,,,,,,,,,,,,,,,,5e9a85acff642f1158b7d33d,32,2022-02-12_18h33.23.804,lexical_decision_task_DD,2021.2.3,Linux x86_64,60.08171113,,,,,,,,,,,0.6372,0,,,,,,,,,,,,,,,,,,,,,,,,0.345028818,-0.466393831,0,0,0,,,,,,,WHEEL,LB,z,m,./images/WHEELLB.png,,,,,,,,,,,,,,,,,,,,,m,0,0.6372,,,,,,,,0,108,108,161,1
,,,,,,,,,,,,,,,,,5e9a85acff642f1158b7d33d,32,2022-02-12_18h33.23.804,lexical_decision_task_DD,2021.2.3,Linux x86_64,60.08171113,,,,,,,,,,,0.5438,1,,,,,,,,,,,,,,,,,,,,,,,,0.345028818,-0.466393831,0,0,0,,,,,,,CASINO,HB,z,m,./images/CASINOHB.png,,,,,,,,,,,,,,,,,,,,,z,1,0.5438,,,,,,,,0,109,109,112,1
,,,,,,,,,,,,,,,,,5e9a85acff642f1158b7d33d,32,2022-02-12_18h33.23.804,lexical_decision_task_DD,2021.2.3,Linux x86_64,60.08171113,,,,,,,,,,,0.5286,0,,,,,,,,,,,,,,,,,,,,,,,,0.345028818,-0.466393831,0,0,0,,,,,,,CRUST,HB,m,m,./images/CRUSTHB.png,,,,,,,,,,,,,,,,,,,,,z,0,0.5286,,,,,,,,0,110,110,79,1
,,,,,,,,,,,,,,,,,5e9a85acff642f1158b7d33d,32,2022-02-12_18h33.23.804,lexical_decision_task_DD,2021.2.3,Linux x86_64,60.08171113,,,,,,,,,,,0.5287,1,,,,,,,,,,,,,,,,,,,,,,,,0.345028818,-0.466393831,0,0,0,,,,,,,VALLEY,LB,z,m,./images/VALLEYLB.png,,,,,,,,,,,,,,,,,,,,,z,1,0.5287,,,,,,,,0,111,111,152,1
,,,,,,,,,,,,,,,,,5e9a85acff642f1158b7d33d,32,2022-02-12_18h33.23.804,lexical_decision_task_DD,2021.2.3,Linux x86_64,60.08171113,,,,,,,,,,,0.6791,0,,,,,,,,,,,,,,,,,,,,,,,,0.345028818,-0.466393831,0,0,0,,,,,,,BASKET,LB,z,m,./images/BASKETLB.png,,,,,,,,,,,,,,,,,,,,,m,0,0.6791,,,,,,,,0,112,112,128,1
,,,,,,,,,,,,,,,,,5e9a85acff642f1158b7d33d,32,2022-02-12_18h33.23.804,lexical_decision_task_DD,2021.2.3,Linux x86_64,60.08171113,,,,,,,,,,,0.5384,0,,,,,,,,,,,,,,,,,,,,,,,,0.345028818,-0.466393831,0,0,0,,,,,,,MAGGOT,C,m,m,./images/MAGGOT.png,,,,,,,,,,,,,,,,,,,,,z,0,0.5384,,,,,,,,0,113,113,33,1
,,,,,,,,,,,,,,,,,5e9a85acff642f1158b7d33d,32,2022-02-12_18h33.23.804,lexical_decision_task_DD,2021.2.3,Linux x86_64,60.08171113,,,,,,,,,,,0.5458,1,,,,,,,,,,,,,,,,,,,,,,,,0.345028818,-0.466393831,0,0,0,,,,,,,FARMER,LB,m,m,./images/FARMERLB.png,,,,,,,,,,,,,,,,,,,,,m,1,0.5458,,,,,,,,0,114,114,65,1
,,,,,,,,,,,,,,,,,5e9a85acff642f1158b7d33d,32,2022-02-12_18h33.23.804,lexical_decision_task_DD,2021.2.3,Linux x86_64,60.08171113,,,,,,,,,,,0.6638,1,,,,,,,,,,,,,,,,,,,,,,,,0.345028818,-0.466393831,0,0,0,,,,,,,SAUNA,C,z,m,./images/SAUNA.png,,,,,,,,,,,,,,,,,,,,,z,1,0.6638,,,,,,,,0,115,115,117,1
,,,,,,,,,,,,,,,,,5e9a85acff642f1158b7d33d,32,2022-02-12_18h33.23.804,lexical_decision_task_DD,2021.2.3,Linux x86_64,60.08171113,,,,,,,,,,,0.6173,1,,,,,,,,,,,,,,,,,,,,,,,,0.345028818,-0.466393831,0,0,0,,,,,,,POKER,HB,z,m,./images/POKERHB.png,,,,,,,,,,,,,,,,,,,,,z,1,0.6173,,,,,,,,0,116,116,151,1
,,,,,,,,,,,,,,,,,5e9a85acff642f1158b7d33d,32,2022-02-12_18h33.23.804,lexical_decision_task_DD,2021.2.3,Linux x86_64,60.08171113,,,,,,,,,,,0.6101,1,,,,,,,,,,,,,,,,,,,,,,,,0.345028818,-0.466393831,0,0,0,,,,,,,RAZOR,HB,z,m,./images/RAZORHB.png,,,,,,,,,,,,,,,,,,,,,z,1,0.6101,,,,,,,,0,117,117,118,1
,,,,,,,,,,,,,,,,,5e9a85acff642f1158b7d33d,32,2022-02-12_18h33.23.804,lexical_decision_task_DD,2021.2.3,Linux x86_64,60.08171113,,,,,,,,,,,0.6973,1,,,,,,,,,,,,,,,,,,,,,,,,0.345028818,-0.466393831,0,0,0,,,,,,,BARREL,LB,m,m,./images/BARRELLB.png,,,,,,,,,,,,,,,,,,,,,m,1,0.6973,,,,,,,,0,118,118,32,1
,,,,,,,,,,,,,,,,,5e9a85acff642f1158b7d33d,32,2022-02-12_18h33.23.804,lexical_decision_task_DD,2021.2.3,Linux x86_64,60.08171113,,,,,,,,,,,0.8484,1,,,,,,,,,,,,,,,,,,,,,,,,0.345028818,-0.466393831,0,0,0,,,,,,,PEARL,HB,m,m,./images/PEARLHB.png,,,,,,,,,,,,,,,,,,,,,m,1,0.8484,,,,,,,,0,119,119,46,1
,,,,,,,,,,,,,,,,,5e9a85acff642f1158b7d33d,32,2022-02-12_18h33.23.804,lexical_decision_task_DD,2021.2.3,Linux x86_64,60.08171113,,,,,,,,,,,0.5833,0,,,,,,,,,,,,,,,,,,,,,,,,0.345028818,-0.466393831,0,0,0,,,,,,,PENCE,HB,m,m,./images/PENCEHB.png,,,,,,,,,,,,,,,,,,,,,z,0,0.5833,,,,,,,,0,120,120,16,1
,,,,,,,,,,,,,,,,,5e9a85acff642f1158b7d33d,32,2022-02-12_18h33.23.804,lexical_decision_task_DD,2021.2.3,Linux x86_64,60.08171113,,,,,,,,,,,0.7316,0,,,,,,,,,,,,,,,,,,,,,,,,0.345028818,-0.466393831,0,0,0,,,,,,,TWINS,C,m,m,./images/TWINS.png,,,,,,,,,,,,,,,,,,,,,z,0,0.7316,,,,,,,,0,121,121,60,1
,,,,,,,,,,,,,,,,,5e9a85acff642f1158b7d33d,32,2022-02-12_18h33.23.804,lexical_decision_task_DD,2021.2.3,Linux x86_64,60.08171113,,,,,,,,,,,0.4182,0,,,,,,,,,,,,,,,,,,,,,,,,0.345028818,-0.466393831,0,0,0,,,,,,,SNAKE,HB,z,m,./images/SNAKEHB.png,,,,,,,,,,,,,,,,,,,,,m,0,0.4182,,,,,,,,0,122,122,124,1
,,,,,,,,,,,,,,,,,5e9a85acff642f1158b7d33d,32,2022-02-12_18h33.23.804,lexical_decision_task_DD,2021.2.3,Linux x86_64,60.08171113,,,,,,,,,,,0.4978,0,,,,,,,,,,,,,,,,,,,,,,,,0.345028818,-0.466393831,0,0,0,,,,,,,SWEAT,C,m,m,./images/SWEAT.png,,,,,,,,,,,,,,,,,,,,,z,0,0.4978,,,,,,,,0,123,123,66,1
,,,,,,,,,,,,,,,,,5e9a85acff642f1158b7d33d,32,2022-02-12_18h33.23.804,lexical_decision_task_DD,2021.2.3,Linux x86_64,60.08171113,,,,,,,,,,,0.5055,0,,,,,,,,,,,,,,,,,,,,,,,,0.345028818,-0.466393831,0,0,0,,,,,,,DRUMS,HB,m,m,./images/DRUMSHB.png,,,,,,,,,,,,,,,,,,,,,z,0,0.5055,,,,,,,,0,124,124,49,1
,,,,,,,,,,,,,,,,,5e9a85acff642f1158b7d33d,32,2022-02-12_18h33.23.804,lexical_decision_task_DD,2021.2.3,Linux x86_64,60.08171113,,,,,,,,,,,0.7109,0,,,,,,,,,,,,,,,,,,,,,,,,0.344186194,-0.466393831,0,0,0,space,,,,,,QUILL,HB,m,m,./images/QUILLHB.png,32.1511,,,,,,,,,,,,,,,,,,,,z,0,0.7109,,,,,,,,0,125,125,31,1
,,,,,,,,,,,,,,,,,5e9a85acff642f1158b7d33d,32,2022-02-12_18h33.23.804,lexical_decision_task_DD,2021.2.3,Linux x86_64,60.08171113,,,,,,,,,,,0.8044,1,,,,,,,,,,,,,,,,,,,,,,,,0.344186194,-0.466393831,0,0,0,,,,,,,MUSCLE,HB,m,m,./images/MUSCLEHB.png,,,,,,,,,,,,,,,,,,,,,m,1,0.8044,,,,,,,,0,126,126,4,1
