key_resp.keys,instr_done_touch.x,instr_done_touch.y,instr_done_touch.leftButton,instr_done_touch.midButton,instr_done_touch.rightButton,instr_done_touch.clicked_name,instruction_pages.thisRepN,instruction_pages.thisTrialN,instruction_pages.thisN,instruction_pages.thisIndex,instruction_pages.ran,pageN,phase,instruct_text,has_image,instruct_image,participant,age,date,expName,psychopyVersion,OS,frameRate,response.keys,response.corr,response.rt,touch_resp.x,touch_resp.y,touch_resp.leftButton,touch_resp.midButton,touch_resp.rightButton,touch_resp.time,touch_resp.clicked_name,rt,corr,practrials.thisRepN,practrials.thisTrialN,practrials.thisN,practrials.thisIndex,practrials.ran,TrialID,Target,corrAns,key_resp.rt,end_of_practice_trials_pages.thisRepN,end_of_practice_trials_pages.thisTrialN,end_of_practice_trials_pages.thisN,end_of_practice_trials_pages.thisIndex,end_of_practice_trials_pages.ran,key_resp_2.keys,key_resp_2.corr,key_resp_2.rt,targ_click.x,targ_click.y,targ_click.leftButton,targ_click.midButton,targ_click.rightButton,targ_click.time,targ_click.clicked_name,break_done_touch.x,break_done_touch.y,break_done_touch.leftButton,break_done_touch.midButton,break_done_touch.rightButton,break_done_keyboard.keys,maintrials.thisRepN,maintrials.thisTrialN,maintrials.thisN,maintrials.thisIndex,maintrials.ran,string,blur,study,lex,stim_path,break_done_keyboard.rt,mouse_2.x,mouse_2.y,mouse_2.leftButton,mouse_2.midButton,mouse_2.rightButton,mouse_2.clicked_name,slider.response,slider.rt,trials.thisRepN,trials.thisTrialN,trials.thisN,trials.thisIndex,trials.ran,test_instructions.thisRepN,test_instructions.thisTrialN,test_instructions.thisN,test_instructions.thisIndex,test_instructions.ran,key_resp_3.keys,key_resp_3.corr,key_resp_3.rt,test_click.x,test_click.y,test_click.leftButton,test_click.midButton,test_click.rightButton,test_click.time,test_click.clicked_name,test_phase.thisRepN,test_phase.thisTrialN,test_phase.thisN,test_phase.thisIndex,test_phase.ran
,0.063566902,-0.407702922,1,0,0,instr_done_button,0,0,0,0,1,1,instructions,"INSTRUCTIONS
At the start of each trial, look at the plus sign  (+) in the center of the screen.  This tells you that a trial is about to begin and where to look. Second, the plus sign will disappear and a string of letters will appear. Your task is to determine if the string of letters is a word or not. If the item is a word press the M key (on keyboard)  or touch the word button (phone/tablet).  If the item is not a word,  press the  Z key (on keyboard)  or touch the nonword button (on phone/tablet). 
Press the space bar or touch  continue.",0,,5f3d3d3232c27107a850dd85,52,2022-02-12_11h23.05.909,lexical_decision_task_DD,2021.2.3,Win32,59.94844434,,,,,,,,,,,,,,,,,,,,,,,,,,,,,,,,,,,,,,,,,,,,,,,,,,,,,,,,,,,,,,,,,,,,,,,,,,,,,,,,,,,,,,
,0.115382767,-0.416030415,1,0,0,instr_done_button,0,1,1,1,1,2,instructions,"If your device has a keyboard, press the 'Z' key for nonwords and the 'M' key for words.





Press the space bar or touch the button below to continue.",0,keyboard-example.gif,5f3d3d3232c27107a850dd85,52,2022-02-12_11h23.05.909,lexical_decision_task_DD,2021.2.3,Win32,59.94844434,,,,,,,,,,,,,,,,,,,,,,,,,,,,,,,,,,,,,,,,,,,,,,,,,,,,,,,,,,,,,,,,,,,,,,,,,,,,,,,,,,,,,,
,0.1301873,-0.394748899,1,0,0,instr_done_button,0,2,2,2,1,3,instructions,"If you are using a touchscreen only device, use the buttons on the screen. Do not use the mouse.





Press the space bar or touch the button below to continue.",0,touchscreen-example.gif,5f3d3d3232c27107a850dd85,52,2022-02-12_11h23.05.909,lexical_decision_task_DD,2021.2.3,Win32,59.94844434,,,,,,,,,,,,,,,,,,,,,,,,,,,,,,,,,,,,,,,,,,,,,,,,,,,,,,,,,,,,,,,,,,,,,,,,,,,,,,,,,,,,,,
,0.03673363,-0.405852355,1,0,0,instr_done_button,0,3,3,3,1,4,instructions,"It is very important that you respond as quickly and accurately as possible, as each letter string will only be on the screen for two seconds. If you do not respond within this time, the message 'Too slow!' will be displayed and the experiment will progress to the next letter string. The first 20 trials will be practice trials and you will receive feedback on your answers. 

Press the space bar or touch the button below to start the practice trials.",0,,5f3d3d3232c27107a850dd85,52,2022-02-12_11h23.05.909,lexical_decision_task_DD,2021.2.3,Win32,59.94844434,,,,,,,,,,,,,,,,,,,,,,,,,,,,,,,,,,,,,,,,,,,,,,,,,,,,,,,,,,,,,,,,,,,,,,,,,,,,,,,,,,,,,,
,,,,,,,,,,,,,,,,,5f3d3d3232c27107a850dd85,52,2022-02-12_11h23.05.909,lexical_decision_task_DD,2021.2.3,Win32,59.94844434,z,1,3.1115,,,,,,,,3.1115,1,0,0,0,11,1,1001,RASHET,z,,,,,,,,,,,,,,,,,,,,,,,,,,,,,,,,,,,,,,,,,,,,,,,,,,,,,,,,,,,,,,,,,,
,,,,,,,,,,,,,,,,,5f3d3d3232c27107a850dd85,52,2022-02-12_11h23.05.909,lexical_decision_task_DD,2021.2.3,Win32,59.94844434,m,1,0.84,,,,,,,,0.84,1,0,1,1,0,1,1001,UTOPIA,m,,,,,,,,,,,,,,,,,,,,,,,,,,,,,,,,,,,,,,,,,,,,,,,,,,,,,,,,,,,,,,,,,,
,,,,,,,,,,,,,,,,,5f3d3d3232c27107a850dd85,52,2022-02-12_11h23.05.909,lexical_decision_task_DD,2021.2.3,Win32,59.94844434,z,1,0.8342,,,,,,,,0.8342,1,0,2,2,15,1,1001,WHAISE,z,,,,,,,,,,,,,,,,,,,,,,,,,,,,,,,,,,,,,,,,,,,,,,,,,,,,,,,,,,,,,,,,,,
,,,,,,,,,,,,,,,,,5f3d3d3232c27107a850dd85,52,2022-02-12_11h23.05.909,lexical_decision_task_DD,2021.2.3,Win32,59.94844434,z,1,0.8187,,,,,,,,0.8187,1,0,3,3,9,1,1001,FARINY,z,,,,,,,,,,,,,,,,,,,,,,,,,,,,,,,,,,,,,,,,,,,,,,,,,,,,,,,,,,,,,,,,,,
,,,,,,,,,,,,,,,,,5f3d3d3232c27107a850dd85,52,2022-02-12_11h23.05.909,lexical_decision_task_DD,2021.2.3,Win32,59.94844434,m,1,0.6718,,,,,,,,0.6718,1,0,4,4,2,1,1001,ALMOND,m,,,,,,,,,,,,,,,,,,,,,,,,,,,,,,,,,,,,,,,,,,,,,,,,,,,,,,,,,,,,,,,,,,
,,,,,,,,,,,,,,,,,5f3d3d3232c27107a850dd85,52,2022-02-12_11h23.05.909,lexical_decision_task_DD,2021.2.3,Win32,59.94844434,m,0,0.8804,,,,,,,,0.8804,0,0,5,5,10,1,1001,INLADE,z,,,,,,,,,,,,,,,,,,,,,,,,,,,,,,,,,,,,,,,,,,,,,,,,,,,,,,,,,,,,,,,,,,
,,,,,,,,,,,,,,,,,5f3d3d3232c27107a850dd85,52,2022-02-12_11h23.05.909,lexical_decision_task_DD,2021.2.3,Win32,59.94844434,m,1,0.6678,,,,,,,,0.6678,1,0,6,6,5,1,1001,OBTAIN,m,,,,,,,,,,,,,,,,,,,,,,,,,,,,,,,,,,,,,,,,,,,,,,,,,,,,,,,,,,,,,,,,,,
,,,,,,,,,,,,,,,,,5f3d3d3232c27107a850dd85,52,2022-02-12_11h23.05.909,lexical_decision_task_DD,2021.2.3,Win32,59.94844434,m,1,0.6414,,,,,,,,0.6414,1,0,7,7,3,1,1001,MATRIX,m,,,,,,,,,,,,,,,,,,,,,,,,,,,,,,,,,,,,,,,,,,,,,,,,,,,,,,,,,,,,,,,,,,
,,,,,,,,,,,,,,,,,5f3d3d3232c27107a850dd85,52,2022-02-12_11h23.05.909,lexical_decision_task_DD,2021.2.3,Win32,59.94844434,z,1,0.753,,,,,,,,0.753,1,0,8,8,12,1,1001,SPRINY,z,,,,,,,,,,,,,,,,,,,,,,,,,,,,,,,,,,,,,,,,,,,,,,,,,,,,,,,,,,,,,,,,,,
,,,,,,,,,,,,,,,,,5f3d3d3232c27107a850dd85,52,2022-02-12_11h23.05.909,lexical_decision_task_DD,2021.2.3,Win32,59.94844434,z,1,0.651,,,,,,,,0.651,1,0,9,9,8,1,1001,ASLERT,z,,,,,,,,,,,,,,,,,,,,,,,,,,,,,,,,,,,,,,,,,,,,,,,,,,,,,,,,,,,,,,,,,,
,,,,,,,,,,,,,,,,,5f3d3d3232c27107a850dd85,52,2022-02-12_11h23.05.909,lexical_decision_task_DD,2021.2.3,Win32,59.94844434,m,1,0.7048,,,,,,,,0.7048,1,0,10,10,6,1,1001,ZOMBIE,m,,,,,,,,,,,,,,,,,,,,,,,,,,,,,,,,,,,,,,,,,,,,,,,,,,,,,,,,,,,,,,,,,,
,,,,,,,,,,,,,,,,,5f3d3d3232c27107a850dd85,52,2022-02-12_11h23.05.909,lexical_decision_task_DD,2021.2.3,Win32,59.94844434,z,1,0.9348,,,,,,,,0.9348,1,0,11,11,13,1,1001,ROUPET,z,,,,,,,,,,,,,,,,,,,,,,,,,,,,,,,,,,,,,,,,,,,,,,,,,,,,,,,,,,,,,,,,,,
,,,,,,,,,,,,,,,,,5f3d3d3232c27107a850dd85,52,2022-02-12_11h23.05.909,lexical_decision_task_DD,2021.2.3,Win32,59.94844434,m,1,0.6681,,,,,,,,0.6681,1,0,12,12,7,1,1001,VOLUME,m,,,,,,,,,,,,,,,,,,,,,,,,,,,,,,,,,,,,,,,,,,,,,,,,,,,,,,,,,,,,,,,,,,
,,,,,,,,,,,,,,,,,5f3d3d3232c27107a850dd85,52,2022-02-12_11h23.05.909,lexical_decision_task_DD,2021.2.3,Win32,59.94844434,m,1,0.6182,,,,,,,,0.6182,1,0,13,13,1,1,1001,ADJUST,m,,,,,,,,,,,,,,,,,,,,,,,,,,,,,,,,,,,,,,,,,,,,,,,,,,,,,,,,,,,,,,,,,,
,,,,,,,,,,,,,,,,,5f3d3d3232c27107a850dd85,52,2022-02-12_11h23.05.909,lexical_decision_task_DD,2021.2.3,Win32,59.94844434,m,1,0.5345,,,,,,,,0.5345,1,0,14,14,4,1,1001,SQUEAK,m,,,,,,,,,,,,,,,,,,,,,,,,,,,,,,,,,,,,,,,,,,,,,,,,,,,,,,,,,,,,,,,,,,
,,,,,,,,,,,,,,,,,5f3d3d3232c27107a850dd85,52,2022-02-12_11h23.05.909,lexical_decision_task_DD,2021.2.3,Win32,59.94844434,z,1,0.7514,,,,,,,,0.7514,1,0,15,15,14,1,1001,THRALE,z,,,,,,,,,,,,,,,,,,,,,,,,,,,,,,,,,,,,,,,,,,,,,,,,,,,,,,,,,,,,,,,,,,
space,-0.003053552,-0.443788914,0,0,0,,,,,,,1,end_of_practice,"You have completed the practice trials. During the experimental trials, you will not receive feedback. 
Before you begin, please ensure that you are in a comfortable and quiet location and will not be disturbed for about 15 minutes, as we cannot use your data if you do not complete all the trials. 
 When you are ready to start the experimental trials, please press space or touch the button below.",,,5f3d3d3232c27107a850dd85,52,2022-02-12_11h23.05.909,lexical_decision_task_DD,2021.2.3,Win32,59.94844434,,,,,,,,,,,,,,,,,,,,,8.7679,0,0,0,0,1,,,,,,,,,,,,,,,,,,,,,,,,,,,,,,,,,,,,,,,,,,,,,,,,,,,,,,,,,,,,
,,,,,,,,,,,,,,,,,5f3d3d3232c27107a850dd85,52,2022-02-12_11h23.05.909,lexical_decision_task_DD,2021.2.3,Win32,59.94844434,,,,,,,,,,,0.73,1,,,,,,,,,,,,,,,m,1,0.73,,,,,,,,-0.003053552,-0.443788914,0,0,0,,0,0,0,6,1,SQUARE,C,old,m,./images/SQUARE.png,,,,,,,,,,,,,,,,,,,,,,,,,,,,,,,,,,
,,,,,,,,,,,,,,,,,5f3d3d3232c27107a850dd85,52,2022-02-12_11h23.05.909,lexical_decision_task_DD,2021.2.3,Win32,59.94844434,,,,,,,,,,,0.5705,1,,,,,,,,,,,,,,,m,1,0.5705,,,,,,,,-0.003053552,-0.443788914,0,0,0,,0,1,1,42,1,FOLDER,C,old,m,./images/FOLDER.png,,,,,,,,,,,,,,,,,,,,,,,,,,,,,,,,,,
,,,,,,,,,,,,,,,,,5f3d3d3232c27107a850dd85,52,2022-02-12_11h23.05.909,lexical_decision_task_DD,2021.2.3,Win32,59.94844434,,,,,,,,,,,0.5232,1,,,,,,,,,,,,,,,m,1,0.5232,,,,,,,,-0.003053552,-0.443788914,0,0,0,,0,2,2,54,1,TRIPOD,C,old,m,./images/TRIPOD.png,,,,,,,,,,,,,,,,,,,,,,,,,,,,,,,,,,
,,,,,,,,,,,,,,,,,5f3d3d3232c27107a850dd85,52,2022-02-12_11h23.05.909,lexical_decision_task_DD,2021.2.3,Win32,59.94844434,,,,,,,,,,,0.7428,1,,,,,,,,,,,,,,,z,1,0.7428,,,,,,,,-0.003053552,-0.443788914,0,0,0,,0,3,3,112,1,MYING,HB,old,z,./images/MYINGHB.png,,,,,,,,,,,,,,,,,,,,,,,,,,,,,,,,,,
,,,,,,,,,,,,,,,,,5f3d3d3232c27107a850dd85,52,2022-02-12_11h23.05.909,lexical_decision_task_DD,2021.2.3,Win32,59.94844434,,,,,,,,,,,0.6872,1,,,,,,,,,,,,,,,z,1,0.6872,,,,,,,,-0.003053552,-0.443788914,0,0,0,,0,4,4,86,1,AIFED,LB,old,z,./images/AIFEDLB.png,,,,,,,,,,,,,,,,,,,,,,,,,,,,,,,,,,
,,,,,,,,,,,,,,,,,5f3d3d3232c27107a850dd85,52,2022-02-12_11h23.05.909,lexical_decision_task_DD,2021.2.3,Win32,59.94844434,,,,,,,,,,,0.5175,0,,,,,,,,,,,,,,,z,0,0.5175,,,,,,,,-0.003053552,-0.443788914,0,0,0,,0,5,5,4,1,MUSCLE,HB,old,m,./images/MUSCLEHB.png,,,,,,,,,,,,,,,,,,,,,,,,,,,,,,,,,,
,,,,,,,,,,,,,,,,,5f3d3d3232c27107a850dd85,52,2022-02-12_11h23.05.909,lexical_decision_task_DD,2021.2.3,Win32,59.94844434,,,,,,,,,,,0.7844,1,,,,,,,,,,,,,,,z,1,0.7844,,,,,,,,-0.003053552,-0.443788914,0,0,0,,0,6,6,162,1,LEICH,C,old,z,./images/LEICH.png,,,,,,,,,,,,,,,,,,,,,,,,,,,,,,,,,,
,,,,,,,,,,,,,,,,,5f3d3d3232c27107a850dd85,52,2022-02-12_11h23.05.909,lexical_decision_task_DD,2021.2.3,Win32,59.94844434,,,,,,,,,,,0.5202,1,,,,,,,,,,,,,,,m,1,0.5202,,,,,,,,-0.003053552,-0.443788914,0,0,0,,0,7,7,81,1,POODLE,C,old,m,./images/POODLE.png,,,,,,,,,,,,,,,,,,,,,,,,,,,,,,,,,,
,,,,,,,,,,,,,,,,,5f3d3d3232c27107a850dd85,52,2022-02-12_11h23.05.909,lexical_decision_task_DD,2021.2.3,Win32,59.94844434,,,,,,,,,,,0.7063,1,,,,,,,,,,,,,,,z,1,0.7063,,,,,,,,-0.003053552,-0.443788914,0,0,0,,0,8,8,147,1,ZOLES,C,old,z,./images/ZOLES.png,,,,,,,,,,,,,,,,,,,,,,,,,,,,,,,,,,
,,,,,,,,,,,,,,,,,5f3d3d3232c27107a850dd85,52,2022-02-12_11h23.05.909,lexical_decision_task_DD,2021.2.3,Win32,59.94844434,,,,,,,,,,,0.9116,0,,,,,,,,,,,,,,,z,0,0.9116,,,,,,,,-0.003053552,-0.443788914,0,0,0,,0,9,9,16,1,PENCE,HB,old,m,./images/PENCEHB.png,,,,,,,,,,,,,,,,,,,,,,,,,,,,,,,,,,
,,,,,,,,,,,,,,,,,5f3d3d3232c27107a850dd85,52,2022-02-12_11h23.05.909,lexical_decision_task_DD,2021.2.3,Win32,59.94844434,,,,,,,,,,,3.4027,1,,,,,,,,,,,,,,,m,1,3.4027,,,,,,,,-0.003053552,-0.443788914,0,0,0,,0,10,10,34,1,CANYON,HB,old,m,./images/CANYONHB.png,,,,,,,,,,,,,,,,,,,,,,,,,,,,,,,,,,
,,,,,,,,,,,,,,,,,5f3d3d3232c27107a850dd85,52,2022-02-12_11h23.05.909,lexical_decision_task_DD,2021.2.3,Win32,59.94844434,,,,,,,,,,,0.9564,1,,,,,,,,,,,,,,,z,1,0.9564,,,,,,,,-0.003053552,-0.443788914,0,0,0,,0,11,11,159,1,CUDDY,C,old,z,./images/CUDDY.png,,,,,,,,,,,,,,,,,,,,,,,,,,,,,,,,,,
,,,,,,,,,,,,,,,,,5f3d3d3232c27107a850dd85,52,2022-02-12_11h23.05.909,lexical_decision_task_DD,2021.2.3,Win32,59.94844434,,,,,,,,,,,1.571,1,,,,,,,,,,,,,,,z,1,1.571,,,,,,,,-0.003053552,-0.443788914,0,0,0,,0,12,12,139,1,BLEAR,HB,old,z,./images/BLEARHB.png,,,,,,,,,,,,,,,,,,,,,,,,,,,,,,,,,,
,,,,,,,,,,,,,,,,,5f3d3d3232c27107a850dd85,52,2022-02-12_11h23.05.909,lexical_decision_task_DD,2021.2.3,Win32,59.94844434,,,,,,,,,,,0.6158,1,,,,,,,,,,,,,,,m,1,0.6158,,,,,,,,-0.003053552,-0.443788914,0,0,0,,0,13,13,30,1,STORM,C,old,m,./images/STORM.png,,,,,,,,,,,,,,,,,,,,,,,,,,,,,,,,,,
,,,,,,,,,,,,,,,,,5f3d3d3232c27107a850dd85,52,2022-02-12_11h23.05.909,lexical_decision_task_DD,2021.2.3,Win32,59.94844434,,,,,,,,,,,1.0181,1,,,,,,,,,,,,,,,z,1,1.0181,,,,,,,,-0.003053552,-0.443788914,0,0,0,,0,14,14,125,1,MOOKY,LB,old,z,./images/MOOKYLB.png,,,,,,,,,,,,,,,,,,,,,,,,,,,,,,,,,,
,,,,,,,,,,,,,,,,,5f3d3d3232c27107a850dd85,52,2022-02-12_11h23.05.909,lexical_decision_task_DD,2021.2.3,Win32,59.94844434,,,,,,,,,,,0.9016,1,,,,,,,,,,,,,,,m,1,0.9016,,,,,,,,-0.003053552,-0.443788914,0,0,0,,0,15,15,41,1,STRING,LB,old,m,./images/STRINGLB.png,,,,,,,,,,,,,,,,,,,,,,,,,,,,,,,,,,
,,,,,,,,,,,,,,,,,5f3d3d3232c27107a850dd85,52,2022-02-12_11h23.05.909,lexical_decision_task_DD,2021.2.3,Win32,59.94844434,,,,,,,,,,,0.5674,1,,,,,,,,,,,,,,,z,1,0.5674,,,,,,,,-0.003053552,-0.443788914,0,0,0,,0,16,16,108,1,GRUET,C,old,z,./images/GRUET.png,,,,,,,,,,,,,,,,,,,,,,,,,,,,,,,,,,
,,,,,,,,,,,,,,,,,5f3d3d3232c27107a850dd85,52,2022-02-12_11h23.05.909,lexical_decision_task_DD,2021.2.3,Win32,59.94844434,,,,,,,,,,,0.8345,1,,,,,,,,,,,,,,,m,1,0.8345,,,,,,,,-0.003053552,-0.443788914,0,0,0,,0,17,17,33,1,MAGGOT,C,old,m,./images/MAGGOT.png,,,,,,,,,,,,,,,,,,,,,,,,,,,,,,,,,,
,,,,,,,,,,,,,,,,,5f3d3d3232c27107a850dd85,52,2022-02-12_11h23.05.909,lexical_decision_task_DD,2021.2.3,Win32,59.94844434,,,,,,,,,,,0.6864,1,,,,,,,,,,,,,,,z,1,0.6864,,,,,,,,-0.003053552,-0.443788914,0,0,0,,0,18,18,153,1,CLUPS,C,old,z,./images/CLUPS.png,,,,,,,,,,,,,,,,,,,,,,,,,,,,,,,,,,
,,,,,,,,,,,,,,,,,5f3d3d3232c27107a850dd85,52,2022-02-12_11h23.05.909,lexical_decision_task_DD,2021.2.3,Win32,59.94844434,,,,,,,,,,,1.0398,1,,,,,,,,,,,,,,,m,1,1.0398,,,,,,,,-0.003053552,-0.443788914,0,0,0,,0,19,19,20,1,CRADLE,LB,old,m,./images/CRADLELB.png,,,,,,,,,,,,,,,,,,,,,,,,,,,,,,,,,,
,,,,,,,,,,,,,,,,,5f3d3d3232c27107a850dd85,52,2022-02-12_11h23.05.909,lexical_decision_task_DD,2021.2.3,Win32,59.94844434,,,,,,,,,,,0.5741,1,,,,,,,,,,,,,,,m,1,0.5741,,,,,,,,-0.003053552,-0.443788914,0,0,0,,0,20,20,48,1,SPORT,C,old,m,./images/SPORT.png,,,,,,,,,,,,,,,,,,,,,,,,,,,,,,,,,,
,,,,,,,,,,,,,,,,,5f3d3d3232c27107a850dd85,52,2022-02-12_11h23.05.909,lexical_decision_task_DD,2021.2.3,Win32,59.94844434,,,,,,,,,,,0.5873,1,,,,,,,,,,,,,,,m,1,0.5873,,,,,,,,-0.003053552,-0.443788914,0,0,0,,0,21,21,24,1,SCREW,C,old,m,./images/SCREW.png,,,,,,,,,,,,,,,,,,,,,,,,,,,,,,,,,,
,,,,,,,,,,,,,,,,,5f3d3d3232c27107a850dd85,52,2022-02-12_11h23.05.909,lexical_decision_task_DD,2021.2.3,Win32,59.94844434,,,,,,,,,,,0.5677,1,,,,,,,,,,,,,,,m,1,0.5677,,,,,,,,-0.003053552,-0.443788914,0,0,0,,0,22,22,26,1,SMOKER,LB,old,m,./images/SMOKERLB.png,,,,,,,,,,,,,,,,,,,,,,,,,,,,,,,,,,
,,,,,,,,,,,,,,,,,5f3d3d3232c27107a850dd85,52,2022-02-12_11h23.05.909,lexical_decision_task_DD,2021.2.3,Win32,59.94844434,,,,,,,,,,,0.5438,1,,,,,,,,,,,,,,,m,1,0.5438,,,,,,,,-0.003053552,-0.443788914,0,0,0,,0,23,23,15,1,GREASE,C,old,m,./images/GREASE.png,,,,,,,,,,,,,,,,,,,,,,,,,,,,,,,,,,
,,,,,,,,,,,,,,,,,5f3d3d3232c27107a850dd85,52,2022-02-12_11h23.05.909,lexical_decision_task_DD,2021.2.3,Win32,59.94844434,,,,,,,,,,,0.8009,1,,,,,,,,,,,,,,,z,1,0.8009,,,,,,,,-0.003053552,-0.443788914,0,0,0,,0,24,24,93,1,SMONE,C,old,z,./images/SMONE.png,,,,,,,,,,,,,,,,,,,,,,,,,,,,,,,,,,
,,,,,,,,,,,,,,,,,5f3d3d3232c27107a850dd85,52,2022-02-12_11h23.05.909,lexical_decision_task_DD,2021.2.3,Win32,59.94844434,,,,,,,,,,,0.6514,1,,,,,,,,,,,,,,,m,1,0.6514,,,,,,,,-0.003053552,-0.443788914,0,0,0,,0,25,25,44,1,LIZARD,LB,old,m,./images/LIZARDLB.png,,,,,,,,,,,,,,,,,,,,,,,,,,,,,,,,,,
,,,,,,,,,,,,,,,,,5f3d3d3232c27107a850dd85,52,2022-02-12_11h23.05.909,lexical_decision_task_DD,2021.2.3,Win32,59.94844434,,,,,,,,,,,0.984,0,,,,,,,,,,,,,,,m,0,0.984,,,,,,,,-0.003053552,-0.443788914,0,0,0,,0,26,26,165,1,TROWN,C,old,z,./images/TROWN.png,,,,,,,,,,,,,,,,,,,,,,,,,,,,,,,,,,
,,,,,,,,,,,,,,,,,5f3d3d3232c27107a850dd85,52,2022-02-12_11h23.05.909,lexical_decision_task_DD,2021.2.3,Win32,59.94844434,,,,,,,,,,,0.685,1,,,,,,,,,,,,,,,m,1,0.685,,,,,,,,-0.003053552,-0.443788914,0,0,0,,0,27,27,60,1,TWINS,C,old,m,./images/TWINS.png,,,,,,,,,,,,,,,,,,,,,,,,,,,,,,,,,,
,,,,,,,,,,,,,,,,,5f3d3d3232c27107a850dd85,52,2022-02-12_11h23.05.909,lexical_decision_task_DD,2021.2.3,Win32,59.94844434,,,,,,,,,,,1.2286,1,,,,,,,,,,,,,,,z,1,1.2286,,,,,,,,-0.003053552,-0.443788914,0,0,0,,0,28,28,121,1,CEERS,HB,old,z,./images/CEERSHB.png,,,,,,,,,,,,,,,,,,,,,,,,,,,,,,,,,,
,,,,,,,,,,,,,,,,,5f3d3d3232c27107a850dd85,52,2022-02-12_11h23.05.909,lexical_decision_task_DD,2021.2.3,Win32,59.94844434,,,,,,,,,,,0.5677,1,,,,,,,,,,,,,,,m,1,0.5677,,,,,,,,-0.003053552,-0.443788914,0,0,0,,0,29,29,39,1,SHELF,C,old,m,./images/SHELF.png,,,,,,,,,,,,,,,,,,,,,,,,,,,,,,,,,,
,,,,,,,,,,,,,,,,,5f3d3d3232c27107a850dd85,52,2022-02-12_11h23.05.909,lexical_decision_task_DD,2021.2.3,Win32,59.94844434,,,,,,,,,,,0.8347,1,,,,,,,,,,,,,,,m,1,0.8347,,,,,,,,-0.003053552,-0.443788914,0,0,0,,0,30,30,77,1,COUCH,LB,old,m,./images/COUCHLB.png,,,,,,,,,,,,,,,,,,,,,,,,,,,,,,,,,,
,,,,,,,,,,,,,,,,,5f3d3d3232c27107a850dd85,52,2022-02-12_11h23.05.909,lexical_decision_task_DD,2021.2.3,Win32,59.94844434,,,,,,,,,,,0.8515,1,,,,,,,,,,,,,,,z,1,0.8515,,,,,,,,-0.003053552,-0.443788914,0,0,0,,0,31,31,131,1,NACES,LB,old,z,./images/NACESLB.png,,,,,,,,,,,,,,,,,,,,,,,,,,,,,,,,,,
,,,,,,,,,,,,,,,,,5f3d3d3232c27107a850dd85,52,2022-02-12_11h23.05.909,lexical_decision_task_DD,2021.2.3,Win32,59.94844434,,,,,,,,,,,0.7021,0,,,,,,,,,,,,,,,z,0,0.7021,,,,,,,,-0.003053552,-0.443788914,0,0,0,,0,32,32,11,1,BONNET,LB,old,m,./images/BONNETLB.png,,,,,,,,,,,,,,,,,,,,,,,,,,,,,,,,,,
,,,,,,,,,,,,,,,,,5f3d3d3232c27107a850dd85,52,2022-02-12_11h23.05.909,lexical_decision_task_DD,2021.2.3,Win32,59.94844434,,,,,,,,,,,1.1423,0,,,,,,,,,,,,,,,z,0,1.1423,,,,,,,,-0.003053552,-0.443788914,0,0,0,,0,33,33,55,1,MUFFIN,HB,old,m,./images/MUFFINHB.png,,,,,,,,,,,,,,,,,,,,,,,,,,,,,,,,,,
,,,,,,,,,,,,,,,,,5f3d3d3232c27107a850dd85,52,2022-02-12_11h23.05.909,lexical_decision_task_DD,2021.2.3,Win32,59.94844434,,,,,,,,,,,0.8825,1,,,,,,,,,,,,,,,z,1,0.8825,,,,,,,,-0.003053552,-0.443788914,0,0,0,,0,34,34,136,1,WERVE,HB,old,z,./images/WERVEHB.png,,,,,,,,,,,,,,,,,,,,,,,,,,,,,,,,,,
,,,,,,,,,,,,,,,,,5f3d3d3232c27107a850dd85,52,2022-02-12_11h23.05.909,lexical_decision_task_DD,2021.2.3,Win32,59.94844434,,,,,,,,,,,0.5844,1,,,,,,,,,,,,,,,m,1,0.5844,,,,,,,,-0.003053552,-0.443788914,0,0,0,,0,35,35,80,1,WEASEL,LB,old,m,./images/WEASELLB.png,,,,,,,,,,,,,,,,,,,,,,,,,,,,,,,,,,
,,,,,,,,,,,,,,,,,5f3d3d3232c27107a850dd85,52,2022-02-12_11h23.05.909,lexical_decision_task_DD,2021.2.3,Win32,59.94844434,,,,,,,,,,,0.6346,1,,,,,,,,,,,,,,,m,1,0.6346,,,,,,,,-0.003053552,-0.443788914,0,0,0,,0,36,36,74,1,CEMENT,LB,old,m,./images/CEMENTLB.png,,,,,,,,,,,,,,,,,,,,,,,,,,,,,,,,,,
,,,,,,,,,,,,,,,,,5f3d3d3232c27107a850dd85,52,2022-02-12_11h23.05.909,lexical_decision_task_DD,2021.2.3,Win32,59.94844434,,,,,,,,,,,0.9179,0,,,,,,,,,,,,,,,z,0,0.9179,,,,,,,,-0.003053552,-0.443788914,0,0,0,,0,37,37,52,1,BANNER,HB,old,m,./images/BANNERHB.png,,,,,,,,,,,,,,,,,,,,,,,,,,,,,,,,,,
,,,,,,,,,,,,,,,,,5f3d3d3232c27107a850dd85,52,2022-02-12_11h23.05.909,lexical_decision_task_DD,2021.2.3,Win32,59.94844434,,,,,,,,,,,0.785,1,,,,,,,,,,,,,,,z,1,0.785,,,,,,,,-0.003053552,-0.443788914,0,0,0,,0,38,38,130,1,CRILL,HB,old,z,./images/CRILLHB.png,,,,,,,,,,,,,,,,,,,,,,,,,,,,,,,,,,
,,,,,,,,,,,,,,,,,5f3d3d3232c27107a850dd85,52,2022-02-12_11h23.05.909,lexical_decision_task_DD,2021.2.3,Win32,59.94844434,,,,,,,,,,,1.816,1,,,,,,,,,,,,,,,m,1,1.816,,,,,,,,-0.003053552,-0.443788914,0,0,0,,0,39,39,19,1,DOUGH,HB,old,m,./images/DOUGHHB.png,,,,,,,,,,,,,,,,,,,,,,,,,,,,,,,,,,
,,,,,,,,,,,,,,,,,5f3d3d3232c27107a850dd85,52,2022-02-12_11h23.05.909,lexical_decision_task_DD,2021.2.3,Win32,59.94844434,,,,,,,,,,,1.0349,1,,,,,,,,,,,,,,,z,1,1.0349,,,,,,,,-0.003053552,-0.443788914,0,0,0,,0,40,40,104,1,GITTY,LB,old,z,./images/GITTYLB.png,,,,,,,,,,,,,,,,,,,,,,,,,,,,,,,,,,
,,,,,,,,,,,,,,,,,5f3d3d3232c27107a850dd85,52,2022-02-12_11h23.05.909,lexical_decision_task_DD,2021.2.3,Win32,59.94844434,,,,,,,,,,,0.7513,1,,,,,,,,,,,,,,,m,1,0.7513,,,,,,,,-0.003053552,-0.443788914,0,0,0,space,0,41,41,79,1,CRUST,HB,old,m,./images/CRUSTHB.png,3.2331,,,,,,,,,,,,,,,,,,,,,,,,,,,,,,,,,
,,,,,,,,,,,,,,,,,5f3d3d3232c27107a850dd85,52,2022-02-12_11h23.05.909,lexical_decision_task_DD,2021.2.3,Win32,59.94844434,,,,,,,,,,,1.6016,0,,,,,,,,,,,,,,,z,0,1.6016,,,,,,,,-0.003053552,-0.443788914,0,0,0,,0,42,42,82,1,SUNSET,HB,old,m,./images/SUNSETHB.png,,,,,,,,,,,,,,,,,,,,,,,,,,,,,,,,,,
,,,,,,,,,,,,,,,,,5f3d3d3232c27107a850dd85,52,2022-02-12_11h23.05.909,lexical_decision_task_DD,2021.2.3,Win32,59.94844434,,,,,,,,,,,0.918,1,,,,,,,,,,,,,,,z,1,0.918,,,,,,,,-0.003053552,-0.443788914,0,0,0,,0,43,43,157,1,INLER,HB,old,z,./images/INLERHB.png,,,,,,,,,,,,,,,,,,,,,,,,,,,,,,,,,,
,,,,,,,,,,,,,,,,,5f3d3d3232c27107a850dd85,52,2022-02-12_11h23.05.909,lexical_decision_task_DD,2021.2.3,Win32,59.94844434,,,,,,,,,,,1.503,1,,,,,,,,,,,,,,,z,1,1.503,,,,,,,,-0.003053552,-0.443788914,0,0,0,,0,44,44,94,1,BLANS,HB,old,z,./images/BLANSHB.png,,,,,,,,,,,,,,,,,,,,,,,,,,,,,,,,,,
,,,,,,,,,,,,,,,,,5f3d3d3232c27107a850dd85,52,2022-02-12_11h23.05.909,lexical_decision_task_DD,2021.2.3,Win32,59.94844434,,,,,,,,,,,0.9345,1,,,,,,,,,,,,,,,z,1,0.9345,,,,,,,,-0.003053552,-0.443788914,0,0,0,,0,45,45,142,1,PLASK,HB,old,z,./images/PLASKHB.png,,,,,,,,,,,,,,,,,,,,,,,,,,,,,,,,,,
,,,,,,,,,,,,,,,,,5f3d3d3232c27107a850dd85,52,2022-02-12_11h23.05.909,lexical_decision_task_DD,2021.2.3,Win32,59.94844434,,,,,,,,,,,0.7347,1,,,,,,,,,,,,,,,z,1,0.7347,,,,,,,,-0.003053552,-0.443788914,0,0,0,,0,46,46,167,1,ZONET,LB,old,z,./images/ZONETLB.png,,,,,,,,,,,,,,,,,,,,,,,,,,,,,,,,,,
,,,,,,,,,,,,,,,,,5f3d3d3232c27107a850dd85,52,2022-02-12_11h23.05.909,lexical_decision_task_DD,2021.2.3,Win32,59.94844434,,,,,,,,,,,0.7846,0,,,,,,,,,,,,,,,z,0,0.7846,,,,,,,,-0.003053552,-0.443788914,0,0,0,,0,47,47,58,1,BABOON,HB,old,m,./images/BABOONHB.png,,,,,,,,,,,,,,,,,,,,,,,,,,,,,,,,,,
,,,,,,,,,,,,,,,,,5f3d3d3232c27107a850dd85,52,2022-02-12_11h23.05.909,lexical_decision_task_DD,2021.2.3,Win32,59.94844434,,,,,,,,,,,0.6004,1,,,,,,,,,,,,,,,m,1,0.6004,,,,,,,,-0.003053552,-0.443788914,0,0,0,,0,48,48,36,1,THROAT,C,old,m,./images/THROAT.png,,,,,,,,,,,,,,,,,,,,,,,,,,,,,,,,,,
,,,,,,,,,,,,,,,,,5f3d3d3232c27107a850dd85,52,2022-02-12_11h23.05.909,lexical_decision_task_DD,2021.2.3,Win32,59.94844434,,,,,,,,,,,0.774,1,,,,,,,,,,,,,,,m,1,0.774,,,,,,,,-0.003053552,-0.443788914,0,0,0,,0,49,49,56,1,PACKET,LB,old,m,./images/PACKETLB.png,,,,,,,,,,,,,,,,,,,,,,,,,,,,,,,,,,
,,,,,,,,,,,,,,,,,5f3d3d3232c27107a850dd85,52,2022-02-12_11h23.05.909,lexical_decision_task_DD,2021.2.3,Win32,59.94844434,,,,,,,,,,,0.5514,1,,,,,,,,,,,,,,,m,1,0.5514,,,,,,,,-0.003053552,-0.443788914,0,0,0,,0,50,50,66,1,SWEAT,C,old,m,./images/SWEAT.png,,,,,,,,,,,,,,,,,,,,,,,,,,,,,,,,,,
,,,,,,,,,,,,,,,,,5f3d3d3232c27107a850dd85,52,2022-02-12_11h23.05.909,lexical_decision_task_DD,2021.2.3,Win32,59.94844434,,,,,,,,,,,0.8116,1,,,,,,,,,,,,,,,z,1,0.8116,,,,,,,,-0.003053552,-0.443788914,0,0,0,,0,51,51,107,1,FASKS,LB,old,z,./images/FASKSLB.png,,,,,,,,,,,,,,,,,,,,,,,,,,,,,,,,,,
,,,,,,,,,,,,,,,,,5f3d3d3232c27107a850dd85,52,2022-02-12_11h23.05.909,lexical_decision_task_DD,2021.2.3,Win32,59.94844434,,,,,,,,,,,0.7855,1,,,,,,,,,,,,,,,m,1,0.7855,,,,,,,,-0.003053552,-0.443788914,0,0,0,,0,52,52,17,1,SKIING,LB,old,m,./images/SKIINGLB.png,,,,,,,,,,,,,,,,,,,,,,,,,,,,,,,,,,
,,,,,,,,,,,,,,,,,5f3d3d3232c27107a850dd85,52,2022-02-12_11h23.05.909,lexical_decision_task_DD,2021.2.3,Win32,59.94844434,,,,,,,,,,,2.3187,1,,,,,,,,,,,,,,,m,1,2.3187,,,,,,,,-0.003053552,-0.443788914,0,0,0,,0,53,53,37,1,BIRTH,HB,old,m,./images/BIRTHHB.png,,,,,,,,,,,,,,,,,,,,,,,,,,,,,,,,,,
,,,,,,,,,,,,,,,,,5f3d3d3232c27107a850dd85,52,2022-02-12_11h23.05.909,lexical_decision_task_DD,2021.2.3,Win32,59.94844434,,,,,,,,,,,1.0679,1,,,,,,,,,,,,,,,z,1,1.0679,,,,,,,,-0.003053552,-0.443788914,0,0,0,,0,54,54,133,1,POWDY,HB,old,z,./images/POWDYHB.png,,,,,,,,,,,,,,,,,,,,,,,,,,,,,,,,,,
,,,,,,,,,,,,,,,,,5f3d3d3232c27107a850dd85,52,2022-02-12_11h23.05.909,lexical_decision_task_DD,2021.2.3,Win32,59.94844434,,,,,,,,,,,1.7079,1,,,,,,,,,,,,,,,m,1,1.7079,,,,,,,,-0.003053552,-0.443788914,0,0,0,,0,55,55,28,1,FALCON,HB,old,m,./images/FALCONHB.png,,,,,,,,,,,,,,,,,,,,,,,,,,,,,,,,,,
,,,,,,,,,,,,,,,,,5f3d3d3232c27107a850dd85,52,2022-02-12_11h23.05.909,lexical_decision_task_DD,2021.2.3,Win32,59.94844434,,,,,,,,,,,0.7114,1,,,,,,,,,,,,,,,z,1,0.7114,,,,,,,,-0.003053552,-0.443788914,0,0,0,,0,56,56,155,1,CANGY,LB,old,z,./images/CANGYLB.png,,,,,,,,,,,,,,,,,,,,,,,,,,,,,,,,,,
,,,,,,,,,,,,,,,,,5f3d3d3232c27107a850dd85,52,2022-02-12_11h23.05.909,lexical_decision_task_DD,2021.2.3,Win32,59.94844434,,,,,,,,,,,0.768,1,,,,,,,,,,,,,,,z,1,0.768,,,,,,,,-0.003053552,-0.443788914,0,0,0,,0,57,57,143,1,MONGS,LB,old,z,./images/MONGSLB.png,,,,,,,,,,,,,,,,,,,,,,,,,,,,,,,,,,
,,,,,,,,,,,,,,,,,5f3d3d3232c27107a850dd85,52,2022-02-12_11h23.05.909,lexical_decision_task_DD,2021.2.3,Win32,59.94844434,,,,,,,,,,,0.7513,1,,,,,,,,,,,,,,,z,1,0.7513,,,,,,,,-0.003053552,-0.443788914,0,0,0,,0,58,58,119,1,PAFER,LB,old,z,./images/PAFERLB.png,,,,,,,,,,,,,,,,,,,,,,,,,,,,,,,,,,
,,,,,,,,,,,,,,,,,5f3d3d3232c27107a850dd85,52,2022-02-12_11h23.05.909,lexical_decision_task_DD,2021.2.3,Win32,59.94844434,,,,,,,,,,,1.4182,1,,,,,,,,,,,,,,,z,1,1.4182,,,,,,,,-0.003053552,-0.443788914,0,0,0,,0,59,59,166,1,SHORY,HB,old,z,./images/SHORYHB.png,,,,,,,,,,,,,,,,,,,,,,,,,,,,,,,,,,
,,,,,,,,,,,,,,,,,5f3d3d3232c27107a850dd85,52,2022-02-12_11h23.05.909,lexical_decision_task_DD,2021.2.3,Win32,59.94844434,,,,,,,,,,,0.6167,1,,,,,,,,,,,,,,,z,1,0.6167,,,,,,,,-0.003053552,-0.443788914,0,0,0,,0,60,60,129,1,PRANS,C,old,z,./images/PRANS.png,,,,,,,,,,,,,,,,,,,,,,,,,,,,,,,,,,
,,,,,,,,,,,,,,,,,5f3d3d3232c27107a850dd85,52,2022-02-12_11h23.05.909,lexical_decision_task_DD,2021.2.3,Win32,59.94844434,,,,,,,,,,,0.6009,1,,,,,,,,,,,,,,,z,1,0.6009,,,,,,,,-0.003053552,-0.443788914,0,0,0,,0,61,61,114,1,RIKES,C,old,z,./images/RIKES.png,,,,,,,,,,,,,,,,,,,,,,,,,,,,,,,,,,
,,,,,,,,,,,,,,,,,5f3d3d3232c27107a850dd85,52,2022-02-12_11h23.05.909,lexical_decision_task_DD,2021.2.3,Win32,59.94844434,,,,,,,,,,,0.6512,1,,,,,,,,,,,,,,,m,1,0.6512,,,,,,,,-0.003053552,-0.443788914,0,0,0,,0,62,62,14,1,PICKLE,LB,old,m,./images/PICKLELB.png,,,,,,,,,,,,,,,,,,,,,,,,,,,,,,,,,,
,,,,,,,,,,,,,,,,,5f3d3d3232c27107a850dd85,52,2022-02-12_11h23.05.909,lexical_decision_task_DD,2021.2.3,Win32,59.94844434,,,,,,,,,,,1.3348,1,,,,,,,,,,,,,,,z,1,1.3348,,,,,,,,-0.003053552,-0.443788914,0,0,0,,0,63,63,88,1,GLUSH,HB,old,z,./images/GLUSHHB.png,,,,,,,,,,,,,,,,,,,,,,,,,,,,,,,,,,
,,,,,,,,,,,,,,,,,5f3d3d3232c27107a850dd85,52,2022-02-12_11h23.05.909,lexical_decision_task_DD,2021.2.3,Win32,59.94844434,,,,,,,,,,,0.6183,1,,,,,,,,,,,,,,,m,1,0.6183,,,,,,,,-0.003053552,-0.443788914,0,0,0,,0,64,64,5,1,PASTA,LB,old,m,./images/PASTALB.png,,,,,,,,,,,,,,,,,,,,,,,,,,,,,,,,,,
,,,,,,,,,,,,,,,,,5f3d3d3232c27107a850dd85,52,2022-02-12_11h23.05.909,lexical_decision_task_DD,2021.2.3,Win32,59.94844434,,,,,,,,,,,0.9344,0,,,,,,,,,,,,,,,z,0,0.9344,,,,,,,,-0.003053552,-0.443788914,0,0,0,,0,65,65,43,1,MOSQUE,HB,old,m,./images/MOSQUEHB.png,,,,,,,,,,,,,,,,,,,,,,,,,,,,,,,,,,
,,,,,,,,,,,,,,,,,5f3d3d3232c27107a850dd85,52,2022-02-12_11h23.05.909,lexical_decision_task_DD,2021.2.3,Win32,59.94844434,,,,,,,,,,,1.0013,1,,,,,,,,,,,,,,,z,1,1.0013,,,,,,,,-0.003053552,-0.443788914,0,0,0,,0,66,66,95,1,HANTY,LB,old,z,./images/HANTYLB.png,,,,,,,,,,,,,,,,,,,,,,,,,,,,,,,,,,
,,,,,,,,,,,,,,,,,5f3d3d3232c27107a850dd85,52,2022-02-12_11h23.05.909,lexical_decision_task_DD,2021.2.3,Win32,59.94844434,,,,,,,,,,,1.6004,1,,,,,,,,,,,,,,,m,1,1.6004,,,,,,,,-0.003053552,-0.443788914,0,0,0,,0,67,67,9,1,RHINO,C,old,m,./images/RHINO.png,,,,,,,,,,,,,,,,,,,,,,,,,,,,,,,,,,
,,,,,,,,,,,,,,,,,5f3d3d3232c27107a850dd85,52,2022-02-12_11h23.05.909,lexical_decision_task_DD,2021.2.3,Win32,59.94844434,,,,,,,,,,,0.6334,1,,,,,,,,,,,,,,,m,1,0.6334,,,,,,,,-0.003053552,-0.443788914,0,0,0,,0,68,68,3,1,FINGER,C,old,m,./images/FINGER.png,,,,,,,,,,,,,,,,,,,,,,,,,,,,,,,,,,
,,,,,,,,,,,,,,,,,5f3d3d3232c27107a850dd85,52,2022-02-12_11h23.05.909,lexical_decision_task_DD,2021.2.3,Win32,59.94844434,,,,,,,,,,,0.6181,1,,,,,,,,,,,,,,,m,1,0.6181,,,,,,,,-0.003053552,-0.443788914,0,0,0,,0,69,69,62,1,PURSE,LB,old,m,./images/PURSELB.png,,,,,,,,,,,,,,,,,,,,,,,,,,,,,,,,,,
,,,,,,,,,,,,,,,,,5f3d3d3232c27107a850dd85,52,2022-02-12_11h23.05.909,lexical_decision_task_DD,2021.2.3,Win32,59.94844434,,,,,,,,,,,0.7346,1,,,,,,,,,,,,,,,z,1,0.7346,,,,,,,,-0.003053552,-0.443788914,0,0,0,,0,70,70,116,1,BALGY,LB,old,z,./images/BALGYLB.png,,,,,,,,,,,,,,,,,,,,,,,,,,,,,,,,,,
,,,,,,,,,,,,,,,,,5f3d3d3232c27107a850dd85,52,2022-02-12_11h23.05.909,lexical_decision_task_DD,2021.2.3,Win32,59.94844434,,,,,,,,,,,0.8681,1,,,,,,,,,,,,,,,m,1,0.8681,,,,,,,,-0.003053552,-0.443788914,0,0,0,,0,71,71,8,1,TULIP,LB,old,m,./images/TULIPLB.png,,,,,,,,,,,,,,,,,,,,,,,,,,,,,,,,,,
,,,,,,,,,,,,,,,,,5f3d3d3232c27107a850dd85,52,2022-02-12_11h23.05.909,lexical_decision_task_DD,2021.2.3,Win32,59.94844434,,,,,,,,,,,0.8848,1,,,,,,,,,,,,,,,z,1,0.8848,,,,,,,,-0.003053552,-0.443788914,0,0,0,,0,72,72,145,1,LAMEL,HB,old,z,./images/LAMELHB.png,,,,,,,,,,,,,,,,,,,,,,,,,,,,,,,,,,
,,,,,,,,,,,,,,,,,5f3d3d3232c27107a850dd85,52,2022-02-12_11h23.05.909,lexical_decision_task_DD,2021.2.3,Win32,59.94844434,,,,,,,,,,,0.651,1,,,,,,,,,,,,,,,z,1,0.651,,,,,,,,-0.003053552,-0.443788914,0,0,0,,0,73,73,122,1,BLOOT,LB,old,z,./images/BLOOTLB.png,,,,,,,,,,,,,,,,,,,,,,,,,,,,,,,,,,
,,,,,,,,,,,,,,,,,5f3d3d3232c27107a850dd85,52,2022-02-12_11h23.05.909,lexical_decision_task_DD,2021.2.3,Win32,59.94844434,,,,,,,,,,,0.6175,1,,,,,,,,,,,,,,,z,1,0.6175,,,,,,,,-0.003053552,-0.443788914,0,0,0,,0,74,74,91,1,SHENS,HB,old,z,./images/SHENSHB.png,,,,,,,,,,,,,,,,,,,,,,,,,,,,,,,,,,
,,,,,,,,,,,,,,,,,5f3d3d3232c27107a850dd85,52,2022-02-12_11h23.05.909,lexical_decision_task_DD,2021.2.3,Win32,59.94844434,,,,,,,,,,,0.5584,1,,,,,,,,,,,,,,,m,1,0.5584,,,,,,,,-0.003053552,-0.443788914,0,0,0,,0,75,75,63,1,MIRROR,C,old,m,./images/MIRROR.png,,,,,,,,,,,,,,,,,,,,,,,,,,,,,,,,,,
,,,,,,,,,,,,,,,,,5f3d3d3232c27107a850dd85,52,2022-02-12_11h23.05.909,lexical_decision_task_DD,2021.2.3,Win32,59.94844434,,,,,,,,,,,0.6083,1,,,,,,,,,,,,,,,z,1,0.6083,,,,,,,,-0.003053552,-0.443788914,0,0,0,,0,76,76,161,1,BLAPS,LB,old,z,./images/BLAPSLB.png,,,,,,,,,,,,,,,,,,,,,,,,,,,,,,,,,,
,,,,,,,,,,,,,,,,,5f3d3d3232c27107a850dd85,52,2022-02-12_11h23.05.909,lexical_decision_task_DD,2021.2.3,Win32,59.94844434,,,,,,,,,,,0.568,1,,,,,,,,,,,,,,,z,1,0.568,,,,,,,,-0.003053552,-0.443788914,0,0,0,,0,77,77,149,1,VEASE,LB,old,z,./images/VEASELB.png,,,,,,,,,,,,,,,,,,,,,,,,,,,,,,,,,,
,,,,,,,,,,,,,,,,,5f3d3d3232c27107a850dd85,52,2022-02-12_11h23.05.909,lexical_decision_task_DD,2021.2.3,Win32,59.94844434,,,,,,,,,,,0.7508,1,,,,,,,,,,,,,,,z,1,0.7508,,,,,,,,-0.003053552,-0.443788914,0,0,0,,0,78,78,144,1,NAIRY,C,old,z,./images/NAIRY.png,,,,,,,,,,,,,,,,,,,,,,,,,,,,,,,,,,
,,,,,,,,,,,,,,,,,5f3d3d3232c27107a850dd85,52,2022-02-12_11h23.05.909,lexical_decision_task_DD,2021.2.3,Win32,59.94844434,,,,,,,,,,,0.6845,1,,,,,,,,,,,,,,,z,1,0.6845,,,,,,,,-0.003053552,-0.443788914,0,0,0,,0,79,79,99,1,BACKY,C,old,z,./images/BACKY.png,,,,,,,,,,,,,,,,,,,,,,,,,,,,,,,,,,
,,,,,,,,,,,,,,,,,5f3d3d3232c27107a850dd85,52,2022-02-12_11h23.05.909,lexical_decision_task_DD,2021.2.3,Win32,59.94844434,,,,,,,,,,,0.6359,1,,,,,,,,,,,,,,,m,1,0.6359,,,,,,,,-0.003053552,-0.443788914,0,0,0,,0,80,80,35,1,PEACH,LB,old,m,./images/PEACHLB.png,,,,,,,,,,,,,,,,,,,,,,,,,,,,,,,,,,
,,,,,,,,,,,,,,,,,5f3d3d3232c27107a850dd85,52,2022-02-12_11h23.05.909,lexical_decision_task_DD,2021.2.3,Win32,59.94844434,,,,,,,,,,,0.6524,0,,,,,,,,,,,,,,,z,0,0.6524,,,,,,,,-0.003053552,-0.443788914,0,0,0,,0,81,81,73,1,SNACK,HB,old,m,./images/SNACKHB.png,,,,,,,,,,,,,,,,,,,,,,,,,,,,,,,,,,
,,,,,,,,,,,,,,,,,5f3d3d3232c27107a850dd85,52,2022-02-12_11h23.05.909,lexical_decision_task_DD,2021.2.3,Win32,59.94844434,,,,,,,,,,,0.8016,1,,,,,,,,,,,,,,,z,1,0.8016,,,,,,,,-0.003053552,-0.443788914,0,0,0,,0,82,82,152,1,FRAIN,LB,old,z,./images/FRAINLB.png,,,,,,,,,,,,,,,,,,,,,,,,,,,,,,,,,,
,,,,,,,,,,,,,,,,,5f3d3d3232c27107a850dd85,52,2022-02-12_11h23.05.909,lexical_decision_task_DD,2021.2.3,Win32,59.94844434,,,,,,,,,,,0.671,1,,,,,,,,,,,,,,,m,1,0.671,,,,,,,,-0.003053552,-0.443788914,0,0,0,space,0,83,83,65,1,FARMER,LB,old,m,./images/FARMERLB.png,1.3094,,,,,,,,,,,,,,,,,,,,,,,,,,,,,,,,,
,,,,,,,,,,,,,,,,,5f3d3d3232c27107a850dd85,52,2022-02-12_11h23.05.909,lexical_decision_task_DD,2021.2.3,Win32,59.94844434,,,,,,,,,,,1.0512,0,,,,,,,,,,,,,,,z,0,1.0512,,,,,,,,-0.003053552,-0.443788914,0,0,0,,0,84,84,67,1,SAILOR,HB,old,m,./images/SAILORHB.png,,,,,,,,,,,,,,,,,,,,,,,,,,,,,,,,,,
,,,,,,,,,,,,,,,,,5f3d3d3232c27107a850dd85,52,2022-02-12_11h23.05.909,lexical_decision_task_DD,2021.2.3,Win32,59.94844434,,,,,,,,,,,0.5678,1,,,,,,,,,,,,,,,m,1,0.5678,,,,,,,,-0.003053552,-0.443788914,0,0,0,,0,85,85,51,1,ONION,C,old,m,./images/ONION.png,,,,,,,,,,,,,,,,,,,,,,,,,,,,,,,,,,
,,,,,,,,,,,,,,,,,5f3d3d3232c27107a850dd85,52,2022-02-12_11h23.05.909,lexical_decision_task_DD,2021.2.3,Win32,59.94844434,,,,,,,,,,,0.6199,1,,,,,,,,,,,,,,,z,1,0.6199,,,,,,,,-0.003053552,-0.443788914,0,0,0,,0,86,86,118,1,BAVEL,HB,old,z,./images/BAVELHB.png,,,,,,,,,,,,,,,,,,,,,,,,,,,,,,,,,,
,,,,,,,,,,,,,,,,,5f3d3d3232c27107a850dd85,52,2022-02-12_11h23.05.909,lexical_decision_task_DD,2021.2.3,Win32,59.94844434,,,,,,,,,,,0.5995,1,,,,,,,,,,,,,,,m,1,0.5995,,,,,,,,-0.003053552,-0.443788914,0,0,0,,0,87,87,75,1,GRAIN,C,old,m,./images/GRAIN.png,,,,,,,,,,,,,,,,,,,,,,,,,,,,,,,,,,
,,,,,,,,,,,,,,,,,5f3d3d3232c27107a850dd85,52,2022-02-12_11h23.05.909,lexical_decision_task_DD,2021.2.3,Win32,59.94844434,,,,,,,,,,,0.5845,1,,,,,,,,,,,,,,,z,1,0.5845,,,,,,,,-0.003053552,-0.443788914,0,0,0,,0,88,88,148,1,JOMS,HB,old,z,./images/JOMSHB.png,,,,,,,,,,,,,,,,,,,,,,,,,,,,,,,,,,
,,,,,,,,,,,,,,,,,5f3d3d3232c27107a850dd85,52,2022-02-12_11h23.05.909,lexical_decision_task_DD,2021.2.3,Win32,59.94844434,,,,,,,,,,,0.6685,1,,,,,,,,,,,,,,,z,1,0.6685,,,,,,,,-0.003053552,-0.443788914,0,0,0,,0,89,89,109,1,BURGE,HB,old,z,./images/BURGEHB.png,,,,,,,,,,,,,,,,,,,,,,,,,,,,,,,,,,
,,,,,,,,,,,,,,,,,5f3d3d3232c27107a850dd85,52,2022-02-12_11h23.05.909,lexical_decision_task_DD,2021.2.3,Win32,59.94844434,,,,,,,,,,,0.568,0,,,,,,,,,,,,,,,z,0,0.568,,,,,,,,-0.003053552,-0.443788914,0,0,0,,0,90,90,40,1,SWING,HB,old,m,./images/SWINGHB.png,,,,,,,,,,,,,,,,,,,,,,,,,,,,,,,,,,
,,,,,,,,,,,,,,,,,5f3d3d3232c27107a850dd85,52,2022-02-12_11h23.05.909,lexical_decision_task_DD,2021.2.3,Win32,59.94844434,,,,,,,,,,,0.8179,1,,,,,,,,,,,,,,,z,1,0.8179,,,,,,,,-0.003053552,-0.443788914,0,0,0,,0,91,91,98,1,BAMPS,LB,old,z,./images/BAMPSLB.png,,,,,,,,,,,,,,,,,,,,,,,,,,,,,,,,,,
,,,,,,,,,,,,,,,,,5f3d3d3232c27107a850dd85,52,2022-02-12_11h23.05.909,lexical_decision_task_DD,2021.2.3,Win32,59.94844434,,,,,,,,,,,0.6345,1,,,,,,,,,,,,,,,m,1,0.6345,,,,,,,,-0.003053552,-0.443788914,0,0,0,,0,92,92,53,1,CARPET,LB,old,m,./images/CARPETLB.png,,,,,,,,,,,,,,,,,,,,,,,,,,,,,,,,,,
,,,,,,,,,,,,,,,,,5f3d3d3232c27107a850dd85,52,2022-02-12_11h23.05.909,lexical_decision_task_DD,2021.2.3,Win32,59.94844434,,,,,,,,,,,0.7345,1,,,,,,,,,,,,,,,z,1,0.7345,,,,,,,,-0.003053552,-0.443788914,0,0,0,,0,93,93,100,1,DRIBS,HB,old,z,./images/DRIBSHB.png,,,,,,,,,,,,,,,,,,,,,,,,,,,,,,,,,,
,,,,,,,,,,,,,,,,,5f3d3d3232c27107a850dd85,52,2022-02-12_11h23.05.909,lexical_decision_task_DD,2021.2.3,Win32,59.94844434,,,,,,,,,,,0.7007,1,,,,,,,,,,,,,,,z,1,0.7007,,,,,,,,-0.003053552,-0.443788914,0,0,0,,0,94,94,105,1,MOKER,C,old,z,./images/MOKER.png,,,,,,,,,,,,,,,,,,,,,,,,,,,,,,,,,,
,,,,,,,,,,,,,,,,,5f3d3d3232c27107a850dd85,52,2022-02-12_11h23.05.909,lexical_decision_task_DD,2021.2.3,Win32,59.94844434,,,,,,,,,,,0.9516,1,,,,,,,,,,,,,,,z,1,0.9516,,,,,,,,-0.003053552,-0.443788914,0,0,0,,0,95,95,85,1,CHULK,HB,old,z,./images/CHULKHB.png,,,,,,,,,,,,,,,,,,,,,,,,,,,,,,,,,,
,,,,,,,,,,,,,,,,,5f3d3d3232c27107a850dd85,52,2022-02-12_11h23.05.909,lexical_decision_task_DD,2021.2.3,Win32,59.94844434,,,,,,,,,,,0.6846,1,,,,,,,,,,,,,,,m,1,0.6846,,,,,,,,-0.003053552,-0.443788914,0,0,0,,0,96,96,71,1,PIMPLE,LB,old,m,./images/PIMPLELB.png,,,,,,,,,,,,,,,,,,,,,,,,,,,,,,,,,,
,,,,,,,,,,,,,,,,,5f3d3d3232c27107a850dd85,52,2022-02-12_11h23.05.909,lexical_decision_task_DD,2021.2.3,Win32,59.94844434,,,,,,,,,,,0.6342,1,,,,,,,,,,,,,,,m,1,0.6342,,,,,,,,-0.003053552,-0.443788914,0,0,0,,0,97,97,23,1,WALRUS,LB,old,m,./images/WALRUSLB.png,,,,,,,,,,,,,,,,,,,,,,,,,,,,,,,,,,
,,,,,,,,,,,,,,,,,5f3d3d3232c27107a850dd85,52,2022-02-12_11h23.05.909,lexical_decision_task_DD,2021.2.3,Win32,59.94844434,,,,,,,,,,,0.8179,1,,,,,,,,,,,,,,,m,1,0.8179,,,,,,,,-0.003053552,-0.443788914,0,0,0,,0,98,98,50,1,MALLET,LB,old,m,./images/MALLETLB.png,,,,,,,,,,,,,,,,,,,,,,,,,,,,,,,,,,
,,,,,,,,,,,,,,,,,5f3d3d3232c27107a850dd85,52,2022-02-12_11h23.05.909,lexical_decision_task_DD,2021.2.3,Win32,59.94844434,,,,,,,,,,,0.5846,1,,,,,,,,,,,,,,,m,1,0.5846,,,,,,,,-0.003053552,-0.443788914,0,0,0,,0,99,99,83,1,JUNGLE,LB,old,m,./images/JUNGLELB.png,,,,,,,,,,,,,,,,,,,,,,,,,,,,,,,,,,
,,,,,,,,,,,,,,,,,5f3d3d3232c27107a850dd85,52,2022-02-12_11h23.05.909,lexical_decision_task_DD,2021.2.3,Win32,59.94844434,,,,,,,,,,,0.9016,1,,,,,,,,,,,,,,,z,1,0.9016,,,,,,,,-0.003053552,-0.443788914,0,0,0,,0,100,100,163,1,GAMBA,HB,old,z,./images/GAMBAHB.png,,,,,,,,,,,,,,,,,,,,,,,,,,,,,,,,,,
,,,,,,,,,,,,,,,,,5f3d3d3232c27107a850dd85,52,2022-02-12_11h23.05.909,lexical_decision_task_DD,2021.2.3,Win32,59.94844434,,,,,,,,,,,0.735,1,,,,,,,,,,,,,,,z,1,0.735,,,,,,,,-0.003053552,-0.443788914,0,0,0,,0,101,101,154,1,THINT,HB,old,z,./images/THINTHB.png,,,,,,,,,,,,,,,,,,,,,,,,,,,,,,,,,,
,,,,,,,,,,,,,,,,,5f3d3d3232c27107a850dd85,52,2022-02-12_11h23.05.909,lexical_decision_task_DD,2021.2.3,Win32,59.94844434,,,,,,,,,,,0.6256,0,,,,,,,,,,,,,,,z,0,0.6256,,,,,,,,-0.003053552,-0.443788914,0,0,0,,0,102,102,1,1,PLANK,HB,old,m,./images/PLANKHB.png,,,,,,,,,,,,,,,,,,,,,,,,,,,,,,,,,,
,,,,,,,,,,,,,,,,,5f3d3d3232c27107a850dd85,52,2022-02-12_11h23.05.909,lexical_decision_task_DD,2021.2.3,Win32,59.94844434,,,,,,,,,,,0.6729,1,,,,,,,,,,,,,,,z,1,0.6729,,,,,,,,-0.003053552,-0.443788914,0,0,0,,0,103,103,111,1,HOSSE,C,old,z,./images/HOSSE.png,,,,,,,,,,,,,,,,,,,,,,,,,,,,,,,,,,
,,,,,,,,,,,,,,,,,5f3d3d3232c27107a850dd85,52,2022-02-12_11h23.05.909,lexical_decision_task_DD,2021.2.3,Win32,59.94844434,,,,,,,,,,,0.5841,1,,,,,,,,,,,,,,,m,1,0.5841,,,,,,,,-0.003053552,-0.443788914,0,0,0,,0,104,104,68,1,TORCH,LB,old,m,./images/TORCHLB.png,,,,,,,,,,,,,,,,,,,,,,,,,,,,,,,,,,
,,,,,,,,,,,,,,,,,5f3d3d3232c27107a850dd85,52,2022-02-12_11h23.05.909,lexical_decision_task_DD,2021.2.3,Win32,59.94844434,,,,,,,,,,,0.8845,0,,,,,,,,,,,,,,,z,0,0.8845,,,,,,,,-0.003053552,-0.443788914,0,0,0,,0,105,105,22,1,MELON,HB,old,m,./images/MELONHB.png,,,,,,,,,,,,,,,,,,,,,,,,,,,,,,,,,,
,,,,,,,,,,,,,,,,,5f3d3d3232c27107a850dd85,52,2022-02-12_11h23.05.909,lexical_decision_task_DD,2021.2.3,Win32,59.94844434,,,,,,,,,,,0.6206,0,,,,,,,,,,,,,,,z,0,0.6206,,,,,,,,-0.003053552,-0.443788914,0,0,0,,0,106,106,31,1,QUILL,HB,old,m,./images/QUILLHB.png,,,,,,,,,,,,,,,,,,,,,,,,,,,,,,,,,,
,,,,,,,,,,,,,,,,,5f3d3d3232c27107a850dd85,52,2022-02-12_11h23.05.909,lexical_decision_task_DD,2021.2.3,Win32,59.94844434,,,,,,,,,,,0.808,1,,,,,,,,,,,,,,,z,1,0.808,,,,,,,,-0.003053552,-0.443788914,0,0,0,,0,107,107,97,1,CHIDS,HB,old,z,./images/CHIDSHB.png,,,,,,,,,,,,,,,,,,,,,,,,,,,,,,,,,,
,,,,,,,,,,,,,,,,,5f3d3d3232c27107a850dd85,52,2022-02-12_11h23.05.909,lexical_decision_task_DD,2021.2.3,Win32,59.94844434,,,,,,,,,,,0.8536,1,,,,,,,,,,,,,,,z,1,0.8536,,,,,,,,-0.003053552,-0.443788914,0,0,0,,0,108,108,120,1,RINED,C,old,z,./images/RINED.png,,,,,,,,,,,,,,,,,,,,,,,,,,,,,,,,,,
,,,,,,,,,,,,,,,,,5f3d3d3232c27107a850dd85,52,2022-02-12_11h23.05.909,lexical_decision_task_DD,2021.2.3,Win32,59.94844434,,,,,,,,,,,0.6607,1,,,,,,,,,,,,,,,z,1,0.6607,,,,,,,,-0.003053552,-0.443788914,0,0,0,,0,109,109,101,1,GLEET,LB,old,z,./images/GLEETLB.png,,,,,,,,,,,,,,,,,,,,,,,,,,,,,,,,,,
,,,,,,,,,,,,,,,,,5f3d3d3232c27107a850dd85,52,2022-02-12_11h23.05.909,lexical_decision_task_DD,2021.2.3,Win32,59.94844434,,,,,,,,,,,0.768,1,,,,,,,,,,,,,,,m,1,0.768,,,,,,,,-0.003053552,-0.443788914,0,0,0,,0,110,110,47,1,BERRY,LB,old,m,./images/BERRYLB.png,,,,,,,,,,,,,,,,,,,,,,,,,,,,,,,,,,
,,,,,,,,,,,,,,,,,5f3d3d3232c27107a850dd85,52,2022-02-12_11h23.05.909,lexical_decision_task_DD,2021.2.3,Win32,59.94844434,,,,,,,,,,,0.7704,1,,,,,,,,,,,,,,,m,1,0.7704,,,,,,,,-0.003053552,-0.443788914,0,0,0,,0,111,111,29,1,CRUMB,LB,old,m,./images/CRUMBLB.png,,,,,,,,,,,,,,,,,,,,,,,,,,,,,,,,,,
,,,,,,,,,,,,,,,,,5f3d3d3232c27107a850dd85,52,2022-02-12_11h23.05.909,lexical_decision_task_DD,2021.2.3,Win32,59.94844434,,,,,,,,,,,0.8692,1,,,,,,,,,,,,,,,z,1,0.8692,,,,,,,,-0.003053552,-0.443788914,0,0,0,,0,112,112,128,1,GRIFT,LB,old,z,./images/GRIFTLB.png,,,,,,,,,,,,,,,,,,,,,,,,,,,,,,,,,,
,,,,,,,,,,,,,,,,,5f3d3d3232c27107a850dd85,52,2022-02-12_11h23.05.909,lexical_decision_task_DD,2021.2.3,Win32,59.94844434,,,,,,,,,,,0.9609,1,,,,,,,,,,,,,,,z,1,0.9609,,,,,,,,-0.003053552,-0.443788914,0,0,0,,0,113,113,140,1,DOVET,LB,old,z,./images/DOVETLB.png,,,,,,,,,,,,,,,,,,,,,,,,,,,,,,,,,,
,,,,,,,,,,,,,,,,,5f3d3d3232c27107a850dd85,52,2022-02-12_11h23.05.909,lexical_decision_task_DD,2021.2.3,Win32,59.94844434,,,,,,,,,,,0.7027,1,,,,,,,,,,,,,,,m,1,0.7027,,,,,,,,-0.003053552,-0.443788914,0,0,0,,0,114,114,2,1,BEARD,LB,old,m,./images/BEARDLB.png,,,,,,,,,,,,,,,,,,,,,,,,,,,,,,,,,,
,,,,,,,,,,,,,,,,,5f3d3d3232c27107a850dd85,52,2022-02-12_11h23.05.909,lexical_decision_task_DD,2021.2.3,Win32,59.94844434,,,,,,,,,,,0.6196,1,,,,,,,,,,,,,,,m,1,0.6196,,,,,,,,-0.003053552,-0.443788914,0,0,0,,0,115,115,72,1,NOOSE,C,old,m,./images/NOOSE.png,,,,,,,,,,,,,,,,,,,,,,,,,,,,,,,,,,
,,,,,,,,,,,,,,,,,5f3d3d3232c27107a850dd85,52,2022-02-12_11h23.05.909,lexical_decision_task_DD,2021.2.3,Win32,59.94844434,,,,,,,,,,,1.036,0,,,,,,,,,,,,,,,z,0,1.036,,,,,,,,-0.003053552,-0.443788914,0,0,0,,0,116,116,76,1,INFANT,HB,old,m,./images/INFANTHB.png,,,,,,,,,,,,,,,,,,,,,,,,,,,,,,,,,,
,,,,,,,,,,,,,,,,,5f3d3d3232c27107a850dd85,52,2022-02-12_11h23.05.909,lexical_decision_task_DD,2021.2.3,Win32,59.94844434,,,,,,,,,,,0.7788,1,,,,,,,,,,,,,,,z,1,0.7788,,,,,,,,-0.003053552,-0.443788914,0,0,0,,0,117,117,141,1,PLEET,C,old,z,./images/PLEET.png,,,,,,,,,,,,,,,,,,,,,,,,,,,,,,,,,,
,,,,,,,,,,,,,,,,,5f3d3d3232c27107a850dd85,52,2022-02-12_11h23.05.909,lexical_decision_task_DD,2021.2.3,Win32,59.94844434,,,,,,,,,,,1.5749,1,,,,,,,,,,,,,,,m,1,1.5749,,,,,,,,-0.003053552,-0.443788914,0,0,0,,0,118,118,49,1,DRUMS,HB,old,m,./images/DRUMSHB.png,,,,,,,,,,,,,,,,,,,,,,,,,,,,,,,,,,
,,,,,,,,,,,,,,,,,5f3d3d3232c27107a850dd85,52,2022-02-12_11h23.05.909,lexical_decision_task_DD,2021.2.3,Win32,59.94844434,,,,,,,,,,,0.5507,1,,,,,,,,,,,,,,,m,1,0.5507,,,,,,,,-0.003053552,-0.443788914,0,0,0,,0,119,119,32,1,BARREL,LB,old,m,./images/BARRELLB.png,,,,,,,,,,,,,,,,,,,,,,,,,,,,,,,,,,
,,,,,,,,,,,,,,,,,5f3d3d3232c27107a850dd85,52,2022-02-12_11h23.05.909,lexical_decision_task_DD,2021.2.3,Win32,59.94844434,,,,,,,,,,,0.8706,1,,,,,,,,,,,,,,,m,1,0.8706,,,,,,,,-0.003053552,-0.443788914,0,0,0,,0,120,120,61,1,CANDLE,HB,old,m,./images/CANDLEHB.png,,,,,,,,,,,,,,,,,,,,,,,,,,,,,,,,,,
,,,,,,,,,,,,,,,,,5f3d3d3232c27107a850dd85,52,2022-02-12_11h23.05.909,lexical_decision_task_DD,2021.2.3,Win32,59.94844434,,,,,,,,,,,0.8895,1,,,,,,,,,,,,,,,z,1,0.8895,,,,,,,,-0.003053552,-0.443788914,0,0,0,,0,121,121,113,1,LINEW,LB,old,z,./images/LINEWLB.png,,,,,,,,,,,,,,,,,,,,,,,,,,,,,,,,,,
,,,,,,,,,,,,,,,,,5f3d3d3232c27107a850dd85,52,2022-02-12_11h23.05.909,lexical_decision_task_DD,2021.2.3,Win32,59.94844434,,,,,,,,,,,0.7064,1,,,,,,,,,,,,,,,z,1,0.7064,,,,,,,,-0.003053552,-0.443788914,0,0,0,,0,122,122,96,1,KEAMS,C,old,z,./images/KEAMS.png,,,,,,,,,,,,,,,,,,,,,,,,,,,,,,,,,,
,,,,,,,,,,,,,,,,,5f3d3d3232c27107a850dd85,52,2022-02-12_11h23.05.909,lexical_decision_task_DD,2021.2.3,Win32,59.94844434,,,,,,,,,,,0.6512,1,,,,,,,,,,,,,,,z,1,0.6512,,,,,,,,-0.003053552,-0.443788914,0,0,0,,0,123,123,146,1,MOOST,LB,old,z,./images/MOOSTLB.png,,,,,,,,,,,,,,,,,,,,,,,,,,,,,,,,,,
,,,,,,,,,,,,,,,,,5f3d3d3232c27107a850dd85,52,2022-02-12_11h23.05.909,lexical_decision_task_DD,2021.2.3,Win32,59.94844434,,,,,,,,,,,0.4864,1,,,,,,,,,,,,,,,z,1,0.4864,,,,,,,,-0.003053552,-0.443788914,0,0,0,,0,124,124,135,1,JOODY,C,old,z,./images/JOODY.png,,,,,,,,,,,,,,,,,,,,,,,,,,,,,,,,,,
,,,,,,,,,,,,,,,,,5f3d3d3232c27107a850dd85,52,2022-02-12_11h23.05.909,lexical_decision_task_DD,2021.2.3,Win32,59.94844434,,,,,,,,,,,1.1725,1,,,,,,,,,,,,,,,z,1,1.1725,,,,,,,,-0.003053552,-0.443788914,0,0,0,space,0,125,125,160,1,VEETS,HB,old,z,./images/VEETSHB.png,3.8752,,,,,,,,,,,,,,,,,,,,,,,,,,,,,,,,,
,,,,,,,,,,,,,,,,,5f3d3d3232c27107a850dd85,52,2022-02-12_11h23.05.909,lexical_decision_task_DD,2021.2.3,Win32,59.94844434,,,,,,,,,,,0.7875,0,,,,,,,,,,,,,,,z,0,0.7875,,,,,,,,-0.003053552,-0.443788914,0,0,0,,0,126,126,25,1,WRIST,HB,old,m,./images/WRISTHB.png,,,,,,,,,,,,,,,,,,,,,,,,,,,,,,,,,,
,,,,,,,,,,,,,,,,,5f3d3d3232c27107a850dd85,52,2022-02-12_11h23.05.909,lexical_decision_task_DD,2021.2.3,Win32,59.94844434,,,,,,,,,,,0.7174,1,,,,,,,,,,,,,,,z,1,0.7174,,,,,,,,0.518806288,-0.498380686,0,0,0,,0,127,127,137,1,JOOST,LB,old,z,./images/JOOSTLB.png,,,,,,,,,,,,,,,,,,,,,,,,,,,,,,,,,,
,,,,,,,,,,,,,,,,,5f3d3d3232c27107a850dd85,52,2022-02-12_11h23.05.909,lexical_decision_task_DD,2021.2.3,Win32,59.94844434,,,,,,,,,,,1.1888,1,,,,,,,,,,,,,,,z,1,1.1888,,,,,,,,0.518806288,-0.498380686,0,0,0,,0,128,128,92,1,PAIMS,LB,old,z,./images/PAIMSLB.png,,,,,,,,,,,,,,,,,,,,,,,,,,,,,,,,,,
,,,,,,,,,,,,,,,,,5f3d3d3232c27107a850dd85,52,2022-02-12_11h23.05.909,lexical_decision_task_DD,2021.2.3,Win32,59.94844434,,,,,,,,,,,0.8551,1,,,,,,,,,,,,,,,m,1,0.8551,,,,,,,,0.518806288,-0.498380686,0,0,0,,0,129,129,78,1,LITTER,C,old,m,./images/LITTER.png,,,,,,,,,,,,,,,,,,,,,,,,,,,,,,,,,,
,,,,,,,,,,,,,,,,,5f3d3d3232c27107a850dd85,52,2022-02-12_11h23.05.909,lexical_decision_task_DD,2021.2.3,Win32,59.94844434,,,,,,,,,,,0.9054,1,,,,,,,,,,,,,,,z,1,0.9054,,,,,,,,0.551191204,-0.498380686,0,0,0,,0,130,130,132,1,SCIFF,C,old,z,./images/SCIFF.png,,,,,,,,,,,,,,,,,,,,,,,,,,,,,,,,,,
,,,,,,,,,,,,,,,,,5f3d3d3232c27107a850dd85,52,2022-02-12_11h23.05.909,lexical_decision_task_DD,2021.2.3,Win32,59.94844434,,,,,,,,,,,0.536,1,,,,,,,,,,,,,,,z,1,0.536,,,,,,,,0.551191204,-0.498380686,0,0,0,,0,131,131,156,1,HIXES,C,old,z,./images/HIXES.png,,,,,,,,,,,,,,,,,,,,,,,,,,,,,,,,,,
,,,,,,,,,,,,,,,,,5f3d3d3232c27107a850dd85,52,2022-02-12_11h23.05.909,lexical_decision_task_DD,2021.2.3,Win32,59.94844434,,,,,,,,,,,0.6369,1,,,,,,,,,,,,,,,z,1,0.6369,,,,,,,,0.75938006,-0.271686276,0,0,0,,0,132,132,110,1,CRUNK,LB,old,z,./images/CRUNKLB.png,,,,,,,,,,,,,,,,,,,,,,,,,,,,,,,,,,
,,,,,,,,,,,,,,,,,5f3d3d3232c27107a850dd85,52,2022-02-12_11h23.05.909,lexical_decision_task_DD,2021.2.3,Win32,59.94844434,,,,,,,,,,,0.5747,1,,,,,,,,,,,,,,,m,1,0.5747,,,,,,,,0.756604097,-0.272611559,0,0,0,,0,133,133,21,1,KIDNEY,C,old,m,./images/KIDNEY.png,,,,,,,,,,,,,,,,,,,,,,,,,,,,,,,,,,
,,,,,,,,,,,,,,,,,5f3d3d3232c27107a850dd85,52,2022-02-12_11h23.05.909,lexical_decision_task_DD,2021.2.3,Win32,59.94844434,,,,,,,,,,,0.6536,1,,,,,,,,,,,,,,,z,1,0.6536,,,,,,,,0.675179054,-0.131043214,0,0,0,,0,134,134,164,1,SGREW,LB,old,z,./images/SGREWLB.png,,,,,,,,,,,,,,,,,,,,,,,,,,,,,,,,,,
,,,,,,,,,,,,,,,,,5f3d3d3232c27107a850dd85,52,2022-02-12_11h23.05.909,lexical_decision_task_DD,2021.2.3,Win32,59.94844434,,,,,,,,,,,1.0678,1,,,,,,,,,,,,,,,m,1,1.0678,,,,,,,,0.675179054,-0.131043214,0,0,0,,0,135,135,64,1,JELLY,HB,old,m,./images/JELLYHB.png,,,,,,,,,,,,,,,,,,,,,,,,,,,,,,,,,,
,,,,,,,,,,,,,,,,,5f3d3d3232c27107a850dd85,52,2022-02-12_11h23.05.909,lexical_decision_task_DD,2021.2.3,Win32,59.94844434,,,,,,,,,,,0.6681,1,,,,,,,,,,,,,,,z,1,0.6681,,,,,,,,0.675179054,-0.131043214,0,0,0,,0,136,136,151,1,TINKY,HB,old,z,./images/TINKYHB.png,,,,,,,,,,,,,,,,,,,,,,,,,,,,,,,,,,
,,,,,,,,,,,,,,,,,5f3d3d3232c27107a850dd85,52,2022-02-12_11h23.05.909,lexical_decision_task_DD,2021.2.3,Win32,59.94844434,,,,,,,,,,,0.7345,1,,,,,,,,,,,,,,,z,1,0.7345,,,,,,,,0.675179054,-0.131043214,0,0,0,,0,137,137,138,1,PLICE,C,old,z,./images/PLICE.png,,,,,,,,,,,,,,,,,,,,,,,,,,,,,,,,,,
,,,,,,,,,,,,,,,,,5f3d3d3232c27107a850dd85,52,2022-02-12_11h23.05.909,lexical_decision_task_DD,2021.2.3,Win32,59.94844434,,,,,,,,,,,1.0176,1,,,,,,,,,,,,,,,z,1,1.0176,,,,,,,,0.675179054,-0.131043214,0,0,0,,0,138,138,115,1,MAWNS,HB,old,z,./images/MAWNSHB.png,,,,,,,,,,,,,,,,,,,,,,,,,,,,,,,,,,
,,,,,,,,,,,,,,,,,5f3d3d3232c27107a850dd85,52,2022-02-12_11h23.05.909,lexical_decision_task_DD,2021.2.3,Win32,59.94844434,,,,,,,,,,,0.601,1,,,,,,,,,,,,,,,m,1,0.601,,,,,,,,0.675179054,-0.131043214,0,0,0,,0,139,139,38,1,LADDER,LB,old,m,./images/LADDERLB.png,,,,,,,,,,,,,,,,,,,,,,,,,,,,,,,,,,
,,,,,,,,,,,,,,,,,5f3d3d3232c27107a850dd85,52,2022-02-12_11h23.05.909,lexical_decision_task_DD,2021.2.3,Win32,59.94844434,,,,,,,,,,,0.6712,1,,,,,,,,,,,,,,,z,1,0.6712,,,,,,,,0.675179054,-0.131043214,0,0,0,,0,140,140,124,1,TUNCH,HB,old,z,./images/TUNCHHB.png,,,,,,,,,,,,,,,,,,,,,,,,,,,,,,,,,,
,,,,,,,,,,,,,,,,,5f3d3d3232c27107a850dd85,52,2022-02-12_11h23.05.909,lexical_decision_task_DD,2021.2.3,Win32,59.94844434,,,,,,,,,,,0.5569,1,,,,,,,,,,,,,,,m,1,0.5569,,,,,,,,0.675179054,-0.131043214,0,0,0,,0,141,141,27,1,ATTIC,C,old,m,./images/ATTIC.png,,,,,,,,,,,,,,,,,,,,,,,,,,,,,,,,,,
,,,,,,,,,,,,,,,,,5f3d3d3232c27107a850dd85,52,2022-02-12_11h23.05.909,lexical_decision_task_DD,2021.2.3,Win32,59.94844434,,,,,,,,,,,1.1863,1,,,,,,,,,,,,,,,z,1,1.1863,,,,,,,,0.675179054,-0.131043214,0,0,0,,0,142,142,106,1,CLUMS,HB,old,z,./images/CLUMSHB.png,,,,,,,,,,,,,,,,,,,,,,,,,,,,,,,,,,
,,,,,,,,,,,,,,,,,5f3d3d3232c27107a850dd85,52,2022-02-12_11h23.05.909,lexical_decision_task_DD,2021.2.3,Win32,59.94844434,,,,,,,,,,,0.6102,1,,,,,,,,,,,,,,,z,1,0.6102,,,,,,,,0.675179054,-0.131043214,0,0,0,,0,143,143,102,1,DULLE,C,old,z,./images/DULLE.png,,,,,,,,,,,,,,,,,,,,,,,,,,,,,,,,,,
,,,,,,,,,,,,,,,,,5f3d3d3232c27107a850dd85,52,2022-02-12_11h23.05.909,lexical_decision_task_DD,2021.2.3,Win32,59.94844434,,,,,,,,,,,0.6181,0,,,,,,,,,,,,,,,z,0,0.6181,,,,,,,,0.675179054,-0.131043214,0,0,0,,0,144,144,7,1,PAINT,HB,old,m,./images/PAINTHB.png,,,,,,,,,,,,,,,,,,,,,,,,,,,,,,,,,,
,,,,,,,,,,,,,,,,,5f3d3d3232c27107a850dd85,52,2022-02-12_11h23.05.909,lexical_decision_task_DD,2021.2.3,Win32,59.94844434,,,,,,,,,,,0.6065,1,,,,,,,,,,,,,,,m,1,0.6065,,,,,,,,0.675179054,-0.131043214,0,0,0,,0,145,145,57,1,MOOSE,C,old,m,./images/MOOSE.png,,,,,,,,,,,,,,,,,,,,,,,,,,,,,,,,,,
,,,,,,,,,,,,,,,,,5f3d3d3232c27107a850dd85,52,2022-02-12_11h23.05.909,lexical_decision_task_DD,2021.2.3,Win32,59.94844434,,,,,,,,,,,0.7178,1,,,,,,,,,,,,,,,z,1,0.7178,,,,,,,,0.675179054,-0.131043214,0,0,0,,0,146,146,126,1,GUELS,C,old,z,./images/GUELS.png,,,,,,,,,,,,,,,,,,,,,,,,,,,,,,,,,,
,,,,,,,,,,,,,,,,,5f3d3d3232c27107a850dd85,52,2022-02-12_11h23.05.909,lexical_decision_task_DD,2021.2.3,Win32,59.94844434,,,,,,,,,,,1.3122,1,,,,,,,,,,,,,,,m,1,1.3122,,,,,,,,0.675179054,-0.131043214,0,0,0,,0,147,147,46,1,PEARL,HB,old,m,./images/PEARLHB.png,,,,,,,,,,,,,,,,,,,,,,,,,,,,,,,,,,
,,,,,,,,,,,,,,,,,5f3d3d3232c27107a850dd85,52,2022-02-12_11h23.05.909,lexical_decision_task_DD,2021.2.3,Win32,59.94844434,,,,,,,,,,,0.728,1,,,,,,,,,,,,,,,z,1,0.728,,,,,,,,0.675179054,-0.131043214,0,0,0,,0,148,148,123,1,SEDGE,C,old,z,./images/SEDGE.png,,,,,,,,,,,,,,,,,,,,,,,,,,,,,,,,,,
,,,,,,,,,,,,,,,,,5f3d3d3232c27107a850dd85,52,2022-02-12_11h23.05.909,lexical_decision_task_DD,2021.2.3,Win32,59.94844434,,,,,,,,,,,0.9657,1,,,,,,,,,,,,,,,m,1,0.9657,,,,,,,,0.675179054,-0.131043214,0,0,0,,0,149,149,45,1,KITTEN,C,old,m,./images/KITTEN.png,,,,,,,,,,,,,,,,,,,,,,,,,,,,,,,,,,
,,,,,,,,,,,,,,,,,5f3d3d3232c27107a850dd85,52,2022-02-12_11h23.05.909,lexical_decision_task_DD,2021.2.3,Win32,59.94844434,,,,,,,,,,,2.3185,1,,,,,,,,,,,,,,,m,1,2.3185,,,,,,,,0.675179054,-0.131043214,0,0,0,,0,150,150,10,1,BELLY,HB,old,m,./images/BELLYHB.png,,,,,,,,,,,,,,,,,,,,,,,,,,,,,,,,,,
,,,,,,,,,,,,,,,,,5f3d3d3232c27107a850dd85,52,2022-02-12_11h23.05.909,lexical_decision_task_DD,2021.2.3,Win32,59.94844434,,,,,,,,,,,0.8192,1,,,,,,,,,,,,,,,z,1,0.8192,,,,,,,,0.675179054,-0.131043214,0,0,0,,0,151,151,127,1,NINDY,HB,old,z,./images/NINDYHB.png,,,,,,,,,,,,,,,,,,,,,,,,,,,,,,,,,,
,,,,,,,,,,,,,,,,,5f3d3d3232c27107a850dd85,52,2022-02-12_11h23.05.909,lexical_decision_task_DD,2021.2.3,Win32,59.94844434,,,,,,,,,,,0.6679,1,,,,,,,,,,,,,,,m,1,0.6679,,,,,,,,0.675179054,-0.131043214,0,0,0,,0,152,152,59,1,BURIAL,LB,old,m,./images/BURIALLB.png,,,,,,,,,,,,,,,,,,,,,,,,,,,,,,,,,,
,,,,,,,,,,,,,,,,,5f3d3d3232c27107a850dd85,52,2022-02-12_11h23.05.909,lexical_decision_task_DD,2021.2.3,Win32,59.94844434,,,,,,,,,,,0.6089,1,,,,,,,,,,,,,,,z,1,0.6089,,,,,,,,0.675179054,-0.131043214,0,0,0,,0,153,153,84,1,HAXES,C,old,z,./images/HAXES.png,,,,,,,,,,,,,,,,,,,,,,,,,,,,,,,,,,
,,,,,,,,,,,,,,,,,5f3d3d3232c27107a850dd85,52,2022-02-12_11h23.05.909,lexical_decision_task_DD,2021.2.3,Win32,59.94844434,,,,,,,,,,,0.817,1,,,,,,,,,,,,,,,m,1,0.817,,,,,,,,0.675179054,-0.131043214,0,0,0,,0,154,154,12,1,SHORE,C,old,m,./images/SHORE.png,,,,,,,,,,,,,,,,,,,,,,,,,,,,,,,,,,
,,,,,,,,,,,,,,,,,5f3d3d3232c27107a850dd85,52,2022-02-12_11h23.05.909,lexical_decision_task_DD,2021.2.3,Win32,59.94844434,,,,,,,,,,,0.5726,1,,,,,,,,,,,,,,,z,1,0.5726,,,,,,,,0.675179054,-0.131043214,0,0,0,,0,155,155,90,1,NEAST,C,old,z,./images/NEAST.png,,,,,,,,,,,,,,,,,,,,,,,,,,,,,,,,,,
,,,,,,,,,,,,,,,,,5f3d3d3232c27107a850dd85,52,2022-02-12_11h23.05.909,lexical_decision_task_DD,2021.2.3,Win32,59.94844434,,,,,,,,,,,0.49,1,,,,,,,,,,,,,,,m,1,0.49,,,,,,,,0.675179054,-0.131043214,0,0,0,,0,156,156,0,1,TOMATO,C,old,m,./images/TOMATO.png,,,,,,,,,,,,,,,,,,,,,,,,,,,,,,,,,,
,,,,,,,,,,,,,,,,,5f3d3d3232c27107a850dd85,52,2022-02-12_11h23.05.909,lexical_decision_task_DD,2021.2.3,Win32,59.94844434,,,,,,,,,,,0.6098,1,,,,,,,,,,,,,,,z,1,0.6098,,,,,,,,0.675179054,-0.131043214,0,0,0,,0,157,157,103,1,FLORT,HB,old,z,./images/FLORTHB.png,,,,,,,,,,,,,,,,,,,,,,,,,,,,,,,,,,
,,,,,,,,,,,,,,,,,5f3d3d3232c27107a850dd85,52,2022-02-12_11h23.05.909,lexical_decision_task_DD,2021.2.3,Win32,59.94844434,,,,,,,,,,,0.5791,1,,,,,,,,,,,,,,,z,1,0.5791,,,,,,,,0.675179054,-0.131043214,0,0,0,,0,158,158,150,1,NOOLS,C,old,z,./images/NOOLS.png,,,,,,,,,,,,,,,,,,,,,,,,,,,,,,,,,,
,,,,,,,,,,,,,,,,,5f3d3d3232c27107a850dd85,52,2022-02-12_11h23.05.909,lexical_decision_task_DD,2021.2.3,Win32,59.94844434,,,,,,,,,,,0.7008,1,,,,,,,,,,,,,,,z,1,0.7008,,,,,,,,0.675179054,-0.131043214,0,0,0,,0,159,159,89,1,DRIEK,LB,old,z,./images/DRIEKLB.png,,,,,,,,,,,,,,,,,,,,,,,,,,,,,,,,,,
,,,,,,,,,,,,,,,,,5f3d3d3232c27107a850dd85,52,2022-02-12_11h23.05.909,lexical_decision_task_DD,2021.2.3,Win32,59.94844434,,,,,,,,,,,0.553,1,,,,,,,,,,,,,,,z,1,0.553,,,,,,,,0.675179054,-0.131043214,0,0,0,,0,160,160,117,1,STEEG,C,old,z,./images/STEEG.png,,,,,,,,,,,,,,,,,,,,,,,,,,,,,,,,,,
,,,,,,,,,,,,,,,,,5f3d3d3232c27107a850dd85,52,2022-02-12_11h23.05.909,lexical_decision_task_DD,2021.2.3,Win32,59.94844434,,,,,,,,,,,0.5272,1,,,,,,,,,,,,,,,z,1,0.5272,,,,,,,,0.675179054,-0.131043214,0,0,0,,0,161,161,158,1,EGECT,LB,old,z,./images/EGECTLB.png,,,,,,,,,,,,,,,,,,,,,,,,,,,,,,,,,,
,,,,,,,,,,,,,,,,,5f3d3d3232c27107a850dd85,52,2022-02-12_11h23.05.909,lexical_decision_task_DD,2021.2.3,Win32,59.94844434,,,,,,,,,,,0.4844,0,,,,,,,,,,,,,,,z,0,0.4844,,,,,,,,0.675179054,-0.131043214,0,0,0,,0,162,162,70,1,URINE,HB,old,m,./images/URINEHB.png,,,,,,,,,,,,,,,,,,,,,,,,,,,,,,,,,,
,,,,,,,,,,,,,,,,,5f3d3d3232c27107a850dd85,52,2022-02-12_11h23.05.909,lexical_decision_task_DD,2021.2.3,Win32,59.94844434,,,,,,,,,,,0.4849,1,,,,,,,,,,,,,,,m,1,0.4849,,,,,,,,0.675179054,-0.131043214,0,0,0,,0,163,163,18,1,JAGUAR,C,old,m,./images/JAGUAR.png,,,,,,,,,,,,,,,,,,,,,,,,,,,,,,,,,,
,,,,,,,,,,,,,,,,,5f3d3d3232c27107a850dd85,52,2022-02-12_11h23.05.909,lexical_decision_task_DD,2021.2.3,Win32,59.94844434,,,,,,,,,,,0.57,1,,,,,,,,,,,,,,,z,1,0.57,,,,,,,,0.675179054,-0.131043214,0,0,0,,0,164,164,134,1,TROSS,LB,old,z,./images/TROSSLB.png,,,,,,,,,,,,,,,,,,,,,,,,,,,,,,,,,,
,,,,,,,,,,,,,,,,,5f3d3d3232c27107a850dd85,52,2022-02-12_11h23.05.909,lexical_decision_task_DD,2021.2.3,Win32,59.94844434,,,,,,,,,,,0.6019,1,,,,,,,,,,,,,,,z,1,0.6019,,,,,,,,0.675179054,-0.131043214,0,0,0,,0,165,165,87,1,TRING,C,old,z,./images/TRING.png,,,,,,,,,,,,,,,,,,,,,,,,,,,,,,,,,,
,,,,,,,,,,,,,,,,,5f3d3d3232c27107a850dd85,52,2022-02-12_11h23.05.909,lexical_decision_task_DD,2021.2.3,Win32,59.94844434,,,,,,,,,,,1.1854,1,,,,,,,,,,,,,,,m,1,1.1854,,,,,,,,0.675179054,-0.131043214,0,0,0,,0,166,166,13,1,MOTOR,HB,old,m,./images/MOTORHB.png,,,,,,,,,,,,,,,,,,,,,,,,,,,,,,,,,,
,,,,,,,,,,,,,,,,,5f3d3d3232c27107a850dd85,52,2022-02-12_11h23.05.909,lexical_decision_task_DD,2021.2.3,Win32,59.94844434,,,,,,,,,,,1.1846,1,,,,,,,,,,,,,,,m,1,1.1846,,,,,,,,0.675179054,-0.131043214,0,0,0,,0,167,167,69,1,COOKER,C,old,m,./images/COOKER.png,,,,,,,,,,,,,,,,,,,,,,,,,,,,,,,,,,
,,,,,,,,,,,,,,,,,5f3d3d3232c27107a850dd85,52,2022-02-12_11h23.05.909,lexical_decision_task_DD,2021.2.3,Win32,59.94844434,,,,,,,,,,,,,,,,,,,,,,,,,,,,,,,,,,,,,,,,,,,,,,,,,How likely will it be that you will recognize the words presented clearly on a scale of 0 (not likely) to 100 (most likely)?,,,,,0.027480797,-0.431760288,1,0,0,jol_adv,6,20.2695,0,0,0,0,1,,,,,,,,,,,,,,,,,,,,
,,,,,,,,,,,,,,,,,5f3d3d3232c27107a850dd85,52,2022-02-12_11h23.05.909,lexical_decision_task_DD,2021.2.3,Win32,59.94844434,,,,,,,,,,,,,,,,,,,,,,,,,,,,,,,,,,,,,,,,,,,,,,,,,How likely will it be that you will recognize the words presented slighly blurred on a scale of 0 (not likely) to 100 (most likely)?,,,,,,,,,,,6,5.9526,0,1,1,1,1,,,,,,,,,,,,,,,,,,,,
,,,,,,,,,,,,,,,,,5f3d3d3232c27107a850dd85,52,2022-02-12_11h23.05.909,lexical_decision_task_DD,2021.2.3,Win32,59.94844434,,,,,,,,,,,,,,,,,,,,,,,,,,,,,,,,,,,,,,,,,,,,,,,,,How likely will it be that you will recognize the words presented very blurred on a scale of 0 (not likely) to 100 (most likely)?,,,,,,,,,,,3,12.201,0,2,2,2,1,,,,,,,,,,,,,,,,,,,,
,0.030256647,-0.399375372,1,0,0,instr_done_button,,,,,,1,test,"In the next phase you will be presented with the words from the the first phase. Your job is to decide whether you remember seeing the word or not. If you remember seeing the word press ""old"" or type ""m"". If you do not remember seeing the word press ""new"" or type ""z"". Please press the space bar or click on continue to begin. ",,,5f3d3d3232c27107a850dd85,52,2022-02-12_11h23.05.909,lexical_decision_task_DD,2021.2.3,Win32,59.94844434,,,,,,,,,,,,,,,,,,,,,,,,,,,,,,,,,,,,,,,,,,,,,,,,,,,,,,,,,,,,,,,,,,,0,0,0,0,1,,,,,,,,,,,,,,,
,0.054314126,-0.392898389,1,0,0,instr_done_button,,,,,,1,test,"In the next phase you will be presented with the words from the the first phase. Your job is to decide whether you remember seeing the word or not. If you remember seeing the word press ""old"" or type ""m"". If you do not remember seeing the word press ""new"" or type ""z"". Please press the space bar or click on continue to begin. ",,,5f3d3d3232c27107a850dd85,52,2022-02-12_11h23.05.909,lexical_decision_task_DD,2021.2.3,Win32,59.94844434,,,,,,,,,,,,,,,,,,,,,,,,,,,,,,,,,,,,,,,,,,,,,,,,,,,,,,,,,,,,,,,,,,,1,0,1,0,1,,,,,,,,,,,,,,,
space,0.057089919,-0.394748899,0,0,0,,,,,,,1,test,"In the next phase you will be presented with the words from the the first phase. Your job is to decide whether you remember seeing the word or not. If you remember seeing the word press ""old"" or type ""m"". If you do not remember seeing the word press ""new"" or type ""z"". Please press the space bar or click on continue to begin. ",,,5f3d3d3232c27107a850dd85,52,2022-02-12_11h23.05.909,lexical_decision_task_DD,2021.2.3,Win32,59.94844434,,,,,,,,,,,,,,,,,,,,,1.5686,,,,,,,,,,,,,,,,,,,,,,,,,,,,,,,,,,,,,,,,,,,,,,2,0,2,0,1,,,,,,,,,,,,,,,
,0.062641619,-0.394748899,1,0,0,instr_done_button,,,,,,1,test,"In the next phase you will be presented with the words from the the first phase. Your job is to decide whether you remember seeing the word or not. If you remember seeing the word press ""old"" or type ""m"". If you do not remember seeing the word press ""new"" or type ""z"". Please press the space bar or click on continue to begin. ",,,5f3d3d3232c27107a850dd85,52,2022-02-12_11h23.05.909,lexical_decision_task_DD,2021.2.3,Win32,59.94844434,,,,,,,,,,,,,,,,,,,,,,,,,,,,,,,,,,,,,,,,,,,,,,,,,,,,,,,,,,,,,,,,,,,3,0,3,0,1,,,,,,,,,,,,,,,
,0.03303261,-0.387346689,1,0,0,instr_done_button,,,,,,1,test,"In the next phase you will be presented with the words from the the first phase. Your job is to decide whether you remember seeing the word or not. If you remember seeing the word press ""old"" or type ""m"". If you do not remember seeing the word press ""new"" or type ""z"". Please press the space bar or click on continue to begin. ",,,5f3d3d3232c27107a850dd85,52,2022-02-12_11h23.05.909,lexical_decision_task_DD,2021.2.3,Win32,59.94844434,,,,,,,,,,,,,,,,,,,,,,,,,,,,,,,,,,,,,,,,,,,,,,,,,,,,,,,,,,,,,,,,,,,4,0,4,0,1,,,,,,,,,,,,,,,
,,,,,,,,,,,,,,,,,5f3d3d3232c27107a850dd85,52,2022-02-12_11h23.05.909,lexical_decision_task_DD,2021.2.3,Win32,59.94844434,,,,,,,,,,,2.6949,0,,,,,,,,,,,,,,,,,,,,,,,,,0.118158617,-0.375318006,0,0,0,,,,,,,PIMPLE,LB,m,m,./images/PIMPLELB.png,,,,,,,,,,,,,,,,,,,,z,0,2.6949,,,,,,,,0,0,0,71,1
,,,,,,,,,,,,,,,,,5f3d3d3232c27107a850dd85,52,2022-02-12_11h23.05.909,lexical_decision_task_DD,2021.2.3,Win32,59.94844434,,,,,,,,,,,1.1021,1,,,,,,,,,,,,,,,,,,,,,,,,,0.118158617,-0.375318006,0,0,0,,,,,,,PURSE,LB,m,m,./images/PURSELB.png,,,,,,,,,,,,,,,,,,,,m,1,1.1021,,,,,,,,0,1,1,62,1
,,,,,,,,,,,,,,,,,5f3d3d3232c27107a850dd85,52,2022-02-12_11h23.05.909,lexical_decision_task_DD,2021.2.3,Win32,59.94844434,,,,,,,,,,,1.5181,1,,,,,,,,,,,,,,,,,,,,,,,,,0.118158617,-0.375318006,0,0,0,,,,,,,JUMPER,LB,z,m,./images/JUMPERLB.png,,,,,,,,,,,,,,,,,,,,z,1,1.5181,,,,,,,,0,2,2,158,1
,,,,,,,,,,,,,,,,,5f3d3d3232c27107a850dd85,52,2022-02-12_11h23.05.909,lexical_decision_task_DD,2021.2.3,Win32,59.94844434,,,,,,,,,,,2.5851,1,,,,,,,,,,,,,,,,,,,,,,,,,0.118158617,-0.375318006,0,0,0,,,,,,,FOLDER,C,m,m,./images/FOLDER.png,,,,,,,,,,,,,,,,,,,,m,1,2.5851,,,,,,,,0,3,3,42,1
,,,,,,,,,,,,,,,,,5f3d3d3232c27107a850dd85,52,2022-02-12_11h23.05.909,lexical_decision_task_DD,2021.2.3,Win32,59.94844434,,,,,,,,,,,1.0013,1,,,,,,,,,,,,,,,,,,,,,,,,,0.118158617,-0.375318006,0,0,0,,,,,,,KIDNEY,C,m,m,./images/KIDNEY.png,,,,,,,,,,,,,,,,,,,,m,1,1.0013,,,,,,,,0,4,4,21,1
,,,,,,,,,,,,,,,,,5f3d3d3232c27107a850dd85,52,2022-02-12_11h23.05.909,lexical_decision_task_DD,2021.2.3,Win32,59.94844434,,,,,,,,,,,1.1022,1,,,,,,,,,,,,,,,,,,,,,,,,,0.118158617,-0.375318006,0,0,0,,,,,,,CARPET,LB,m,m,./images/CARPETLB.png,,,,,,,,,,,,,,,,,,,,m,1,1.1022,,,,,,,,0,5,5,53,1
,,,,,,,,,,,,,,,,,5f3d3d3232c27107a850dd85,52,2022-02-12_11h23.05.909,lexical_decision_task_DD,2021.2.3,Win32,59.94844434,,,,,,,,,,,1.2171,1,,,,,,,,,,,,,,,,,,,,,,,,,0.118158617,-0.375318006,0,0,0,,,,,,,CHALK,HB,z,m,./images/CHALKHB.png,,,,,,,,,,,,,,,,,,,,z,1,1.2171,,,,,,,,0,6,6,109,1
,,,,,,,,,,,,,,,,,5f3d3d3232c27107a850dd85,52,2022-02-12_11h23.05.909,lexical_decision_task_DD,2021.2.3,Win32,59.94844434,,,,,,,,,,,2.7998,0,,,,,,,,,,,,,,,,,,,,,,,,,0.118158617,-0.375318006,0,0,0,,,,,,,STRING,LB,m,m,./images/STRINGLB.png,,,,,,,,,,,,,,,,,,,,z,0,2.7998,,,,,,,,0,7,7,41,1
,,,,,,,,,,,,,,,,,5f3d3d3232c27107a850dd85,52,2022-02-12_11h23.05.909,lexical_decision_task_DD,2021.2.3,Win32,59.94844434,,,,,,,,,,,0.9718,0,,,,,,,,,,,,,,,,,,,,,,,,,0.118158617,-0.375318006,0,0,0,,,,,,,MOSQUE,HB,m,m,./images/MOSQUEHB.png,,,,,,,,,,,,,,,,,,,,z,0,0.9718,,,,,,,,0,8,8,43,1
,,,,,,,,,,,,,,,,,5f3d3d3232c27107a850dd85,52,2022-02-12_11h23.05.909,lexical_decision_task_DD,2021.2.3,Win32,59.94844434,,,,,,,,,,,0.9847,1,,,,,,,,,,,,,,,,,,,,,,,,,0.118158617,-0.375318006,0,0,0,,,,,,,LIZARD,LB,m,m,./images/LIZARDLB.png,,,,,,,,,,,,,,,,,,,,m,1,0.9847,,,,,,,,0,9,9,44,1
,,,,,,,,,,,,,,,,,5f3d3d3232c27107a850dd85,52,2022-02-12_11h23.05.909,lexical_decision_task_DD,2021.2.3,Win32,59.94844434,,,,,,,,,,,1.0008,1,,,,,,,,,,,,,,,,,,,,,,,,,0.118158617,-0.375318006,0,0,0,,,,,,,BAMBOO,LB,z,m,./images/BAMBOOLB.png,,,,,,,,,,,,,,,,,,,,z,1,1.0008,,,,,,,,0,10,10,89,1
,,,,,,,,,,,,,,,,,5f3d3d3232c27107a850dd85,52,2022-02-12_11h23.05.909,lexical_decision_task_DD,2021.2.3,Win32,59.94844434,,,,,,,,,,,0.943,1,,,,,,,,,,,,,,,,,,,,,,,,,0.118158617,-0.375318006,0,0,0,,,,,,,KITTEN,C,m,m,./images/KITTEN.png,,,,,,,,,,,,,,,,,,,,m,1,0.943,,,,,,,,0,11,11,45,1
,,,,,,,,,,,,,,,,,5f3d3d3232c27107a850dd85,52,2022-02-12_11h23.05.909,lexical_decision_task_DD,2021.2.3,Win32,59.94844434,,,,,,,,,,,0.7387,1,,,,,,,,,,,,,,,,,,,,,,,,,0.118158617,-0.375318006,0,0,0,,,,,,,MAMMAL,LB,z,m,./images/MAMMALLB.png,,,,,,,,,,,,,,,,,,,,z,1,0.7387,,,,,,,,0,12,12,146,1
,,,,,,,,,,,,,,,,,5f3d3d3232c27107a850dd85,52,2022-02-12_11h23.05.909,lexical_decision_task_DD,2021.2.3,Win32,59.94844434,,,,,,,,,,,0.9681,0,,,,,,,,,,,,,,,,,,,,,,,,,0.118158617,-0.375318006,0,0,0,,,,,,,FINGER,C,m,m,./images/FINGER.png,,,,,,,,,,,,,,,,,,,,z,0,0.9681,,,,,,,,0,13,13,3,1
,,,,,,,,,,,,,,,,,5f3d3d3232c27107a850dd85,52,2022-02-12_11h23.05.909,lexical_decision_task_DD,2021.2.3,Win32,59.94844434,,,,,,,,,,,0.7385,0,,,,,,,,,,,,,,,,,,,,,,,,,0.118158617,-0.375318006,0,0,0,,,,,,,MOTOR,HB,m,m,./images/MOTORHB.png,,,,,,,,,,,,,,,,,,,,z,0,0.7385,,,,,,,,0,14,14,13,1
,,,,,,,,,,,,,,,,,5f3d3d3232c27107a850dd85,52,2022-02-12_11h23.05.909,lexical_decision_task_DD,2021.2.3,Win32,59.94844434,,,,,,,,,,,2.9191,0,,,,,,,,,,,,,,,,,,,,,,,,,0.118158617,-0.375318006,0,0,0,,,,,,,STAIN,C,z,m,./images/STAIN.png,,,,,,,,,,,,,,,,,,,,m,0,2.9191,,,,,,,,0,15,15,90,1
,,,,,,,,,,,,,,,,,5f3d3d3232c27107a850dd85,52,2022-02-12_11h23.05.909,lexical_decision_task_DD,2021.2.3,Win32,59.94844434,,,,,,,,,,,0.7528,1,,,,,,,,,,,,,,,,,,,,,,,,,0.118158617,-0.375318006,0,0,0,,,,,,,TOMATO,C,m,m,./images/TOMATO.png,,,,,,,,,,,,,,,,,,,,m,1,0.7528,,,,,,,,0,16,16,0,1
,,,,,,,,,,,,,,,,,5f3d3d3232c27107a850dd85,52,2022-02-12_11h23.05.909,lexical_decision_task_DD,2021.2.3,Win32,59.94844434,,,,,,,,,,,0.7536,1,,,,,,,,,,,,,,,,,,,,,,,,,0.118158617,-0.375318006,0,0,0,,,,,,,WHISKY,LB,z,m,./images/WHISKYLB.png,,,,,,,,,,,,,,,,,,,,z,1,0.7536,,,,,,,,0,17,17,167,1
,,,,,,,,,,,,,,,,,5f3d3d3232c27107a850dd85,52,2022-02-12_11h23.05.909,lexical_decision_task_DD,2021.2.3,Win32,59.94844434,,,,,,,,,,,2.3185,1,,,,,,,,,,,,,,,,,,,,,,,,,0.118158617,-0.375318006,0,0,0,,,,,,,CHAIN,C,z,m,./images/CHAIN.png,,,,,,,,,,,,,,,,,,,,z,1,2.3185,,,,,,,,0,18,18,126,1
,,,,,,,,,,,,,,,,,5f3d3d3232c27107a850dd85,52,2022-02-12_11h23.05.909,lexical_decision_task_DD,2021.2.3,Win32,59.94844434,,,,,,,,,,,1.8017,1,,,,,,,,,,,,,,,,,,,,,,,,,0.118158617,-0.375318006,0,0,0,,,,,,,PAINT,HB,m,m,./images/PAINTHB.png,,,,,,,,,,,,,,,,,,,,m,1,1.8017,,,,,,,,0,19,19,7,1
,,,,,,,,,,,,,,,,,5f3d3d3232c27107a850dd85,52,2022-02-12_11h23.05.909,lexical_decision_task_DD,2021.2.3,Win32,59.94844434,,,,,,,,,,,1.0539,0,,,,,,,,,,,,,,,,,,,,,,,,,0.118158617,-0.375318006,0,0,0,,,,,,,SNACK,HB,m,m,./images/SNACKHB.png,,,,,,,,,,,,,,,,,,,,z,0,1.0539,,,,,,,,0,20,20,73,1
,,,,,,,,,,,,,,,,,5f3d3d3232c27107a850dd85,52,2022-02-12_11h23.05.909,lexical_decision_task_DD,2021.2.3,Win32,59.94844434,,,,,,,,,,,0.9083,1,,,,,,,,,,,,,,,,,,,,,,,,,0.118158617,-0.375318006,0,0,0,,,,,,,MIDGET,HB,z,m,./images/MIDGETHB.png,,,,,,,,,,,,,,,,,,,,z,1,0.9083,,,,,,,,0,21,21,160,1
,,,,,,,,,,,,,,,,,5f3d3d3232c27107a850dd85,52,2022-02-12_11h23.05.909,lexical_decision_task_DD,2021.2.3,Win32,59.94844434,,,,,,,,,,,0.9685,1,,,,,,,,,,,,,,,,,,,,,,,,,0.118158617,-0.375318006,0,0,0,,,,,,,MUFFIN,HB,m,m,./images/MUFFINHB.png,,,,,,,,,,,,,,,,,,,,m,1,0.9685,,,,,,,,0,22,22,55,1
,,,,,,,,,,,,,,,,,5f3d3d3232c27107a850dd85,52,2022-02-12_11h23.05.909,lexical_decision_task_DD,2021.2.3,Win32,59.94844434,,,,,,,,,,,0.9018,1,,,,,,,,,,,,,,,,,,,,,,,,,0.118158617,-0.375318006,0,0,0,,,,,,,CANYON,HB,m,m,./images/CANYONHB.png,,,,,,,,,,,,,,,,,,,,m,1,0.9018,,,,,,,,0,23,23,34,1
,,,,,,,,,,,,,,,,,5f3d3d3232c27107a850dd85,52,2022-02-12_11h23.05.909,lexical_decision_task_DD,2021.2.3,Win32,59.94844434,,,,,,,,,,,0.9511,0,,,,,,,,,,,,,,,,,,,,,,,,,0.118158617,-0.375318006,0,0,0,,,,,,,FENCE,LB,z,m,./images/FENCELB.png,,,,,,,,,,,,,,,,,,,,m,0,0.9511,,,,,,,,0,24,24,98,1
,,,,,,,,,,,,,,,,,5f3d3d3232c27107a850dd85,52,2022-02-12_11h23.05.909,lexical_decision_task_DD,2021.2.3,Win32,59.94844434,,,,,,,,,,,1.0012,0,,,,,,,,,,,,,,,,,,,,,,,,,0.118158617,-0.375318006,0,0,0,,,,,,,SWING,HB,m,m,./images/SWINGHB.png,,,,,,,,,,,,,,,,,,,,z,0,1.0012,,,,,,,,0,25,25,40,1
,,,,,,,,,,,,,,,,,5f3d3d3232c27107a850dd85,52,2022-02-12_11h23.05.909,lexical_decision_task_DD,2021.2.3,Win32,59.94844434,,,,,,,,,,,0.9178,1,,,,,,,,,,,,,,,,,,,,,,,,,0.118158617,-0.375318006,0,0,0,,,,,,,CEMENT,LB,m,m,./images/CEMENTLB.png,,,,,,,,,,,,,,,,,,,,m,1,0.9178,,,,,,,,0,26,26,74,1
,,,,,,,,,,,,,,,,,5f3d3d3232c27107a850dd85,52,2022-02-12_11h23.05.909,lexical_decision_task_DD,2021.2.3,Win32,59.94844434,,,,,,,,,,,0.7181,1,,,,,,,,,,,,,,,,,,,,,,,,,0.118158617,-0.375318006,0,0,0,,,,,,,STEAK,HB,z,m,./images/STEAKHB.png,,,,,,,,,,,,,,,,,,,,z,1,0.7181,,,,,,,,0,27,27,115,1
,,,,,,,,,,,,,,,,,5f3d3d3232c27107a850dd85,52,2022-02-12_11h23.05.909,lexical_decision_task_DD,2021.2.3,Win32,59.94844434,,,,,,,,,,,0.9012,1,,,,,,,,,,,,,,,,,,,,,,,,,0.118158617,-0.375318006,0,0,0,,,,,,,BUTTER,C,z,m,./images/BUTTER.png,,,,,,,,,,,,,,,,,,,,z,1,0.9012,,,,,,,,0,28,28,111,1
,,,,,,,,,,,,,,,,,5f3d3d3232c27107a850dd85,52,2022-02-12_11h23.05.909,lexical_decision_task_DD,2021.2.3,Win32,59.94844434,,,,,,,,,,,0.7723,1,,,,,,,,,,,,,,,,,,,,,,,,,0.118158617,-0.375318006,0,0,0,,,,,,,WALNUT,C,z,m,./images/WALNUT.png,,,,,,,,,,,,,,,,,,,,z,1,0.7723,,,,,,,,0,29,29,84,1
,,,,,,,,,,,,,,,,,5f3d3d3232c27107a850dd85,52,2022-02-12_11h23.05.909,lexical_decision_task_DD,2021.2.3,Win32,59.94844434,,,,,,,,,,,0.6848,1,,,,,,,,,,,,,,,,,,,,,,,,,0.118158617,-0.375318006,0,0,0,,,,,,,PARCEL,C,z,m,./images/PARCEL.png,,,,,,,,,,,,,,,,,,,,z,1,0.6848,,,,,,,,0,30,30,102,1
,,,,,,,,,,,,,,,,,5f3d3d3232c27107a850dd85,52,2022-02-12_11h23.05.909,lexical_decision_task_DD,2021.2.3,Win32,59.94844434,,,,,,,,,,,0.7765,0,,,,,,,,,,,,,,,,,,,,,,,,,0.118158617,-0.375318006,0,0,0,,,,,,,WEASEL,LB,m,m,./images/WEASELLB.png,,,,,,,,,,,,,,,,,,,,z,0,0.7765,,,,,,,,0,31,31,80,1
,,,,,,,,,,,,,,,,,5f3d3d3232c27107a850dd85,52,2022-02-12_11h23.05.909,lexical_decision_task_DD,2021.2.3,Win32,59.94844434,,,,,,,,,,,0.9906,1,,,,,,,,,,,,,,,,,,,,,,,,,0.118158617,-0.375318006,0,0,0,,,,,,,FALCON,HB,m,m,./images/FALCONHB.png,,,,,,,,,,,,,,,,,,,,m,1,0.9906,,,,,,,,0,32,32,28,1
,,,,,,,,,,,,,,,,,5f3d3d3232c27107a850dd85,52,2022-02-12_11h23.05.909,lexical_decision_task_DD,2021.2.3,Win32,59.94844434,,,,,,,,,,,1.3873,0,,,,,,,,,,,,,,,,,,,,,,,,,0.118158617,-0.375318006,0,0,0,,,,,,,JUNGLE,LB,m,m,./images/JUNGLELB.png,,,,,,,,,,,,,,,,,,,,z,0,1.3873,,,,,,,,0,33,33,83,1
,,,,,,,,,,,,,,,,,5f3d3d3232c27107a850dd85,52,2022-02-12_11h23.05.909,lexical_decision_task_DD,2021.2.3,Win32,59.94844434,,,,,,,,,,,0.8682,0,,,,,,,,,,,,,,,,,,,,,,,,,0.118158617,-0.375318006,0,0,0,,,,,,,SWEAT,C,m,m,./images/SWEAT.png,,,,,,,,,,,,,,,,,,,,z,0,0.8682,,,,,,,,0,34,34,66,1
,,,,,,,,,,,,,,,,,5f3d3d3232c27107a850dd85,52,2022-02-12_11h23.05.909,lexical_decision_task_DD,2021.2.3,Win32,59.94844434,,,,,,,,,,,1.1347,0,,,,,,,,,,,,,,,,,,,,,,,,,0.118158617,-0.375318006,0,0,0,,,,,,,POODLE,C,m,m,./images/POODLE.png,,,,,,,,,,,,,,,,,,,,z,0,1.1347,,,,,,,,0,35,35,81,1
,,,,,,,,,,,,,,,,,5f3d3d3232c27107a850dd85,52,2022-02-12_11h23.05.909,lexical_decision_task_DD,2021.2.3,Win32,59.94844434,,,,,,,,,,,1.368,0,,,,,,,,,,,,,,,,,,,,,,,,,0.118158617,-0.375318006,0,0,0,,,,,,,MIRROR,C,m,m,./images/MIRROR.png,,,,,,,,,,,,,,,,,,,,z,0,1.368,,,,,,,,0,36,36,63,1
,,,,,,,,,,,,,,,,,5f3d3d3232c27107a850dd85,52,2022-02-12_11h23.05.909,lexical_decision_task_DD,2021.2.3,Win32,59.94844434,,,,,,,,,,,0.7351,1,,,,,,,,,,,,,,,,,,,,,,,,,0.118158617,-0.375318006,0,0,0,,,,,,,WAGON,HB,z,m,./images/WAGONHB.png,,,,,,,,,,,,,,,,,,,,z,1,0.7351,,,,,,,,0,37,37,91,1
,,,,,,,,,,,,,,,,,5f3d3d3232c27107a850dd85,52,2022-02-12_11h23.05.909,lexical_decision_task_DD,2021.2.3,Win32,59.94844434,,,,,,,,,,,1.5518,0,,,,,,,,,,,,,,,,,,,,,,,,,0.118158617,-0.375318006,0,0,0,,,,,,,SHELF,C,m,m,./images/SHELF.png,,,,,,,,,,,,,,,,,,,,z,0,1.5518,,,,,,,,0,38,38,39,1
,,,,,,,,,,,,,,,,,5f3d3d3232c27107a850dd85,52,2022-02-12_11h23.05.909,lexical_decision_task_DD,2021.2.3,Win32,59.94844434,,,,,,,,,,,0.8017,0,,,,,,,,,,,,,,,,,,,,,,,,,0.118158617,-0.375318006,0,0,0,,,,,,,DRUMS,HB,m,m,./images/DRUMSHB.png,,,,,,,,,,,,,,,,,,,,z,0,0.8017,,,,,,,,0,39,39,49,1
,,,,,,,,,,,,,,,,,5f3d3d3232c27107a850dd85,52,2022-02-12_11h23.05.909,lexical_decision_task_DD,2021.2.3,Win32,59.94844434,,,,,,,,,,,1.1352,1,,,,,,,,,,,,,,,,,,,,,,,,,0.118158617,-0.375318006,0,0,0,,,,,,,VALLEY,LB,z,m,./images/VALLEYLB.png,,,,,,,,,,,,,,,,,,,,z,1,1.1352,,,,,,,,0,40,40,152,1
,,,,,,,,,,,,,,,,,5f3d3d3232c27107a850dd85,52,2022-02-12_11h23.05.909,lexical_decision_task_DD,2021.2.3,Win32,59.94844434,,,,,,,,,,,0.8011,1,,,,,,,,,,,,,,,,,,,,,,,,,0.118158617,-0.375318006,0,0,0,space,,,,,,CLOUD,LB,z,m,./images/CLOUDLB.png,6.987,,,,,,,,,,,,,,,,,,,z,1,0.8011,,,,,,,,0,41,41,110,1
,,,,,,,,,,,,,,,,,5f3d3d3232c27107a850dd85,52,2022-02-12_11h23.05.909,lexical_decision_task_DD,2021.2.3,Win32,59.94844434,,,,,,,,,,,1.1177,1,,,,,,,,,,,,,,,,,,,,,,,,,0.118158617,-0.375318006,0,0,0,,,,,,,BISHOP,HB,z,m,./images/BISHOPHB.png,,,,,,,,,,,,,,,,,,,,z,1,1.1177,,,,,,,,0,42,42,133,1
,,,,,,,,,,,,,,,,,5f3d3d3232c27107a850dd85,52,2022-02-12_11h23.05.909,lexical_decision_task_DD,2021.2.3,Win32,59.94844434,,,,,,,,,,,0.6614,0,,,,,,,,,,,,,,,,,,,,,,,,,0.118158617,-0.375318006,0,0,0,,,,,,,SAILOR,HB,m,m,./images/SAILORHB.png,,,,,,,,,,,,,,,,,,,,z,0,0.6614,,,,,,,,0,43,43,67,1
,,,,,,,,,,,,,,,,,5f3d3d3232c27107a850dd85,52,2022-02-12_11h23.05.909,lexical_decision_task_DD,2021.2.3,Win32,59.94844434,,,,,,,,,,,0.6178,1,,,,,,,,,,,,,,,,,,,,,,,,,0.118158617,-0.375318006,0,0,0,,,,,,,GARDEN,HB,z,m,./images/GARDENHB.png,,,,,,,,,,,,,,,,,,,,z,1,0.6178,,,,,,,,0,44,44,94,1
,,,,,,,,,,,,,,,,,5f3d3d3232c27107a850dd85,52,2022-02-12_11h23.05.909,lexical_decision_task_DD,2021.2.3,Win32,59.94844434,,,,,,,,,,,1.1879,0,,,,,,,,,,,,,,,,,,,,,,,,,0.118158617,-0.375318006,0,0,0,,,,,,,LADDER,LB,m,m,./images/LADDERLB.png,,,,,,,,,,,,,,,,,,,,z,0,1.1879,,,,,,,,0,45,45,38,1
,,,,,,,,,,,,,,,,,5f3d3d3232c27107a850dd85,52,2022-02-12_11h23.05.909,lexical_decision_task_DD,2021.2.3,Win32,59.94844434,,,,,,,,,,,0.7683,1,,,,,,,,,,,,,,,,,,,,,,,,,0.118158617,-0.375318006,0,0,0,,,,,,,RAZOR,HB,z,m,./images/RAZORHB.png,,,,,,,,,,,,,,,,,,,,z,1,0.7683,,,,,,,,0,46,46,118,1
,,,,,,,,,,,,,,,,,5f3d3d3232c27107a850dd85,52,2022-02-12_11h23.05.909,lexical_decision_task_DD,2021.2.3,Win32,59.94844434,,,,,,,,,,,0.9018,1,,,,,,,,,,,,,,,,,,,,,,,,,0.118158617,-0.375318006,0,0,0,,,,,,,PARADE,LB,z,m,./images/PARADELB.png,,,,,,,,,,,,,,,,,,,,z,1,0.9018,,,,,,,,0,47,47,101,1
,,,,,,,,,,,,,,,,,5f3d3d3232c27107a850dd85,52,2022-02-12_11h23.05.909,lexical_decision_task_DD,2021.2.3,Win32,59.94844434,,,,,,,,,,,1.1183,0,,,,,,,,,,,,,,,,,,,,,,,,,0.118158617,-0.375318006,0,0,0,,,,,,,ONION,C,m,m,./images/ONION.png,,,,,,,,,,,,,,,,,,,,z,0,1.1183,,,,,,,,0,48,48,51,1
,,,,,,,,,,,,,,,,,5f3d3d3232c27107a850dd85,52,2022-02-12_11h23.05.909,lexical_decision_task_DD,2021.2.3,Win32,59.94844434,,,,,,,,,,,0.6345,0,,,,,,,,,,,,,,,,,,,,,,,,,0.118158617,-0.375318006,0,0,0,,,,,,,DOUGH,HB,m,m,./images/DOUGHHB.png,,,,,,,,,,,,,,,,,,,,z,0,0.6345,,,,,,,,0,49,49,19,1
,,,,,,,,,,,,,,,,,5f3d3d3232c27107a850dd85,52,2022-02-12_11h23.05.909,lexical_decision_task_DD,2021.2.3,Win32,59.94844434,,,,,,,,,,,0.6006,1,,,,,,,,,,,,,,,,,,,,,,,,,0.118158617,-0.375318006,0,0,0,,,,,,,PISTOL,LB,z,m,./images/PISTOLLB.png,,,,,,,,,,,,,,,,,,,,z,1,0.6006,,,,,,,,0,50,50,113,1
,,,,,,,,,,,,,,,,,5f3d3d3232c27107a850dd85,52,2022-02-12_11h23.05.909,lexical_decision_task_DD,2021.2.3,Win32,59.94844434,,,,,,,,,,,0.8354,0,,,,,,,,,,,,,,,,,,,,,,,,,0.118158617,-0.375318006,0,0,0,,,,,,,COOKER,C,m,m,./images/COOKER.png,,,,,,,,,,,,,,,,,,,,z,0,0.8354,,,,,,,,0,51,51,69,1
,,,,,,,,,,,,,,,,,5f3d3d3232c27107a850dd85,52,2022-02-12_11h23.05.909,lexical_decision_task_DD,2021.2.3,Win32,59.94844434,,,,,,,,,,,2.8692,1,,,,,,,,,,,,,,,,,,,,,,,,,0.118158617,-0.375318006,0,0,0,,,,,,,PLANK,HB,m,m,./images/PLANKHB.png,,,,,,,,,,,,,,,,,,,,m,1,2.8692,,,,,,,,0,52,52,1,1
,,,,,,,,,,,,,,,,,5f3d3d3232c27107a850dd85,52,2022-02-12_11h23.05.909,lexical_decision_task_DD,2021.2.3,Win32,59.94844434,,,,,,,,,,,0.8188,1,,,,,,,,,,,,,,,,,,,,,,,,,0.118158617,-0.375318006,0,0,0,,,,,,,GRANNY,LB,z,m,./images/GRANNYLB.png,,,,,,,,,,,,,,,,,,,,z,1,0.8188,,,,,,,,0,53,53,104,1
,,,,,,,,,,,,,,,,,5f3d3d3232c27107a850dd85,52,2022-02-12_11h23.05.909,lexical_decision_task_DD,2021.2.3,Win32,59.94844434,,,,,,,,,,,0.8378,1,,,,,,,,,,,,,,,,,,,,,,,,,0.118158617,-0.375318006,0,0,0,,,,,,,DIVER,C,z,m,./images/DIVER.png,,,,,,,,,,,,,,,,,,,,z,1,0.8378,,,,,,,,0,54,54,93,1
,,,,,,,,,,,,,,,,,5f3d3d3232c27107a850dd85,52,2022-02-12_11h23.05.909,lexical_decision_task_DD,2021.2.3,Win32,59.94844434,,,,,,,,,,,0.7514,1,,,,,,,,,,,,,,,,,,,,,,,,,0.118158617,-0.375318006,0,0,0,,,,,,,SLOPE,C,z,m,./images/SLOPE.png,,,,,,,,,,,,,,,,,,,,z,1,0.7514,,,,,,,,0,55,55,114,1
,,,,,,,,,,,,,,,,,5f3d3d3232c27107a850dd85,52,2022-02-12_11h23.05.909,lexical_decision_task_DD,2021.2.3,Win32,59.94844434,,,,,,,,,,,0.8344,0,,,,,,,,,,,,,,,,,,,,,,,,,0.118158617,-0.375318006,0,0,0,,,,,,,BELLY,HB,m,m,./images/BELLYHB.png,,,,,,,,,,,,,,,,,,,,z,0,0.8344,,,,,,,,0,56,56,10,1
,,,,,,,,,,,,,,,,,5f3d3d3232c27107a850dd85,52,2022-02-12_11h23.05.909,lexical_decision_task_DD,2021.2.3,Win32,59.94844434,,,,,,,,,,,1.8355,1,,,,,,,,,,,,,,,,,,,,,,,,,0.118158617,-0.375318006,0,0,0,,,,,,,CRATER,C,z,m,./images/CRATER.png,,,,,,,,,,,,,,,,,,,,z,1,1.8355,,,,,,,,0,57,57,87,1
,,,,,,,,,,,,,,,,,5f3d3d3232c27107a850dd85,52,2022-02-12_11h23.05.909,lexical_decision_task_DD,2021.2.3,Win32,59.94844434,,,,,,,,,,,0.7182,1,,,,,,,,,,,,,,,,,,,,,,,,,0.118158617,-0.375318006,0,0,0,,,,,,,BRIDE,HB,z,m,./images/BRIDEHB.png,,,,,,,,,,,,,,,,,,,,z,1,0.7182,,,,,,,,0,58,58,148,1
,,,,,,,,,,,,,,,,,5f3d3d3232c27107a850dd85,52,2022-02-12_11h23.05.909,lexical_decision_task_DD,2021.2.3,Win32,59.94844434,,,,,,,,,,,0.7012,1,,,,,,,,,,,,,,,,,,,,,,,,,0.118158617,-0.375318006,0,0,0,,,,,,,BANANA,HB,z,m,./images/BANANAHB.png,,,,,,,,,,,,,,,,,,,,z,1,0.7012,,,,,,,,0,59,59,154,1
,,,,,,,,,,,,,,,,,5f3d3d3232c27107a850dd85,52,2022-02-12_11h23.05.909,lexical_decision_task_DD,2021.2.3,Win32,59.94844434,,,,,,,,,,,2.0852,1,,,,,,,,,,,,,,,,,,,,,,,,,0.118158617,-0.375318006,0,0,0,,,,,,,PENCE,HB,m,m,./images/PENCEHB.png,,,,,,,,,,,,,,,,,,,,m,1,2.0852,,,,,,,,0,60,60,16,1
,,,,,,,,,,,,,,,,,5f3d3d3232c27107a850dd85,52,2022-02-12_11h23.05.909,lexical_decision_task_DD,2021.2.3,Win32,59.94844434,,,,,,,,,,,1.2099,1,,,,,,,,,,,,,,,,,,,,,,,,,0.118158617,-0.375318006,0,0,0,,,,,,,PASTA,LB,m,m,./images/PASTALB.png,,,,,,,,,,,,,,,,,,,,m,1,1.2099,,,,,,,,0,61,61,5,1
,,,,,,,,,,,,,,,,,5f3d3d3232c27107a850dd85,52,2022-02-12_11h23.05.909,lexical_decision_task_DD,2021.2.3,Win32,59.94844434,,,,,,,,,,,1.2042,1,,,,,,,,,,,,,,,,,,,,,,,,,0.118158617,-0.375318006,0,0,0,,,,,,,PILOT,LB,z,m,./images/PILOTLB.png,,,,,,,,,,,,,,,,,,,,z,1,1.2042,,,,,,,,0,62,62,134,1
,,,,,,,,,,,,,,,,,5f3d3d3232c27107a850dd85,52,2022-02-12_11h23.05.909,lexical_decision_task_DD,2021.2.3,Win32,59.94844434,,,,,,,,,,,1.2184,1,,,,,,,,,,,,,,,,,,,,,,,,,0.118158617,-0.375318006,0,0,0,,,,,,,STREAM,LB,z,m,./images/STREAMLB.png,,,,,,,,,,,,,,,,,,,,z,1,1.2184,,,,,,,,0,63,63,125,1
,,,,,,,,,,,,,,,,,5f3d3d3232c27107a850dd85,52,2022-02-12_11h23.05.909,lexical_decision_task_DD,2021.2.3,Win32,59.94844434,,,,,,,,,,,0.9349,1,,,,,,,,,,,,,,,,,,,,,,,,,0.118158617,-0.375318006,0,0,0,,,,,,,TWINS,C,m,m,./images/TWINS.png,,,,,,,,,,,,,,,,,,,,m,1,0.9349,,,,,,,,0,64,64,60,1
,,,,,,,,,,,,,,,,,5f3d3d3232c27107a850dd85,52,2022-02-12_11h23.05.909,lexical_decision_task_DD,2021.2.3,Win32,59.94844434,,,,,,,,,,,1.1847,0,,,,,,,,,,,,,,,,,,,,,,,,,0.118158617,-0.375318006,0,0,0,,,,,,,ENGINE,LB,z,m,./images/ENGINELB.png,,,,,,,,,,,,,,,,,,,,m,0,1.1847,,,,,,,,0,65,65,122,1
,,,,,,,,,,,,,,,,,5f3d3d3232c27107a850dd85,52,2022-02-12_11h23.05.909,lexical_decision_task_DD,2021.2.3,Win32,59.94844434,,,,,,,,,,,1.8346,1,,,,,,,,,,,,,,,,,,,,,,,,,0.118158617,-0.375318006,0,0,0,,,,,,,MALLET,LB,m,m,./images/MALLETLB.png,,,,,,,,,,,,,,,,,,,,m,1,1.8346,,,,,,,,0,66,66,50,1
,,,,,,,,,,,,,,,,,5f3d3d3232c27107a850dd85,52,2022-02-12_11h23.05.909,lexical_decision_task_DD,2021.2.3,Win32,59.94844434,,,,,,,,,,,0.9186,1,,,,,,,,,,,,,,,,,,,,,,,,,0.118158617,-0.375318006,0,0,0,,,,,,,DRILL,C,z,m,./images/DRILL.png,,,,,,,,,,,,,,,,,,,,z,1,0.9186,,,,,,,,0,67,67,165,1
,,,,,,,,,,,,,,,,,5f3d3d3232c27107a850dd85,52,2022-02-12_11h23.05.909,lexical_decision_task_DD,2021.2.3,Win32,59.94844434,,,,,,,,,,,2.8852,1,,,,,,,,,,,,,,,,,,,,,,,,,0.118158617,-0.375318006,0,0,0,,,,,,,RULER,HB,z,m,./images/RULERHB.png,,,,,,,,,,,,,,,,,,,,z,1,2.8852,,,,,,,,0,68,68,163,1
,,,,,,,,,,,,,,,,,5f3d3d3232c27107a850dd85,52,2022-02-12_11h23.05.909,lexical_decision_task_DD,2021.2.3,Win32,59.94844434,,,,,,,,,,,1.6745,1,,,,,,,,,,,,,,,,,,,,,,,,,0.118158617,-0.375318006,0,0,0,,,,,,,GRAIN,C,m,m,./images/GRAIN.png,,,,,,,,,,,,,,,,,,,,m,1,1.6745,,,,,,,,0,69,69,75,1
,,,,,,,,,,,,,,,,,5f3d3d3232c27107a850dd85,52,2022-02-12_11h23.05.909,lexical_decision_task_DD,2021.2.3,Win32,59.94844434,,,,,,,,,,,0.7938,1,,,,,,,,,,,,,,,,,,,,,,,,,0.118158617,-0.375318006,0,0,0,,,,,,,CHERRY,C,z,m,./images/CHERRY.png,,,,,,,,,,,,,,,,,,,,z,1,0.7938,,,,,,,,0,70,70,138,1
,,,,,,,,,,,,,,,,,5f3d3d3232c27107a850dd85,52,2022-02-12_11h23.05.909,lexical_decision_task_DD,2021.2.3,Win32,59.94844434,,,,,,,,,,,0.8677,0,,,,,,,,,,,,,,,,,,,,,,,,,0.118158617,-0.375318006,0,0,0,,,,,,,MONKEY,C,z,m,./images/MONKEY.png,,,,,,,,,,,,,,,,,,,,m,0,0.8677,,,,,,,,0,71,71,129,1
,,,,,,,,,,,,,,,,,5f3d3d3232c27107a850dd85,52,2022-02-12_11h23.05.909,lexical_decision_task_DD,2021.2.3,Win32,59.94844434,,,,,,,,,,,0.9518,0,,,,,,,,,,,,,,,,,,,,,,,,,0.118158617,-0.375318006,0,0,0,,,,,,,FERRY,C,z,m,./images/FERRY.png,,,,,,,,,,,,,,,,,,,,m,0,0.9518,,,,,,,,0,72,72,141,1
,,,,,,,,,,,,,,,,,5f3d3d3232c27107a850dd85,52,2022-02-12_11h23.05.909,lexical_decision_task_DD,2021.2.3,Win32,59.94844434,,,,,,,,,,,1.1014,0,,,,,,,,,,,,,,,,,,,,,,,,,0.118158617,-0.375318006,0,0,0,,,,,,,ARTIST,HB,z,m,./images/ARTISTHB.png,,,,,,,,,,,,,,,,,,,,m,0,1.1014,,,,,,,,0,73,73,145,1
,,,,,,,,,,,,,,,,,5f3d3d3232c27107a850dd85,52,2022-02-12_11h23.05.909,lexical_decision_task_DD,2021.2.3,Win32,59.94844434,,,,,,,,,,,0.8014,1,,,,,,,,,,,,,,,,,,,,,,,,,0.118158617,-0.375318006,0,0,0,,,,,,,FLESH,C,z,m,./images/FLESH.png,,,,,,,,,,,,,,,,,,,,z,1,0.8014,,,,,,,,0,74,74,108,1
,,,,,,,,,,,,,,,,,5f3d3d3232c27107a850dd85,52,2022-02-12_11h23.05.909,lexical_decision_task_DD,2021.2.3,Win32,59.94844434,,,,,,,,,,,0.7683,1,,,,,,,,,,,,,,,,,,,,,,,,,0.118158617,-0.375318006,0,0,0,,,,,,,RHINO,C,m,m,./images/RHINO.png,,,,,,,,,,,,,,,,,,,,m,1,0.7683,,,,,,,,0,75,75,9,1
,,,,,,,,,,,,,,,,,5f3d3d3232c27107a850dd85,52,2022-02-12_11h23.05.909,lexical_decision_task_DD,2021.2.3,Win32,59.94844434,,,,,,,,,,,0.7606,1,,,,,,,,,,,,,,,,,,,,,,,,,0.118158617,-0.375318006,0,0,0,,,,,,,SCREW,C,m,m,./images/SCREW.png,,,,,,,,,,,,,,,,,,,,m,1,0.7606,,,,,,,,0,76,76,24,1
,,,,,,,,,,,,,,,,,5f3d3d3232c27107a850dd85,52,2022-02-12_11h23.05.909,lexical_decision_task_DD,2021.2.3,Win32,59.94844434,,,,,,,,,,,0.9251,1,,,,,,,,,,,,,,,,,,,,,,,,,0.118158617,-0.375318006,0,0,0,,,,,,,PACKET,LB,m,m,./images/PACKETLB.png,,,,,,,,,,,,,,,,,,,,m,1,0.9251,,,,,,,,0,77,77,56,1
,,,,,,,,,,,,,,,,,5f3d3d3232c27107a850dd85,52,2022-02-12_11h23.05.909,lexical_decision_task_DD,2021.2.3,Win32,59.94844434,,,,,,,,,,,1.5257,0,,,,,,,,,,,,,,,,,,,,,,,,,0.118158617,-0.375318006,0,0,0,,,,,,,MELON,HB,m,m,./images/MELONHB.png,,,,,,,,,,,,,,,,,,,,z,0,1.5257,,,,,,,,0,78,78,22,1
,,,,,,,,,,,,,,,,,5f3d3d3232c27107a850dd85,52,2022-02-12_11h23.05.909,lexical_decision_task_DD,2021.2.3,Win32,59.94844434,,,,,,,,,,,0.8892,1,,,,,,,,,,,,,,,,,,,,,,,,,0.118158617,-0.375318006,0,0,0,,,,,,,MUMMY,HB,z,m,./images/MUMMYHB.png,,,,,,,,,,,,,,,,,,,,z,1,0.8892,,,,,,,,0,79,79,130,1
,,,,,,,,,,,,,,,,,5f3d3d3232c27107a850dd85,52,2022-02-12_11h23.05.909,lexical_decision_task_DD,2021.2.3,Win32,59.94844434,,,,,,,,,,,1.8684,1,,,,,,,,,,,,,,,,,,,,,,,,,0.118158617,-0.375318006,0,0,0,,,,,,,FLASK,C,z,m,./images/FLASK.png,,,,,,,,,,,,,,,,,,,,z,1,1.8684,,,,,,,,0,80,80,156,1
,,,,,,,,,,,,,,,,,5f3d3d3232c27107a850dd85,52,2022-02-12_11h23.05.909,lexical_decision_task_DD,2021.2.3,Win32,59.94844434,,,,,,,,,,,1.7684,0,,,,,,,,,,,,,,,,,,,,,,,,,0.118158617,-0.375318006,0,0,0,,,,,,,BARREL,LB,m,m,./images/BARRELLB.png,,,,,,,,,,,,,,,,,,,,z,0,1.7684,,,,,,,,0,81,81,32,1
,,,,,,,,,,,,,,,,,5f3d3d3232c27107a850dd85,52,2022-02-12_11h23.05.909,lexical_decision_task_DD,2021.2.3,Win32,59.94844434,,,,,,,,,,,0.9627,1,,,,,,,,,,,,,,,,,,,,,,,,,0.118158617,-0.375318006,0,0,0,,,,,,,BOILER,C,z,m,./images/BOILER.png,,,,,,,,,,,,,,,,,,,,z,1,0.9627,,,,,,,,0,82,82,120,1
,,,,,,,,,,,,,,,,,5f3d3d3232c27107a850dd85,52,2022-02-12_11h23.05.909,lexical_decision_task_DD,2021.2.3,Win32,59.94844434,,,,,,,,,,,0.7617,1,,,,,,,,,,,,,,,,,,,,,,,,,0.118158617,-0.375318006,0,0,0,space,,,,,,BUNNY,HB,z,m,./images/BUNNYHB.png,1.8692,,,,,,,,,,,,,,,,,,,z,1,0.7617,,,,,,,,0,83,83,97,1
,,,,,,,,,,,,,,,,,5f3d3d3232c27107a850dd85,52,2022-02-12_11h23.05.909,lexical_decision_task_DD,2021.2.3,Win32,59.94844434,,,,,,,,,,,1.421,0,,,,,,,,,,,,,,,,,,,,,,,,,0.118158617,-0.375318006,0,0,0,,,,,,,INFANT,HB,m,m,./images/INFANTHB.png,,,,,,,,,,,,,,,,,,,,z,0,1.421,,,,,,,,0,84,84,76,1
,,,,,,,,,,,,,,,,,5f3d3d3232c27107a850dd85,52,2022-02-12_11h23.05.909,lexical_decision_task_DD,2021.2.3,Win32,59.94844434,,,,,,,,,,,0.696,0,,,,,,,,,,,,,,,,,,,,,,,,,0.118158617,-0.375318006,0,0,0,,,,,,,SQUARE,C,m,m,./images/SQUARE.png,,,,,,,,,,,,,,,,,,,,z,0,0.696,,,,,,,,0,85,85,6,1
,,,,,,,,,,,,,,,,,5f3d3d3232c27107a850dd85,52,2022-02-12_11h23.05.909,lexical_decision_task_DD,2021.2.3,Win32,59.94844434,,,,,,,,,,,0.5724,1,,,,,,,,,,,,,,,,,,,,,,,,,0.118158617,-0.375318006,0,0,0,,,,,,,DANCER,C,z,m,./images/DANCER.png,,,,,,,,,,,,,,,,,,,,z,1,0.5724,,,,,,,,0,86,86,105,1
,,,,,,,,,,,,,,,,,5f3d3d3232c27107a850dd85,52,2022-02-12_11h23.05.909,lexical_decision_task_DD,2021.2.3,Win32,59.94844434,,,,,,,,,,,0.741,0,,,,,,,,,,,,,,,,,,,,,,,,,0.118158617,-0.375318006,0,0,0,,,,,,,GREASE,C,m,m,./images/GREASE.png,,,,,,,,,,,,,,,,,,,,z,0,0.741,,,,,,,,0,87,87,15,1
,,,,,,,,,,,,,,,,,5f3d3d3232c27107a850dd85,52,2022-02-12_11h23.05.909,lexical_decision_task_DD,2021.2.3,Win32,59.94844434,,,,,,,,,,,0.7293,1,,,,,,,,,,,,,,,,,,,,,,,,,0.118158617,-0.375318006,0,0,0,,,,,,,SHIELD,C,z,m,./images/SHIELD.png,,,,,,,,,,,,,,,,,,,,z,1,0.7293,,,,,,,,0,88,88,132,1
,,,,,,,,,,,,,,,,,5f3d3d3232c27107a850dd85,52,2022-02-12_11h23.05.909,lexical_decision_task_DD,2021.2.3,Win32,59.94844434,,,,,,,,,,,0.9677,0,,,,,,,,,,,,,,,,,,,,,,,,,0.118158617,-0.375318006,0,0,0,,,,,,,WRIST,HB,m,m,./images/WRISTHB.png,,,,,,,,,,,,,,,,,,,,z,0,0.9677,,,,,,,,0,89,89,25,1
,,,,,,,,,,,,,,,,,5f3d3d3232c27107a850dd85,52,2022-02-12_11h23.05.909,lexical_decision_task_DD,2021.2.3,Win32,59.94844434,,,,,,,,,,,0.9015,1,,,,,,,,,,,,,,,,,,,,,,,,,0.118158617,-0.375318006,0,0,0,,,,,,,GLOVE,HB,z,m,./images/GLOVEHB.png,,,,,,,,,,,,,,,,,,,,z,1,0.9015,,,,,,,,0,90,90,157,1
,,,,,,,,,,,,,,,,,5f3d3d3232c27107a850dd85,52,2022-02-12_11h23.05.909,lexical_decision_task_DD,2021.2.3,Win32,59.94844434,,,,,,,,,,,0.7016,0,,,,,,,,,,,,,,,,,,,,,,,,,0.118158617,-0.375318006,0,0,0,,,,,,,SUNSET,HB,m,m,./images/SUNSETHB.png,,,,,,,,,,,,,,,,,,,,z,0,0.7016,,,,,,,,0,91,91,82,1
,,,,,,,,,,,,,,,,,5f3d3d3232c27107a850dd85,52,2022-02-12_11h23.05.909,lexical_decision_task_DD,2021.2.3,Win32,59.94844434,,,,,,,,,,,0.7342,1,,,,,,,,,,,,,,,,,,,,,,,,,0.118158617,-0.375318006,0,0,0,,,,,,,CANDY,C,z,m,./images/CANDY.png,,,,,,,,,,,,,,,,,,,,z,1,0.7342,,,,,,,,0,92,92,123,1
,,,,,,,,,,,,,,,,,5f3d3d3232c27107a850dd85,52,2022-02-12_11h23.05.909,lexical_decision_task_DD,2021.2.3,Win32,59.94844434,,,,,,,,,,,0.541,0,,,,,,,,,,,,,,,,,,,,,,,,,0.118158617,-0.375318006,0,0,0,,,,,,,SPORT,C,m,m,./images/SPORT.png,,,,,,,,,,,,,,,,,,,,z,0,0.541,,,,,,,,0,93,93,48,1
,,,,,,,,,,,,,,,,,5f3d3d3232c27107a850dd85,52,2022-02-12_11h23.05.909,lexical_decision_task_DD,2021.2.3,Win32,59.94844434,,,,,,,,,,,0.6173,0,,,,,,,,,,,,,,,,,,,,,,,,,0.118158617,-0.375318006,0,0,0,,,,,,,COUCH,LB,m,m,./images/COUCHLB.png,,,,,,,,,,,,,,,,,,,,z,0,0.6173,,,,,,,,0,94,94,77,1
,,,,,,,,,,,,,,,,,5f3d3d3232c27107a850dd85,52,2022-02-12_11h23.05.909,lexical_decision_task_DD,2021.2.3,Win32,59.94844434,,,,,,,,,,,0.8176,1,,,,,,,,,,,,,,,,,,,,,,,,,-0.888549618,-0.498380686,0,0,0,,,,,,,BASKET,LB,z,m,./images/BASKETLB.png,,,,,,,,,,,,,,,,,,,,z,1,0.8176,,,,,,,,0,95,95,128,1
,,,,,,,,,,,,,,,,,5f3d3d3232c27107a850dd85,52,2022-02-12_11h23.05.909,lexical_decision_task_DD,2021.2.3,Win32,59.94844434,,,,,,,,,,,2.1686,0,,,,,,,,,,,,,,,,,,,,,,,,,-0.888549618,-0.498380686,0,0,0,,,,,,,LITTER,C,m,m,./images/LITTER.png,,,,,,,,,,,,,,,,,,,,z,0,2.1686,,,,,,,,0,96,96,78,1
,,,,,,,,,,,,,,,,,5f3d3d3232c27107a850dd85,52,2022-02-12_11h23.05.909,lexical_decision_task_DD,2021.2.3,Win32,59.94844434,,,,,,,,,,,0.818,0,,,,,,,,,,,,,,,,,,,,,,,,,-0.794170721,-0.313324025,0,0,0,,,,,,,CRUMB,LB,m,m,./images/CRUMBLB.png,,,,,,,,,,,,,,,,,,,,z,0,0.818,,,,,,,,0,97,97,29,1
,,,,,,,,,,,,,,,,,5f3d3d3232c27107a850dd85,52,2022-02-12_11h23.05.909,lexical_decision_task_DD,2021.2.3,Win32,59.94844434,,,,,,,,,,,0.9843,0,,,,,,,,,,,,,,,,,,,,,,,,,-0.794170721,-0.313324025,0,0,0,,,,,,,STATUE,C,z,m,./images/STATUE.png,,,,,,,,,,,,,,,,,,,,m,0,0.9843,,,,,,,,0,98,98,150,1
,,,,,,,,,,,,,,,,,5f3d3d3232c27107a850dd85,52,2022-02-12_11h23.05.909,lexical_decision_task_DD,2021.2.3,Win32,59.94844434,,,,,,,,,,,3.1531,0,,,,,,,,,,,,,,,,,,,,,,,,,-0.432384921,0.49722415,0,0,0,,,,,,,ATTIC,C,m,m,./images/ATTIC.png,,,,,,,,,,,,,,,,,,,,z,0,3.1531,-0.428683816,0.5,1,0,0,2.6458,,0,99,99,27,1
,,,,,,,,,,,,,,,,,5f3d3d3232c27107a850dd85,52,2022-02-12_11h23.05.909,lexical_decision_task_DD,2021.2.3,Win32,59.94844434,,,,,,,,,,,1.4617,0,,,,,,,,,,,,,,,,,,,,,,,,,-0.437011337,0.482419617,0,0,0,,,,,,,LAGOON,LB,z,m,./images/LAGOONLB.png,,,,,,,,,,,,,,,,,,,,m,0,1.4617,,,,,,,,0,100,100,131,1
,,,,,,,,,,,,,,,,,5f3d3d3232c27107a850dd85,52,2022-02-12_11h23.05.909,lexical_decision_task_DD,2021.2.3,Win32,59.94844434,,,,,,,,,,,0.8346,0,,,,,,,,,,,,,,,,,,,,,,,,,-0.437011337,0.482419617,0,0,0,,,,,,,URINE,HB,m,m,./images/URINEHB.png,,,,,,,,,,,,,,,,,,,,z,0,0.8346,,,,,,,,0,101,101,70,1
,,,,,,,,,,,,,,,,,5f3d3d3232c27107a850dd85,52,2022-02-12_11h23.05.909,lexical_decision_task_DD,2021.2.3,Win32,59.94844434,,,,,,,,,,,0.6009,1,,,,,,,,,,,,,,,,,,,,,,,,,-0.437011337,0.482419617,0,0,0,,,,,,,COLLAR,C,z,m,./images/COLLAR.png,,,,,,,,,,,,,,,,,,,,z,1,0.6009,,,,,,,,0,102,102,99,1
,,,,,,,,,,,,,,,,,5f3d3d3232c27107a850dd85,52,2022-02-12_11h23.05.909,lexical_decision_task_DD,2021.2.3,Win32,59.94844434,,,,,,,,,,,0.7513,1,,,,,,,,,,,,,,,,,,,,,,,,,-0.437011337,0.482419617,0,0,0,,,,,,,CURRY,C,z,m,./images/CURRY.png,,,,,,,,,,,,,,,,,,,,z,1,0.7513,,,,,,,,0,103,103,144,1
,,,,,,,,,,,,,,,,,5f3d3d3232c27107a850dd85,52,2022-02-12_11h23.05.909,lexical_decision_task_DD,2021.2.3,Win32,59.94844434,,,,,,,,,,,0.6506,1,,,,,,,,,,,,,,,,,,,,,,,,,-0.437011337,0.482419617,0,0,0,,,,,,,DESERT,HB,z,m,./images/DESERTHB.png,,,,,,,,,,,,,,,,,,,,z,1,0.6506,,,,,,,,0,104,104,136,1
,,,,,,,,,,,,,,,,,5f3d3d3232c27107a850dd85,52,2022-02-12_11h23.05.909,lexical_decision_task_DD,2021.2.3,Win32,59.94844434,,,,,,,,,,,1.1008,1,,,,,,,,,,,,,,,,,,,,,,,,,-0.437011337,0.482419617,0,0,0,,,,,,,SHORE,C,m,m,./images/SHORE.png,,,,,,,,,,,,,,,,,,,,m,1,1.1008,,,,,,,,0,105,105,12,1
,,,,,,,,,,,,,,,,,5f3d3d3232c27107a850dd85,52,2022-02-12_11h23.05.909,lexical_decision_task_DD,2021.2.3,Win32,59.94844434,,,,,,,,,,,1.1178,1,,,,,,,,,,,,,,,,,,,,,,,,,-0.437011337,0.482419617,0,0,0,,,,,,,BUBBLE,LB,z,m,./images/BUBBLELB.png,,,,,,,,,,,,,,,,,,,,z,1,1.1178,,,,,,,,0,106,106,155,1
,,,,,,,,,,,,,,,,,5f3d3d3232c27107a850dd85,52,2022-02-12_11h23.05.909,lexical_decision_task_DD,2021.2.3,Win32,59.94844434,,,,,,,,,,,0.8511,1,,,,,,,,,,,,,,,,,,,,,,,,,-0.437011337,0.482419617,0,0,0,,,,,,,MAGGOT,C,m,m,./images/MAGGOT.png,,,,,,,,,,,,,,,,,,,,m,1,0.8511,,,,,,,,0,107,107,33,1
,,,,,,,,,,,,,,,,,5f3d3d3232c27107a850dd85,52,2022-02-12_11h23.05.909,lexical_decision_task_DD,2021.2.3,Win32,59.94844434,,,,,,,,,,,1.2846,1,,,,,,,,,,,,,,,,,,,,,,,,,-0.437011337,0.482419617,0,0,0,,,,,,,PEARL,HB,m,m,./images/PEARLHB.png,,,,,,,,,,,,,,,,,,,,m,1,1.2846,,,,,,,,0,108,108,46,1
,,,,,,,,,,,,,,,,,5f3d3d3232c27107a850dd85,52,2022-02-12_11h23.05.909,lexical_decision_task_DD,2021.2.3,Win32,59.94844434,,,,,,,,,,,0.9113,0,,,,,,,,,,,,,,,,,,,,,,,,,-0.437011337,0.482419617,0,0,0,,,,,,,CRUST,HB,m,m,./images/CRUSTHB.png,,,,,,,,,,,,,,,,,,,,z,0,0.9113,,,,,,,,0,109,109,79,1
,,,,,,,,,,,,,,,,,5f3d3d3232c27107a850dd85,52,2022-02-12_11h23.05.909,lexical_decision_task_DD,2021.2.3,Win32,59.94844434,,,,,,,,,,,0.6232,1,,,,,,,,,,,,,,,,,,,,,,,,,-0.437011337,0.482419617,0,0,0,,,,,,,SPINE,LB,z,m,./images/SPINELB.png,,,,,,,,,,,,,,,,,,,,z,1,0.6232,,,,,,,,0,110,110,149,1
,,,,,,,,,,,,,,,,,5f3d3d3232c27107a850dd85,52,2022-02-12_11h23.05.909,lexical_decision_task_DD,2021.2.3,Win32,59.94844434,,,,,,,,,,,0.601,1,,,,,,,,,,,,,,,,,,,,,,,,,-0.437011337,0.482419617,0,0,0,,,,,,,GRAPE,HB,z,m,./images/GRAPEHB.png,,,,,,,,,,,,,,,,,,,,z,1,0.601,,,,,,,,0,111,111,100,1
,,,,,,,,,,,,,,,,,5f3d3d3232c27107a850dd85,52,2022-02-12_11h23.05.909,lexical_decision_task_DD,2021.2.3,Win32,59.94844434,,,,,,,,,,,0.6839,0,,,,,,,,,,,,,,,,,,,,,,,,,-0.437011337,0.482419617,0,0,0,,,,,,,QUILL,HB,m,m,./images/QUILLHB.png,,,,,,,,,,,,,,,,,,,,z,0,0.6839,,,,,,,,0,112,112,31,1
,,,,,,,,,,,,,,,,,5f3d3d3232c27107a850dd85,52,2022-02-12_11h23.05.909,lexical_decision_task_DD,2021.2.3,Win32,59.94844434,,,,,,,,,,,0.784,1,,,,,,,,,,,,,,,,,,,,,,,,,-0.437011337,0.482419617,0,0,0,,,,,,,WALRUS,LB,m,m,./images/WALRUSLB.png,,,,,,,,,,,,,,,,,,,,m,1,0.784,,,,,,,,0,113,113,23,1
,,,,,,,,,,,,,,,,,5f3d3d3232c27107a850dd85,52,2022-02-12_11h23.05.909,lexical_decision_task_DD,2021.2.3,Win32,59.94844434,,,,,,,,,,,1.0102,1,,,,,,,,,,,,,,,,,,,,,,,,,-0.437011337,0.482419617,0,0,0,,,,,,,HOCKEY,LB,z,m,./images/HOCKEYLB.png,,,,,,,,,,,,,,,,,,,,z,1,1.0102,,,,,,,,0,114,114,116,1
,,,,,,,,,,,,,,,,,5f3d3d3232c27107a850dd85,52,2022-02-12_11h23.05.909,lexical_decision_task_DD,2021.2.3,Win32,59.94844434,,,,,,,,,,,0.9184,1,,,,,,,,,,,,,,,,,,,,,,,,,-0.437011337,0.482419617,0,0,0,,,,,,,POSTER,LB,z,m,./images/POSTERLB.png,,,,,,,,,,,,,,,,,,,,z,1,0.9184,,,,,,,,0,115,115,137,1
,,,,,,,,,,,,,,,,,5f3d3d3232c27107a850dd85,52,2022-02-12_11h23.05.909,lexical_decision_task_DD,2021.2.3,Win32,59.94844434,,,,,,,,,,,0.6341,1,,,,,,,,,,,,,,,,,,,,,,,,,-0.437011337,0.482419617,0,0,0,,,,,,,CANOE,HB,z,m,./images/CANOEHB.png,,,,,,,,,,,,,,,,,,,,z,1,0.6341,,,,,,,,0,116,116,142,1
,,,,,,,,,,,,,,,,,5f3d3d3232c27107a850dd85,52,2022-02-12_11h23.05.909,lexical_decision_task_DD,2021.2.3,Win32,59.94844434,,,,,,,,,,,0.6675,0,,,,,,,,,,,,,,,,,,,,,,,,,-0.437011337,0.482419617,0,0,0,,,,,,,BONNET,LB,m,m,./images/BONNETLB.png,,,,,,,,,,,,,,,,,,,,z,0,0.6675,,,,,,,,0,117,117,11,1
,,,,,,,,,,,,,,,,,5f3d3d3232c27107a850dd85,52,2022-02-12_11h23.05.909,lexical_decision_task_DD,2021.2.3,Win32,59.94844434,,,,,,,,,,,1.5344,0,,,,,,,,,,,,,,,,,,,,,,,,,-0.437011337,0.482419617,0,0,0,,,,,,,FARMER,LB,m,m,./images/FARMERLB.png,,,,,,,,,,,,,,,,,,,,z,0,1.5344,,,,,,,,0,118,118,65,1
,,,,,,,,,,,,,,,,,5f3d3d3232c27107a850dd85,52,2022-02-12_11h23.05.909,lexical_decision_task_DD,2021.2.3,Win32,59.94844434,,,,,,,,,,,0.8196,0,,,,,,,,,,,,,,,,,,,,,,,,,-0.437011337,0.482419617,0,0,0,,,,,,,MOOSE,C,m,m,./images/MOOSE.png,,,,,,,,,,,,,,,,,,,,z,0,0.8196,,,,,,,,0,119,119,57,1
,,,,,,,,,,,,,,,,,5f3d3d3232c27107a850dd85,52,2022-02-12_11h23.05.909,lexical_decision_task_DD,2021.2.3,Win32,59.94844434,,,,,,,,,,,0.7341,0,,,,,,,,,,,,,,,,,,,,,,,,,-0.437011337,0.482419617,0,0,0,,,,,,,DONKEY,HB,z,m,./images/DONKEYHB.png,,,,,,,,,,,,,,,,,,,,m,0,0.7341,,,,,,,,0,120,120,103,1
,,,,,,,,,,,,,,,,,5f3d3d3232c27107a850dd85,52,2022-02-12_11h23.05.909,lexical_decision_task_DD,2021.2.3,Win32,59.94844434,,,,,,,,,,,0.585,1,,,,,,,,,,,,,,,,,,,,,,,,,-0.437011337,0.482419617,0,0,0,,,,,,,POKER,HB,z,m,./images/POKERHB.png,,,,,,,,,,,,,,,,,,,,z,1,0.585,,,,,,,,0,121,121,151,1
,,,,,,,,,,,,,,,,,5f3d3d3232c27107a850dd85,52,2022-02-12_11h23.05.909,lexical_decision_task_DD,2021.2.3,Win32,59.94844434,,,,,,,,,,,0.6343,1,,,,,,,,,,,,,,,,,,,,,,,,,-0.437011337,0.482419617,0,0,0,,,,,,,HEATER,LB,z,m,./images/HEATERLB.png,,,,,,,,,,,,,,,,,,,,z,1,0.6343,,,,,,,,0,122,122,140,1
,,,,,,,,,,,,,,,,,5f3d3d3232c27107a850dd85,52,2022-02-12_11h23.05.909,lexical_decision_task_DD,2021.2.3,Win32,59.94844434,,,,,,,,,,,1.8688,0,,,,,,,,,,,,,,,,,,,,,,,,,-0.437011337,0.482419617,0,0,0,,,,,,,PICKLE,LB,m,m,./images/PICKLELB.png,,,,,,,,,,,,,,,,,,,,z,0,1.8688,,,,,,,,0,123,123,14,1
,,,,,,,,,,,,,,,,,5f3d3d3232c27107a850dd85,52,2022-02-12_11h23.05.909,lexical_decision_task_DD,2021.2.3,Win32,59.94844434,,,,,,,,,,,0.5181,1,,,,,,,,,,,,,,,,,,,,,,,,,-0.44441366,0.451885268,0,0,0,,,,,,,BRUSH,LB,z,m,./images/BRUSHLB.png,,,,,,,,,,,,,,,,,,,,z,1,0.5181,,,,,,,,0,124,124,143,1
,,,,,,,,,,,,,,,,,5f3d3d3232c27107a850dd85,52,2022-02-12_11h23.05.909,lexical_decision_task_DD,2021.2.3,Win32,59.94844434,,,,,,,,,,,0.5458,1,,,,,,,,,,,,,,,,,,,,,,,,,-0.448114765,0.434304885,0,0,0,space,,,,,,PLANET,LB,z,m,./images/PLANETLB.png,3.2522,,,,,,,,,,,,,,,,,,,z,1,0.5458,,,,,,,,0,125,125,164,1
,,,,,,,,,,,,,,,,,5f3d3d3232c27107a850dd85,52,2022-02-12_11h23.05.909,lexical_decision_task_DD,2021.2.3,Win32,59.94844434,,,,,,,,,,,1.571,1,,,,,,,,,,,,,,,,,,,,,,,,,-0.448114765,0.434304885,0,0,0,,,,,,,SMOKER,LB,m,m,./images/SMOKERLB.png,,,,,,,,,,,,,,,,,,,,m,1,1.571,,,,,,,,0,126,126,26,1
,,,,,,,,,,,,,,,,,5f3d3d3232c27107a850dd85,52,2022-02-12_11h23.05.909,lexical_decision_task_DD,2021.2.3,Win32,59.94844434,,,,,,,,,,,0.688,1,,,,,,,,,,,,,,,,,,,,,,,,,-0.448114765,0.434304885,0,0,0,,,,,,,CLOTH,LB,z,m,./images/CLOTHLB.png,,,,,,,,,,,,,,,,,,,,z,1,0.688,,,,,,,,0,127,127,107,1
,,,,,,,,,,,,,,,,,5f3d3d3232c27107a850dd85,52,2022-02-12_11h23.05.909,lexical_decision_task_DD,2021.2.3,Win32,59.94844434,,,,,,,,,,,1.0137,0,,,,,,,,,,,,,,,,,,,,,,,,,-0.449040077,0.423201486,0,0,0,,,,,,,JELLY,HB,m,m,./images/JELLYHB.png,,,,,,,,,,,,,,,,,,,,z,0,1.0137,,,,,,,,0,128,128,64,1
,,,,,,,,,,,,,,,,,5f3d3d3232c27107a850dd85,52,2022-02-12_11h23.05.909,lexical_decision_task_DD,2021.2.3,Win32,59.94844434,,,,,,,,,,,0.6133,1,,,,,,,,,,,,,,,,,,,,,,,,,-0.449040077,0.419500352,0,0,0,,,,,,,CLOWN,HB,z,m,./images/CLOWNHB.png,,,,,,,,,,,,,,,,,,,,z,1,0.6133,,,,,,,,0,129,129,106,1
,,,,,,,,,,,,,,,,,5f3d3d3232c27107a850dd85,52,2022-02-12_11h23.05.909,lexical_decision_task_DD,2021.2.3,Win32,59.94844434,,,,,,,,,,,0.5688,0,,,,,,,,,,,,,,,,,,,,,,,,,-0.449040077,0.419500352,0,0,0,,,,,,,BURIAL,LB,m,m,./images/BURIALLB.png,,,,,,,,,,,,,,,,,,,,z,0,0.5688,,,,,,,,0,130,130,59,1
,,,,,,,,,,,,,,,,,5f3d3d3232c27107a850dd85,52,2022-02-12_11h23.05.909,lexical_decision_task_DD,2021.2.3,Win32,59.94844434,,,,,,,,,,,0.7227,1,,,,,,,,,,,,,,,,,,,,,,,,,-0.449040077,0.419500352,0,0,0,,,,,,,WHEEL,LB,z,m,./images/WHEELLB.png,,,,,,,,,,,,,,,,,,,,z,1,0.7227,,,,,,,,0,131,131,161,1
,,,,,,,,,,,,,,,,,5f3d3d3232c27107a850dd85,52,2022-02-12_11h23.05.909,lexical_decision_task_DD,2021.2.3,Win32,59.94844434,,,,,,,,,,,1.7077,1,,,,,,,,,,,,,,,,,,,,,,,,,-0.449040077,0.419500352,0,0,0,,,,,,,HAMMER,C,z,m,./images/HAMMER.png,,,,,,,,,,,,,,,,,,,,z,1,1.7077,,,,,,,,0,132,132,159,1
,,,,,,,,,,,,,,,,,5f3d3d3232c27107a850dd85,52,2022-02-12_11h23.05.909,lexical_decision_task_DD,2021.2.3,Win32,59.94844434,,,,,,,,,,,0.6504,1,,,,,,,,,,,,,,,,,,,,,,,,,-0.449040077,0.419500352,0,0,0,,,,,,,MEDAL,LB,z,m,./images/MEDALLB.png,,,,,,,,,,,,,,,,,,,,z,1,0.6504,,,,,,,,0,133,133,95,1
,,,,,,,,,,,,,,,,,5f3d3d3232c27107a850dd85,52,2022-02-12_11h23.05.909,lexical_decision_task_DD,2021.2.3,Win32,59.94844434,,,,,,,,,,,0.7348,1,,,,,,,,,,,,,,,,,,,,,,,,,-0.449040077,0.419500352,0,0,0,,,,,,,BROOM,C,z,m,./images/BROOM.png,,,,,,,,,,,,,,,,,,,,z,1,0.7348,,,,,,,,0,134,134,162,1
