key_resp.keys,key_resp.rt,instr_done_touch.x,instr_done_touch.y,instr_done_touch.leftButton,instr_done_touch.midButton,instr_done_touch.rightButton,instruction_pages.thisRepN,instruction_pages.thisTrialN,instruction_pages.thisN,instruction_pages.thisIndex,instruction_pages.ran,pageN,phase,instruct_text,has_image,instruct_image,participant,age,date,expName,psychopyVersion,OS,frameRate,response.keys,response.corr,response.rt,touch_resp.x,touch_resp.y,touch_resp.leftButton,touch_resp.midButton,touch_resp.rightButton,touch_resp.time,touch_resp.clicked_name,rt,corr,practrials.thisRepN,practrials.thisTrialN,practrials.thisN,practrials.thisIndex,practrials.ran,TrialID,Target,corrAns,end_of_practice_trials_pages.thisRepN,end_of_practice_trials_pages.thisTrialN,end_of_practice_trials_pages.thisN,end_of_practice_trials_pages.thisIndex,end_of_practice_trials_pages.ran,key_resp_2.keys,key_resp_2.corr,key_resp_2.rt,targ_click.x,targ_click.y,targ_click.leftButton,targ_click.midButton,targ_click.rightButton,targ_click.time,targ_click.clicked_name,break_done_touch.x,break_done_touch.y,break_done_touch.leftButton,break_done_touch.midButton,break_done_touch.rightButton,break_done_keyboard.keys,maintrials.thisRepN,maintrials.thisTrialN,maintrials.thisN,maintrials.thisIndex,maintrials.ran,string,blur,study,lex,stim_path,break_done_keyboard.rt,mouse_2.x,mouse_2.y,mouse_2.leftButton,mouse_2.midButton,mouse_2.rightButton,mouse_2.clicked_name,slider.response,slider.rt,trials.thisRepN,trials.thisTrialN,trials.thisN,trials.thisIndex,trials.ran,instr_done_touch.clicked_name,test_instructions.thisRepN,test_instructions.thisTrialN,test_instructions.thisN,test_instructions.thisIndex,test_instructions.ran,key_resp_3.keys,key_resp_3.corr,key_resp_3.rt,test_click.x,test_click.y,test_click.leftButton,test_click.midButton,test_click.rightButton,test_click.time,test_click.clicked_name,test_phase.thisRepN,test_phase.thisTrialN,test_phase.thisN,test_phase.thisIndex,test_phase.ran
space,33.7979,0.321661256,-0.29869708,0,0,0,0,0,0,0,1,1,instructions,"INSTRUCTIONS
At the start of each trial, look at the plus sign  (+) in the center of the screen.  This tells you that a trial is about to begin and where to look. Second, the plus sign will disappear and a string of letters will appear. Your task is to determine if the string of letters is a word or not. If the item is a word press the M key (on keyboard)  or touch the word button (phone/tablet).  If the item is not a word,  press the  Z key (on keyboard)  or touch the nonword button (on phone/tablet). 
Press the space bar or touch  continue.",0,,5fb3224238ecb8a40fdd1685,44,2022-02-12_16h45.01.720,lexical_decision_task_DD,2021.2.3,Win32,60.09976561,,,,,,,,,,,,,,,,,,,,,,,,,,,,,,,,,,,,,,,,,,,,,,,,,,,,,,,,,,,,,,,,,,,,,,,,,,,,,,,,,,,,,,
space,5.0083,0.321661256,-0.29869708,0,0,0,0,1,1,1,1,2,instructions,"If your device has a keyboard, press the 'Z' key for nonwords and the 'M' key for words.





Press the space bar or touch the button below to continue.",0,keyboard-example.gif,5fb3224238ecb8a40fdd1685,44,2022-02-12_16h45.01.720,lexical_decision_task_DD,2021.2.3,Win32,60.09976561,,,,,,,,,,,,,,,,,,,,,,,,,,,,,,,,,,,,,,,,,,,,,,,,,,,,,,,,,,,,,,,,,,,,,,,,,,,,,,,,,,,,,,
space,8.346,0.321661256,-0.29869708,0,0,0,0,2,2,2,1,3,instructions,"If you are using a touchscreen only device, use the buttons on the screen. Do not use the mouse.





Press the space bar or touch the button below to continue.",0,touchscreen-example.gif,5fb3224238ecb8a40fdd1685,44,2022-02-12_16h45.01.720,lexical_decision_task_DD,2021.2.3,Win32,60.09976561,,,,,,,,,,,,,,,,,,,,,,,,,,,,,,,,,,,,,,,,,,,,,,,,,,,,,,,,,,,,,,,,,,,,,,,,,,,,,,,,,,,,,,
space,15.8226,0.321661256,-0.29869708,0,0,0,0,3,3,3,1,4,instructions,"It is very important that you respond as quickly and accurately as possible, as each letter string will only be on the screen for two seconds. If you do not respond within this time, the message 'Too slow!' will be displayed and the experiment will progress to the next letter string. The first 20 trials will be practice trials and you will receive feedback on your answers. 

Press the space bar or touch the button below to start the practice trials.",0,,5fb3224238ecb8a40fdd1685,44,2022-02-12_16h45.01.720,lexical_decision_task_DD,2021.2.3,Win32,60.09976561,,,,,,,,,,,,,,,,,,,,,,,,,,,,,,,,,,,,,,,,,,,,,,,,,,,,,,,,,,,,,,,,,,,,,,,,,,,,,,,,,,,,,,
,,,,,,,,,,,,,,,,,5fb3224238ecb8a40fdd1685,44,2022-02-12_16h45.01.720,lexical_decision_task_DD,2021.2.3,Win32,60.09976561,z,1,1.7387,,,,,,,,1.7387,1,0,0,0,11,1,1001,RASHET,z,,,,,,,,,,,,,,,,,,,,,,,,,,,,,,,,,,,,,,,,,,,,,,,,,,,,,,,,,,,,,,,,,,
,,,,,,,,,,,,,,,,,5fb3224238ecb8a40fdd1685,44,2022-02-12_16h45.01.720,lexical_decision_task_DD,2021.2.3,Win32,60.09976561,z,1,0.7888,,,,,,,,0.7888,1,0,1,1,8,1,1001,ASLERT,z,,,,,,,,,,,,,,,,,,,,,,,,,,,,,,,,,,,,,,,,,,,,,,,,,,,,,,,,,,,,,,,,,,
,,,,,,,,,,,,,,,,,5fb3224238ecb8a40fdd1685,44,2022-02-12_16h45.01.720,lexical_decision_task_DD,2021.2.3,Win32,60.09976561,z,1,1.0361,,,,,,,,1.0361,1,0,2,2,15,1,1001,WHAISE,z,,,,,,,,,,,,,,,,,,,,,,,,,,,,,,,,,,,,,,,,,,,,,,,,,,,,,,,,,,,,,,,,,,
,,,,,,,,,,,,,,,,,5fb3224238ecb8a40fdd1685,44,2022-02-12_16h45.01.720,lexical_decision_task_DD,2021.2.3,Win32,60.09976561,z,1,0.7846,,,,,,,,0.7846,1,0,3,3,9,1,1001,FARINY,z,,,,,,,,,,,,,,,,,,,,,,,,,,,,,,,,,,,,,,,,,,,,,,,,,,,,,,,,,,,,,,,,,,
,,,,,,,,,,,,,,,,,5fb3224238ecb8a40fdd1685,44,2022-02-12_16h45.01.720,lexical_decision_task_DD,2021.2.3,Win32,60.09976561,m,1,0.6178,,,,,,,,0.6178,1,0,4,4,6,1,1001,ZOMBIE,m,,,,,,,,,,,,,,,,,,,,,,,,,,,,,,,,,,,,,,,,,,,,,,,,,,,,,,,,,,,,,,,,,,
,,,,,,,,,,,,,,,,,5fb3224238ecb8a40fdd1685,44,2022-02-12_16h45.01.720,lexical_decision_task_DD,2021.2.3,Win32,60.09976561,z,0,0.568,,,,,,,,0.568,0,0,5,5,5,1,1001,OBTAIN,m,,,,,,,,,,,,,,,,,,,,,,,,,,,,,,,,,,,,,,,,,,,,,,,,,,,,,,,,,,,,,,,,,,
,,,,,,,,,,,,,,,,,5fb3224238ecb8a40fdd1685,44,2022-02-12_16h45.01.720,lexical_decision_task_DD,2021.2.3,Win32,60.09976561,z,1,1.1217,,,,,,,,1.1217,1,0,6,6,10,1,1001,INLADE,z,,,,,,,,,,,,,,,,,,,,,,,,,,,,,,,,,,,,,,,,,,,,,,,,,,,,,,,,,,,,,,,,,,
,,,,,,,,,,,,,,,,,5fb3224238ecb8a40fdd1685,44,2022-02-12_16h45.01.720,lexical_decision_task_DD,2021.2.3,Win32,60.09976561,z,1,1.0807,,,,,,,,1.0807,1,0,7,7,13,1,1001,ROUPET,z,,,,,,,,,,,,,,,,,,,,,,,,,,,,,,,,,,,,,,,,,,,,,,,,,,,,,,,,,,,,,,,,,,
,,,,,,,,,,,,,,,,,5fb3224238ecb8a40fdd1685,44,2022-02-12_16h45.01.720,lexical_decision_task_DD,2021.2.3,Win32,60.09976561,m,1,0.8556,,,,,,,,0.8556,1,0,8,8,2,1,1001,ALMOND,m,,,,,,,,,,,,,,,,,,,,,,,,,,,,,,,,,,,,,,,,,,,,,,,,,,,,,,,,,,,,,,,,,,
,,,,,,,,,,,,,,,,,5fb3224238ecb8a40fdd1685,44,2022-02-12_16h45.01.720,lexical_decision_task_DD,2021.2.3,Win32,60.09976561,m,1,0.8122,,,,,,,,0.8122,1,0,9,9,7,1,1001,VOLUME,m,,,,,,,,,,,,,,,,,,,,,,,,,,,,,,,,,,,,,,,,,,,,,,,,,,,,,,,,,,,,,,,,,,
,,,,,,,,,,,,,,,,,5fb3224238ecb8a40fdd1685,44,2022-02-12_16h45.01.720,lexical_decision_task_DD,2021.2.3,Win32,60.09976561,m,1,0.5688,,,,,,,,0.5688,1,0,10,10,4,1,1001,SQUEAK,m,,,,,,,,,,,,,,,,,,,,,,,,,,,,,,,,,,,,,,,,,,,,,,,,,,,,,,,,,,,,,,,,,,
,,,,,,,,,,,,,,,,,5fb3224238ecb8a40fdd1685,44,2022-02-12_16h45.01.720,lexical_decision_task_DD,2021.2.3,Win32,60.09976561,m,1,0.6644,,,,,,,,0.6644,1,0,11,11,0,1,1001,UTOPIA,m,,,,,,,,,,,,,,,,,,,,,,,,,,,,,,,,,,,,,,,,,,,,,,,,,,,,,,,,,,,,,,,,,,
,,,,,,,,,,,,,,,,,5fb3224238ecb8a40fdd1685,44,2022-02-12_16h45.01.720,lexical_decision_task_DD,2021.2.3,Win32,60.09976561,m,1,0.5637,,,,,,,,0.5637,1,0,12,12,1,1,1001,ADJUST,m,,,,,,,,,,,,,,,,,,,,,,,,,,,,,,,,,,,,,,,,,,,,,,,,,,,,,,,,,,,,,,,,,,
,,,,,,,,,,,,,,,,,5fb3224238ecb8a40fdd1685,44,2022-02-12_16h45.01.720,lexical_decision_task_DD,2021.2.3,Win32,60.09976561,z,1,1.1053,,,,,,,,1.1053,1,0,13,13,12,1,1001,SPRINY,z,,,,,,,,,,,,,,,,,,,,,,,,,,,,,,,,,,,,,,,,,,,,,,,,,,,,,,,,,,,,,,,,,,
,,,,,,,,,,,,,,,,,5fb3224238ecb8a40fdd1685,44,2022-02-12_16h45.01.720,lexical_decision_task_DD,2021.2.3,Win32,60.09976561,m,1,0.6806,,,,,,,,0.6806,1,0,14,14,3,1,1001,MATRIX,m,,,,,,,,,,,,,,,,,,,,,,,,,,,,,,,,,,,,,,,,,,,,,,,,,,,,,,,,,,,,,,,,,,
,,,,,,,,,,,,,,,,,5fb3224238ecb8a40fdd1685,44,2022-02-12_16h45.01.720,lexical_decision_task_DD,2021.2.3,Win32,60.09976561,z,1,0.9877,,,,,,,,0.9877,1,0,15,15,14,1,1001,THRALE,z,,,,,,,,,,,,,,,,,,,,,,,,,,,,,,,,,,,,,,,,,,,,,,,,,,,,,,,,,,,,,,,,,,
space,12.6538,0.321661256,-0.29869708,0,0,0,,,,,,1,end_of_practice,"You have completed the practice trials. During the experimental trials, you will not receive feedback. 
Before you begin, please ensure that you are in a comfortable and quiet location and will not be disturbed for about 15 minutes, as we cannot use your data if you do not complete all the trials. 
 When you are ready to start the experimental trials, please press space or touch the button below.",,,5fb3224238ecb8a40fdd1685,44,2022-02-12_16h45.01.720,lexical_decision_task_DD,2021.2.3,Win32,60.09976561,,,,,,,,,,,,,,,,,,,,,0,0,0,0,1,,,,,,,,,,,,,,,,,,,,,,,,,,,,,,,,,,,,,,,,,,,,,,,,,,,,,,,,,,,,,
,,,,,,,,,,,,,,,,,5fb3224238ecb8a40fdd1685,44,2022-02-12_16h45.01.720,lexical_decision_task_DD,2021.2.3,Win32,60.09976561,,,,,,,,,,,1.359,1,,,,,,,,,,,,,,z,1,1.359,,,,,,,,0.321661256,-0.29869708,0,0,0,,0,0,0,153,1,CLUPS,C,old,z,./images/CLUPS.png,,,,,,,,,,,,,,,,,,,,,,,,,,,,,,,,,,,
,,,,,,,,,,,,,,,,,5fb3224238ecb8a40fdd1685,44,2022-02-12_16h45.01.720,lexical_decision_task_DD,2021.2.3,Win32,60.09976561,,,,,,,,,,,1.0133,1,,,,,,,,,,,,,,m,1,1.0133,,,,,,,,0.321661256,-0.29869708,0,0,0,,0,1,1,14,1,PICKLE,LB,old,m,./images/PICKLELB.png,,,,,,,,,,,,,,,,,,,,,,,,,,,,,,,,,,,
,,,,,,,,,,,,,,,,,5fb3224238ecb8a40fdd1685,44,2022-02-12_16h45.01.720,lexical_decision_task_DD,2021.2.3,Win32,60.09976561,,,,,,,,,,,0.7988,1,,,,,,,,,,,,,,m,1,0.7988,,,,,,,,0.321661256,-0.29869708,0,0,0,,0,2,2,73,1,SNACK,HB,old,m,./images/SNACKHB.png,,,,,,,,,,,,,,,,,,,,,,,,,,,,,,,,,,,
,,,,,,,,,,,,,,,,,5fb3224238ecb8a40fdd1685,44,2022-02-12_16h45.01.720,lexical_decision_task_DD,2021.2.3,Win32,60.09976561,,,,,,,,,,,0.9524,1,,,,,,,,,,,,,,z,1,0.9524,,,,,,,,0.321661256,-0.29869708,0,0,0,,0,3,3,109,1,BURGE,HB,old,z,./images/BURGEHB.png,,,,,,,,,,,,,,,,,,,,,,,,,,,,,,,,,,,
,,,,,,,,,,,,,,,,,5fb3224238ecb8a40fdd1685,44,2022-02-12_16h45.01.720,lexical_decision_task_DD,2021.2.3,Win32,60.09976561,,,,,,,,,,,0.7706,1,,,,,,,,,,,,,,z,1,0.7706,,,,,,,,0.321661256,-0.29869708,0,0,0,,0,4,4,152,1,FRAIN,LB,old,z,./images/FRAINLB.png,,,,,,,,,,,,,,,,,,,,,,,,,,,,,,,,,,,
,,,,,,,,,,,,,,,,,5fb3224238ecb8a40fdd1685,44,2022-02-12_16h45.01.720,lexical_decision_task_DD,2021.2.3,Win32,60.09976561,,,,,,,,,,,0.8628,1,,,,,,,,,,,,,,z,1,0.8628,,,,,,,,0.321661256,-0.29869708,0,0,0,,0,5,5,90,1,NEAST,C,old,z,./images/NEAST.png,,,,,,,,,,,,,,,,,,,,,,,,,,,,,,,,,,,
,,,,,,,,,,,,,,,,,5fb3224238ecb8a40fdd1685,44,2022-02-12_16h45.01.720,lexical_decision_task_DD,2021.2.3,Win32,60.09976561,,,,,,,,,,,0.6645,1,,,,,,,,,,,,,,z,1,0.6645,,,,,,,,0.321661256,-0.29869708,0,0,0,,0,6,6,117,1,STEEG,C,old,z,./images/STEEG.png,,,,,,,,,,,,,,,,,,,,,,,,,,,,,,,,,,,
,,,,,,,,,,,,,,,,,5fb3224238ecb8a40fdd1685,44,2022-02-12_16h45.01.720,lexical_decision_task_DD,2021.2.3,Win32,60.09976561,,,,,,,,,,,0.8953,1,,,,,,,,,,,,,,m,1,0.8953,,,,,,,,0.321661256,-0.29869708,0,0,0,,0,7,7,31,1,QUILL,HB,old,m,./images/QUILLHB.png,,,,,,,,,,,,,,,,,,,,,,,,,,,,,,,,,,,
,,,,,,,,,,,,,,,,,5fb3224238ecb8a40fdd1685,44,2022-02-12_16h45.01.720,lexical_decision_task_DD,2021.2.3,Win32,60.09976561,,,,,,,,,,,0.6068,1,,,,,,,,,,,,,,m,1,0.6068,,,,,,,,0.321661256,-0.29869708,0,0,0,,0,8,8,5,1,PASTA,LB,old,m,./images/PASTALB.png,,,,,,,,,,,,,,,,,,,,,,,,,,,,,,,,,,,
,,,,,,,,,,,,,,,,,5fb3224238ecb8a40fdd1685,44,2022-02-12_16h45.01.720,lexical_decision_task_DD,2021.2.3,Win32,60.09976561,,,,,,,,,,,0.8126,0,,,,,,,,,,,,,,m,0,0.8126,,,,,,,,0.321661256,-0.29869708,0,0,0,,0,9,9,166,1,SHORY,HB,old,z,./images/SHORYHB.png,,,,,,,,,,,,,,,,,,,,,,,,,,,,,,,,,,,
,,,,,,,,,,,,,,,,,5fb3224238ecb8a40fdd1685,44,2022-02-12_16h45.01.720,lexical_decision_task_DD,2021.2.3,Win32,60.09976561,,,,,,,,,,,0.8448,1,,,,,,,,,,,,,,m,1,0.8448,,,,,,,,0.321661256,-0.29869708,0,0,0,,0,10,10,44,1,LIZARD,LB,old,m,./images/LIZARDLB.png,,,,,,,,,,,,,,,,,,,,,,,,,,,,,,,,,,,
,,,,,,,,,,,,,,,,,5fb3224238ecb8a40fdd1685,44,2022-02-12_16h45.01.720,lexical_decision_task_DD,2021.2.3,Win32,60.09976561,,,,,,,,,,,0.8557,1,,,,,,,,,,,,,,z,1,0.8557,,,,,,,,0.321661256,-0.29869708,0,0,0,,0,11,11,133,1,POWDY,HB,old,z,./images/POWDYHB.png,,,,,,,,,,,,,,,,,,,,,,,,,,,,,,,,,,,
,,,,,,,,,,,,,,,,,5fb3224238ecb8a40fdd1685,44,2022-02-12_16h45.01.720,lexical_decision_task_DD,2021.2.3,Win32,60.09976561,,,,,,,,,,,0.7646,1,,,,,,,,,,,,,,m,1,0.7646,,,,,,,,0.321661256,-0.29869708,0,0,0,,0,12,12,59,1,BURIAL,LB,old,m,./images/BURIALLB.png,,,,,,,,,,,,,,,,,,,,,,,,,,,,,,,,,,,
,,,,,,,,,,,,,,,,,5fb3224238ecb8a40fdd1685,44,2022-02-12_16h45.01.720,lexical_decision_task_DD,2021.2.3,Win32,60.09976561,,,,,,,,,,,0.7965,1,,,,,,,,,,,,,,m,1,0.7965,,,,,,,,0.321661256,-0.29869708,0,0,0,,0,13,13,26,1,SMOKER,LB,old,m,./images/SMOKERLB.png,,,,,,,,,,,,,,,,,,,,,,,,,,,,,,,,,,,
,,,,,,,,,,,,,,,,,5fb3224238ecb8a40fdd1685,44,2022-02-12_16h45.01.720,lexical_decision_task_DD,2021.2.3,Win32,60.09976561,,,,,,,,,,,0.7148,1,,,,,,,,,,,,,,m,1,0.7148,,,,,,,,0.321661256,-0.29869708,0,0,0,,0,14,14,12,1,SHORE,C,old,m,./images/SHORE.png,,,,,,,,,,,,,,,,,,,,,,,,,,,,,,,,,,,
,,,,,,,,,,,,,,,,,5fb3224238ecb8a40fdd1685,44,2022-02-12_16h45.01.720,lexical_decision_task_DD,2021.2.3,Win32,60.09976561,,,,,,,,,,,0.714,1,,,,,,,,,,,,,,z,1,0.714,,,,,,,,0.321661256,-0.29869708,0,0,0,,0,15,15,141,1,PLEET,C,old,z,./images/PLEET.png,,,,,,,,,,,,,,,,,,,,,,,,,,,,,,,,,,,
,,,,,,,,,,,,,,,,,5fb3224238ecb8a40fdd1685,44,2022-02-12_16h45.01.720,lexical_decision_task_DD,2021.2.3,Win32,60.09976561,,,,,,,,,,,0.7273,1,,,,,,,,,,,,,,z,1,0.7273,,,,,,,,0.321661256,-0.29869708,0,0,0,,0,16,16,126,1,GUELS,C,old,z,./images/GUELS.png,,,,,,,,,,,,,,,,,,,,,,,,,,,,,,,,,,,
,,,,,,,,,,,,,,,,,5fb3224238ecb8a40fdd1685,44,2022-02-12_16h45.01.720,lexical_decision_task_DD,2021.2.3,Win32,60.09976561,,,,,,,,,,,0.7974,1,,,,,,,,,,,,,,z,1,0.7974,,,,,,,,0.321661256,-0.29869708,0,0,0,,0,17,17,158,1,EGECT,LB,old,z,./images/EGECTLB.png,,,,,,,,,,,,,,,,,,,,,,,,,,,,,,,,,,,
,,,,,,,,,,,,,,,,,5fb3224238ecb8a40fdd1685,44,2022-02-12_16h45.01.720,lexical_decision_task_DD,2021.2.3,Win32,60.09976561,,,,,,,,,,,0.5707,1,,,,,,,,,,,,,,m,1,0.5707,,,,,,,,0.321661256,-0.29869708,0,0,0,,0,18,18,66,1,SWEAT,C,old,m,./images/SWEAT.png,,,,,,,,,,,,,,,,,,,,,,,,,,,,,,,,,,,
,,,,,,,,,,,,,,,,,5fb3224238ecb8a40fdd1685,44,2022-02-12_16h45.01.720,lexical_decision_task_DD,2021.2.3,Win32,60.09976561,,,,,,,,,,,0.6668,1,,,,,,,,,,,,,,z,1,0.6668,,,,,,,,0.321661256,-0.29869708,0,0,0,,0,19,19,119,1,PAFER,LB,old,z,./images/PAFERLB.png,,,,,,,,,,,,,,,,,,,,,,,,,,,,,,,,,,,
,,,,,,,,,,,,,,,,,5fb3224238ecb8a40fdd1685,44,2022-02-12_16h45.01.720,lexical_decision_task_DD,2021.2.3,Win32,60.09976561,,,,,,,,,,,0.7679,0,,,,,,,,,,,,,,m,0,0.7679,,,,,,,,0.321661256,-0.29869708,0,0,0,,0,20,20,122,1,BLOOT,LB,old,z,./images/BLOOTLB.png,,,,,,,,,,,,,,,,,,,,,,,,,,,,,,,,,,,
,,,,,,,,,,,,,,,,,5fb3224238ecb8a40fdd1685,44,2022-02-12_16h45.01.720,lexical_decision_task_DD,2021.2.3,Win32,60.09976561,,,,,,,,,,,1.0629,1,,,,,,,,,,,,,,z,1,1.0629,,,,,,,,0.321661256,-0.29869708,0,0,0,,0,21,21,110,1,CRUNK,LB,old,z,./images/CRUNKLB.png,,,,,,,,,,,,,,,,,,,,,,,,,,,,,,,,,,,
,,,,,,,,,,,,,,,,,5fb3224238ecb8a40fdd1685,44,2022-02-12_16h45.01.720,lexical_decision_task_DD,2021.2.3,Win32,60.09976561,,,,,,,,,,,0.9198,1,,,,,,,,,,,,,,z,1,0.9198,,,,,,,,0.321661256,-0.29869708,0,0,0,,0,22,22,134,1,TROSS,LB,old,z,./images/TROSSLB.png,,,,,,,,,,,,,,,,,,,,,,,,,,,,,,,,,,,
,,,,,,,,,,,,,,,,,5fb3224238ecb8a40fdd1685,44,2022-02-12_16h45.01.720,lexical_decision_task_DD,2021.2.3,Win32,60.09976561,,,,,,,,,,,0.86,1,,,,,,,,,,,,,,m,1,0.86,,,,,,,,0.321661256,-0.29869708,0,0,0,,0,23,23,78,1,LITTER,C,old,m,./images/LITTER.png,,,,,,,,,,,,,,,,,,,,,,,,,,,,,,,,,,,
,,,,,,,,,,,,,,,,,5fb3224238ecb8a40fdd1685,44,2022-02-12_16h45.01.720,lexical_decision_task_DD,2021.2.3,Win32,60.09976561,,,,,,,,,,,1.0604,0,,,,,,,,,,,,,,z,0,1.0604,,,,,,,,0.321661256,-0.29869708,0,0,0,,0,24,24,16,1,PENCE,HB,old,m,./images/PENCEHB.png,,,,,,,,,,,,,,,,,,,,,,,,,,,,,,,,,,,
,,,,,,,,,,,,,,,,,5fb3224238ecb8a40fdd1685,44,2022-02-12_16h45.01.720,lexical_decision_task_DD,2021.2.3,Win32,60.09976561,,,,,,,,,,,0.8521,1,,,,,,,,,,,,,,m,1,0.8521,,,,,,,,0.321661256,-0.29869708,0,0,0,,0,25,25,41,1,STRING,LB,old,m,./images/STRINGLB.png,,,,,,,,,,,,,,,,,,,,,,,,,,,,,,,,,,,
,,,,,,,,,,,,,,,,,5fb3224238ecb8a40fdd1685,44,2022-02-12_16h45.01.720,lexical_decision_task_DD,2021.2.3,Win32,60.09976561,,,,,,,,,,,0.5948,1,,,,,,,,,,,,,,m,1,0.5948,,,,,,,,0.321661256,-0.29869708,0,0,0,,0,26,26,3,1,FINGER,C,old,m,./images/FINGER.png,,,,,,,,,,,,,,,,,,,,,,,,,,,,,,,,,,,
,,,,,,,,,,,,,,,,,5fb3224238ecb8a40fdd1685,44,2022-02-12_16h45.01.720,lexical_decision_task_DD,2021.2.3,Win32,60.09976561,,,,,,,,,,,0.8211,1,,,,,,,,,,,,,,z,1,0.8211,,,,,,,,0.321661256,-0.29869708,0,0,0,,0,27,27,104,1,GITTY,LB,old,z,./images/GITTYLB.png,,,,,,,,,,,,,,,,,,,,,,,,,,,,,,,,,,,
,,,,,,,,,,,,,,,,,5fb3224238ecb8a40fdd1685,44,2022-02-12_16h45.01.720,lexical_decision_task_DD,2021.2.3,Win32,60.09976561,,,,,,,,,,,0.735,1,,,,,,,,,,,,,,m,1,0.735,,,,,,,,0.321661256,-0.29869708,0,0,0,,0,28,28,21,1,KIDNEY,C,old,m,./images/KIDNEY.png,,,,,,,,,,,,,,,,,,,,,,,,,,,,,,,,,,,
,,,,,,,,,,,,,,,,,5fb3224238ecb8a40fdd1685,44,2022-02-12_16h45.01.720,lexical_decision_task_DD,2021.2.3,Win32,60.09976561,,,,,,,,,,,0.7613,1,,,,,,,,,,,,,,z,1,0.7613,,,,,,,,0.321661256,-0.29869708,0,0,0,,0,29,29,164,1,SGREW,LB,old,z,./images/SGREWLB.png,,,,,,,,,,,,,,,,,,,,,,,,,,,,,,,,,,,
,,,,,,,,,,,,,,,,,5fb3224238ecb8a40fdd1685,44,2022-02-12_16h45.01.720,lexical_decision_task_DD,2021.2.3,Win32,60.09976561,,,,,,,,,,,0.7236,1,,,,,,,,,,,,,,m,1,0.7236,,,,,,,,0.321661256,-0.29869708,0,0,0,,0,30,30,15,1,GREASE,C,old,m,./images/GREASE.png,,,,,,,,,,,,,,,,,,,,,,,,,,,,,,,,,,,
,,,,,,,,,,,,,,,,,5fb3224238ecb8a40fdd1685,44,2022-02-12_16h45.01.720,lexical_decision_task_DD,2021.2.3,Win32,60.09976561,,,,,,,,,,,0.8832,1,,,,,,,,,,,,,,z,1,0.8832,,,,,,,,0.321661256,-0.29869708,0,0,0,,0,31,31,140,1,DOVET,LB,old,z,./images/DOVETLB.png,,,,,,,,,,,,,,,,,,,,,,,,,,,,,,,,,,,
,,,,,,,,,,,,,,,,,5fb3224238ecb8a40fdd1685,44,2022-02-12_16h45.01.720,lexical_decision_task_DD,2021.2.3,Win32,60.09976561,,,,,,,,,,,0.7338,1,,,,,,,,,,,,,,m,1,0.7338,,,,,,,,0.321661256,-0.29869708,0,0,0,,0,32,32,60,1,TWINS,C,old,m,./images/TWINS.png,,,,,,,,,,,,,,,,,,,,,,,,,,,,,,,,,,,
,,,,,,,,,,,,,,,,,5fb3224238ecb8a40fdd1685,44,2022-02-12_16h45.01.720,lexical_decision_task_DD,2021.2.3,Win32,60.09976561,,,,,,,,,,,0.8445,1,,,,,,,,,,,,,,m,1,0.8445,,,,,,,,0.321661256,-0.29869708,0,0,0,,0,33,33,55,1,MUFFIN,HB,old,m,./images/MUFFINHB.png,,,,,,,,,,,,,,,,,,,,,,,,,,,,,,,,,,,
,,,,,,,,,,,,,,,,,5fb3224238ecb8a40fdd1685,44,2022-02-12_16h45.01.720,lexical_decision_task_DD,2021.2.3,Win32,60.09976561,,,,,,,,,,,1.0596,1,,,,,,,,,,,,,,z,1,1.0596,,,,,,,,0.321661256,-0.29869708,0,0,0,,0,34,34,88,1,GLUSH,HB,old,z,./images/GLUSHHB.png,,,,,,,,,,,,,,,,,,,,,,,,,,,,,,,,,,,
,,,,,,,,,,,,,,,,,5fb3224238ecb8a40fdd1685,44,2022-02-12_16h45.01.720,lexical_decision_task_DD,2021.2.3,Win32,60.09976561,,,,,,,,,,,0.9432,1,,,,,,,,,,,,,,m,1,0.9432,,,,,,,,0.321661256,-0.29869708,0,0,0,,0,35,35,25,1,WRIST,HB,old,m,./images/WRISTHB.png,,,,,,,,,,,,,,,,,,,,,,,,,,,,,,,,,,,
,,,,,,,,,,,,,,,,,5fb3224238ecb8a40fdd1685,44,2022-02-12_16h45.01.720,lexical_decision_task_DD,2021.2.3,Win32,60.09976561,,,,,,,,,,,1.1912,1,,,,,,,,,,,,,,z,1,1.1912,,,,,,,,0.321661256,-0.29869708,0,0,0,,0,36,36,108,1,GRUET,C,old,z,./images/GRUET.png,,,,,,,,,,,,,,,,,,,,,,,,,,,,,,,,,,,
,,,,,,,,,,,,,,,,,5fb3224238ecb8a40fdd1685,44,2022-02-12_16h45.01.720,lexical_decision_task_DD,2021.2.3,Win32,60.09976561,,,,,,,,,,,0.8319,1,,,,,,,,,,,,,,z,1,0.8319,,,,,,,,0.321661256,-0.29869708,0,0,0,,0,37,37,146,1,MOOST,LB,old,z,./images/MOOSTLB.png,,,,,,,,,,,,,,,,,,,,,,,,,,,,,,,,,,,
,,,,,,,,,,,,,,,,,5fb3224238ecb8a40fdd1685,44,2022-02-12_16h45.01.720,lexical_decision_task_DD,2021.2.3,Win32,60.09976561,,,,,,,,,,,0.9445,1,,,,,,,,,,,,,,m,1,0.9445,,,,,,,,0.321661256,-0.29869708,0,0,0,,0,38,38,70,1,URINE,HB,old,m,./images/URINEHB.png,,,,,,,,,,,,,,,,,,,,,,,,,,,,,,,,,,,
,,,,,,,,,,,,,,,,,5fb3224238ecb8a40fdd1685,44,2022-02-12_16h45.01.720,lexical_decision_task_DD,2021.2.3,Win32,60.09976561,,,,,,,,,,,0.9446,1,,,,,,,,,,,,,,z,1,0.9446,,,,,,,,0.321661256,-0.29869708,0,0,0,,0,39,39,103,1,FLORT,HB,old,z,./images/FLORTHB.png,,,,,,,,,,,,,,,,,,,,,,,,,,,,,,,,,,,
,,,,,,,,,,,,,,,,,5fb3224238ecb8a40fdd1685,44,2022-02-12_16h45.01.720,lexical_decision_task_DD,2021.2.3,Win32,60.09976561,,,,,,,,,,,0.9635,1,,,,,,,,,,,,,,z,1,0.9635,,,,,,,,0.321661256,-0.29869708,0,0,0,,0,40,40,118,1,BAVEL,HB,old,z,./images/BAVELHB.png,,,,,,,,,,,,,,,,,,,,,,,,,,,,,,,,,,,
,,,,,,,,,,,,,,,,,5fb3224238ecb8a40fdd1685,44,2022-02-12_16h45.01.720,lexical_decision_task_DD,2021.2.3,Win32,60.09976561,,,,,,,,,,,0.8786,1,,,,,,,,,,,,,,z,1,0.8786,,,,,,,,0.321661256,-0.29869708,0,0,0,space,0,41,41,116,1,BALGY,LB,old,z,./images/BALGYLB.png,8.3565,,,,,,,,,,,,,,,,,,,,,,,,,,,,,,,,,,
,,,,,,,,,,,,,,,,,5fb3224238ecb8a40fdd1685,44,2022-02-12_16h45.01.720,lexical_decision_task_DD,2021.2.3,Win32,60.09976561,,,,,,,,,,,0.7317,1,,,,,,,,,,,,,,m,1,0.7317,,,,,,,,0.321661256,-0.29869708,0,0,0,,0,42,42,71,1,PIMPLE,LB,old,m,./images/PIMPLELB.png,,,,,,,,,,,,,,,,,,,,,,,,,,,,,,,,,,,
,,,,,,,,,,,,,,,,,5fb3224238ecb8a40fdd1685,44,2022-02-12_16h45.01.720,lexical_decision_task_DD,2021.2.3,Win32,60.09976561,,,,,,,,,,,0.7265,1,,,,,,,,,,,,,,m,1,0.7265,,,,,,,,0.321661256,-0.29869708,0,0,0,,0,43,43,82,1,SUNSET,HB,old,m,./images/SUNSETHB.png,,,,,,,,,,,,,,,,,,,,,,,,,,,,,,,,,,,
,,,,,,,,,,,,,,,,,5fb3224238ecb8a40fdd1685,44,2022-02-12_16h45.01.720,lexical_decision_task_DD,2021.2.3,Win32,60.09976561,,,,,,,,,,,1.0034,1,,,,,,,,,,,,,,z,1,1.0034,,,,,,,,0.321661256,-0.29869708,0,0,0,,0,44,44,115,1,MAWNS,HB,old,z,./images/MAWNSHB.png,,,,,,,,,,,,,,,,,,,,,,,,,,,,,,,,,,,
,,,,,,,,,,,,,,,,,5fb3224238ecb8a40fdd1685,44,2022-02-12_16h45.01.720,lexical_decision_task_DD,2021.2.3,Win32,60.09976561,,,,,,,,,,,0.8061,1,,,,,,,,,,,,,,z,1,0.8061,,,,,,,,0.321661256,-0.29869708,0,0,0,,0,45,45,87,1,TRING,C,old,z,./images/TRING.png,,,,,,,,,,,,,,,,,,,,,,,,,,,,,,,,,,,
,,,,,,,,,,,,,,,,,5fb3224238ecb8a40fdd1685,44,2022-02-12_16h45.01.720,lexical_decision_task_DD,2021.2.3,Win32,60.09976561,,,,,,,,,,,0.886,0,,,,,,,,,,,,,,m,0,0.886,,,,,,,,0.321661256,-0.29869708,0,0,0,,0,46,46,142,1,PLASK,HB,old,z,./images/PLASKHB.png,,,,,,,,,,,,,,,,,,,,,,,,,,,,,,,,,,,
,,,,,,,,,,,,,,,,,5fb3224238ecb8a40fdd1685,44,2022-02-12_16h45.01.720,lexical_decision_task_DD,2021.2.3,Win32,60.09976561,,,,,,,,,,,0.8149,1,,,,,,,,,,,,,,z,1,0.8149,,,,,,,,0.321661256,-0.29869708,0,0,0,,0,47,47,167,1,ZONET,LB,old,z,./images/ZONETLB.png,,,,,,,,,,,,,,,,,,,,,,,,,,,,,,,,,,,
,,,,,,,,,,,,,,,,,5fb3224238ecb8a40fdd1685,44,2022-02-12_16h45.01.720,lexical_decision_task_DD,2021.2.3,Win32,60.09976561,,,,,,,,,,,0.6532,1,,,,,,,,,,,,,,z,1,0.6532,,,,,,,,0.321661256,-0.29869708,0,0,0,,0,48,48,92,1,PAIMS,LB,old,z,./images/PAIMSLB.png,,,,,,,,,,,,,,,,,,,,,,,,,,,,,,,,,,,
,,,,,,,,,,,,,,,,,5fb3224238ecb8a40fdd1685,44,2022-02-12_16h45.01.720,lexical_decision_task_DD,2021.2.3,Win32,60.09976561,,,,,,,,,,,0.6854,1,,,,,,,,,,,,,,m,1,0.6854,,,,,,,,0.321661256,-0.29869708,0,0,0,,0,49,49,6,1,SQUARE,C,old,m,./images/SQUARE.png,,,,,,,,,,,,,,,,,,,,,,,,,,,,,,,,,,,
,,,,,,,,,,,,,,,,,5fb3224238ecb8a40fdd1685,44,2022-02-12_16h45.01.720,lexical_decision_task_DD,2021.2.3,Win32,60.09976561,,,,,,,,,,,0.8525,1,,,,,,,,,,,,,,z,1,0.8525,,,,,,,,0.321661256,-0.29869708,0,0,0,,0,50,50,136,1,WERVE,HB,old,z,./images/WERVEHB.png,,,,,,,,,,,,,,,,,,,,,,,,,,,,,,,,,,,
,,,,,,,,,,,,,,,,,5fb3224238ecb8a40fdd1685,44,2022-02-12_16h45.01.720,lexical_decision_task_DD,2021.2.3,Win32,60.09976561,,,,,,,,,,,0.9491,1,,,,,,,,,,,,,,m,1,0.9491,,,,,,,,0.321661256,-0.29869708,0,0,0,,0,51,51,22,1,MELON,HB,old,m,./images/MELONHB.png,,,,,,,,,,,,,,,,,,,,,,,,,,,,,,,,,,,
,,,,,,,,,,,,,,,,,5fb3224238ecb8a40fdd1685,44,2022-02-12_16h45.01.720,lexical_decision_task_DD,2021.2.3,Win32,60.09976561,,,,,,,,,,,1.2775,1,,,,,,,,,,,,,,m,1,1.2775,,,,,,,,0.321661256,-0.29869708,0,0,0,,0,52,52,1,1,PLANK,HB,old,m,./images/PLANKHB.png,,,,,,,,,,,,,,,,,,,,,,,,,,,,,,,,,,,
,,,,,,,,,,,,,,,,,5fb3224238ecb8a40fdd1685,44,2022-02-12_16h45.01.720,lexical_decision_task_DD,2021.2.3,Win32,60.09976561,,,,,,,,,,,0.8353,1,,,,,,,,,,,,,,z,1,0.8353,,,,,,,,0.321661256,-0.29869708,0,0,0,,0,53,53,151,1,TINKY,HB,old,z,./images/TINKYHB.png,,,,,,,,,,,,,,,,,,,,,,,,,,,,,,,,,,,
,,,,,,,,,,,,,,,,,5fb3224238ecb8a40fdd1685,44,2022-02-12_16h45.01.720,lexical_decision_task_DD,2021.2.3,Win32,60.09976561,,,,,,,,,,,0.8485,1,,,,,,,,,,,,,,m,1,0.8485,,,,,,,,0.321661256,-0.29869708,0,0,0,,0,54,54,46,1,PEARL,HB,old,m,./images/PEARLHB.png,,,,,,,,,,,,,,,,,,,,,,,,,,,,,,,,,,,
,,,,,,,,,,,,,,,,,5fb3224238ecb8a40fdd1685,44,2022-02-12_16h45.01.720,lexical_decision_task_DD,2021.2.3,Win32,60.09976561,,,,,,,,,,,0.7271,0,,,,,,,,,,,,,,z,0,0.7271,,,,,,,,0.321661256,-0.29869708,0,0,0,,0,55,55,69,1,COOKER,C,old,m,./images/COOKER.png,,,,,,,,,,,,,,,,,,,,,,,,,,,,,,,,,,,
,,,,,,,,,,,,,,,,,5fb3224238ecb8a40fdd1685,44,2022-02-12_16h45.01.720,lexical_decision_task_DD,2021.2.3,Win32,60.09976561,,,,,,,,,,,0.6617,1,,,,,,,,,,,,,,m,1,0.6617,,,,,,,,0.321661256,-0.29869708,0,0,0,,0,56,56,48,1,SPORT,C,old,m,./images/SPORT.png,,,,,,,,,,,,,,,,,,,,,,,,,,,,,,,,,,,
,,,,,,,,,,,,,,,,,5fb3224238ecb8a40fdd1685,44,2022-02-12_16h45.01.720,lexical_decision_task_DD,2021.2.3,Win32,60.09976561,,,,,,,,,,,0.934,1,,,,,,,,,,,,,,z,1,0.934,,,,,,,,0.321661256,-0.29869708,0,0,0,,0,57,57,93,1,SMONE,C,old,z,./images/SMONE.png,,,,,,,,,,,,,,,,,,,,,,,,,,,,,,,,,,,
,,,,,,,,,,,,,,,,,5fb3224238ecb8a40fdd1685,44,2022-02-12_16h45.01.720,lexical_decision_task_DD,2021.2.3,Win32,60.09976561,,,,,,,,,,,0.7087,1,,,,,,,,,,,,,,m,1,0.7087,,,,,,,,0.321661256,-0.29869708,0,0,0,,0,58,58,36,1,THROAT,C,old,m,./images/THROAT.png,,,,,,,,,,,,,,,,,,,,,,,,,,,,,,,,,,,
,,,,,,,,,,,,,,,,,5fb3224238ecb8a40fdd1685,44,2022-02-12_16h45.01.720,lexical_decision_task_DD,2021.2.3,Win32,60.09976561,,,,,,,,,,,1.4091,0,,,,,,,,,,,,,,z,0,1.4091,,,,,,,,0.321661256,-0.29869708,0,0,0,,0,59,59,43,1,MOSQUE,HB,old,m,./images/MOSQUEHB.png,,,,,,,,,,,,,,,,,,,,,,,,,,,,,,,,,,,
,,,,,,,,,,,,,,,,,5fb3224238ecb8a40fdd1685,44,2022-02-12_16h45.01.720,lexical_decision_task_DD,2021.2.3,Win32,60.09976561,,,,,,,,,,,0.9015,1,,,,,,,,,,,,,,z,1,0.9015,,,,,,,,0.321661256,-0.29869708,0,0,0,,0,60,60,137,1,JOOST,LB,old,z,./images/JOOSTLB.png,,,,,,,,,,,,,,,,,,,,,,,,,,,,,,,,,,,
,,,,,,,,,,,,,,,,,5fb3224238ecb8a40fdd1685,44,2022-02-12_16h45.01.720,lexical_decision_task_DD,2021.2.3,Win32,60.09976561,,,,,,,,,,,1.1836,1,,,,,,,,,,,,,,z,1,1.1836,,,,,,,,0.321661256,-0.29869708,0,0,0,,0,61,61,91,1,SHENS,HB,old,z,./images/SHENSHB.png,,,,,,,,,,,,,,,,,,,,,,,,,,,,,,,,,,,
,,,,,,,,,,,,,,,,,5fb3224238ecb8a40fdd1685,44,2022-02-12_16h45.01.720,lexical_decision_task_DD,2021.2.3,Win32,60.09976561,,,,,,,,,,,0.9846,1,,,,,,,,,,,,,,m,1,0.9846,,,,,,,,0.321661256,-0.29869708,0,0,0,,0,62,62,80,1,WEASEL,LB,old,m,./images/WEASELLB.png,,,,,,,,,,,,,,,,,,,,,,,,,,,,,,,,,,,
,,,,,,,,,,,,,,,,,5fb3224238ecb8a40fdd1685,44,2022-02-12_16h45.01.720,lexical_decision_task_DD,2021.2.3,Win32,60.09976561,,,,,,,,,,,0.7957,1,,,,,,,,,,,,,,m,1,0.7957,,,,,,,,0.321661256,-0.29869708,0,0,0,,0,63,63,17,1,SKIING,LB,old,m,./images/SKIINGLB.png,,,,,,,,,,,,,,,,,,,,,,,,,,,,,,,,,,,
,,,,,,,,,,,,,,,,,5fb3224238ecb8a40fdd1685,44,2022-02-12_16h45.01.720,lexical_decision_task_DD,2021.2.3,Win32,60.09976561,,,,,,,,,,,0.7817,1,,,,,,,,,,,,,,m,1,0.7817,,,,,,,,0.321661256,-0.29869708,0,0,0,,0,64,64,37,1,BIRTH,HB,old,m,./images/BIRTHHB.png,,,,,,,,,,,,,,,,,,,,,,,,,,,,,,,,,,,
,,,,,,,,,,,,,,,,,5fb3224238ecb8a40fdd1685,44,2022-02-12_16h45.01.720,lexical_decision_task_DD,2021.2.3,Win32,60.09976561,,,,,,,,,,,0.6333,1,,,,,,,,,,,,,,m,1,0.6333,,,,,,,,0.321661256,-0.29869708,0,0,0,,0,65,65,32,1,BARREL,LB,old,m,./images/BARRELLB.png,,,,,,,,,,,,,,,,,,,,,,,,,,,,,,,,,,,
,,,,,,,,,,,,,,,,,5fb3224238ecb8a40fdd1685,44,2022-02-12_16h45.01.720,lexical_decision_task_DD,2021.2.3,Win32,60.09976561,,,,,,,,,,,0.6265,1,,,,,,,,,,,,,,m,1,0.6265,,,,,,,,0.321661256,-0.29869708,0,0,0,,0,66,66,77,1,COUCH,LB,old,m,./images/COUCHLB.png,,,,,,,,,,,,,,,,,,,,,,,,,,,,,,,,,,,
,,,,,,,,,,,,,,,,,5fb3224238ecb8a40fdd1685,44,2022-02-12_16h45.01.720,lexical_decision_task_DD,2021.2.3,Win32,60.09976561,,,,,,,,,,,0.761,1,,,,,,,,,,,,,,m,1,0.761,,,,,,,,0.321661256,-0.29869708,0,0,0,,0,67,67,19,1,DOUGH,HB,old,m,./images/DOUGHHB.png,,,,,,,,,,,,,,,,,,,,,,,,,,,,,,,,,,,
,,,,,,,,,,,,,,,,,5fb3224238ecb8a40fdd1685,44,2022-02-12_16h45.01.720,lexical_decision_task_DD,2021.2.3,Win32,60.09976561,,,,,,,,,,,0.6018,1,,,,,,,,,,,,,,m,1,0.6018,,,,,,,,0.321661256,-0.29869708,0,0,0,,0,68,68,51,1,ONION,C,old,m,./images/ONION.png,,,,,,,,,,,,,,,,,,,,,,,,,,,,,,,,,,,
,,,,,,,,,,,,,,,,,5fb3224238ecb8a40fdd1685,44,2022-02-12_16h45.01.720,lexical_decision_task_DD,2021.2.3,Win32,60.09976561,,,,,,,,,,,0.7299,1,,,,,,,,,,,,,,z,1,0.7299,,,,,,,,0.321661256,-0.29869708,0,0,0,,0,69,69,143,1,MONGS,LB,old,z,./images/MONGSLB.png,,,,,,,,,,,,,,,,,,,,,,,,,,,,,,,,,,,
,,,,,,,,,,,,,,,,,5fb3224238ecb8a40fdd1685,44,2022-02-12_16h45.01.720,lexical_decision_task_DD,2021.2.3,Win32,60.09976561,,,,,,,,,,,1.2637,0,,,,,,,,,,,,,,m,0,1.2637,,,,,,,,0.321661256,-0.29869708,0,0,0,,0,70,70,154,1,THINT,HB,old,z,./images/THINTHB.png,,,,,,,,,,,,,,,,,,,,,,,,,,,,,,,,,,,
,,,,,,,,,,,,,,,,,5fb3224238ecb8a40fdd1685,44,2022-02-12_16h45.01.720,lexical_decision_task_DD,2021.2.3,Win32,60.09976561,,,,,,,,,,,0.8483,1,,,,,,,,,,,,,,z,1,0.8483,,,,,,,,0.321661256,-0.29869708,0,0,0,,0,71,71,112,1,MYING,HB,old,z,./images/MYINGHB.png,,,,,,,,,,,,,,,,,,,,,,,,,,,,,,,,,,,
,,,,,,,,,,,,,,,,,5fb3224238ecb8a40fdd1685,44,2022-02-12_16h45.01.720,lexical_decision_task_DD,2021.2.3,Win32,60.09976561,,,,,,,,,,,0.8357,1,,,,,,,,,,,,,,m,1,0.8357,,,,,,,,0.321661256,-0.29869708,0,0,0,,0,72,72,75,1,GRAIN,C,old,m,./images/GRAIN.png,,,,,,,,,,,,,,,,,,,,,,,,,,,,,,,,,,,
,,,,,,,,,,,,,,,,,5fb3224238ecb8a40fdd1685,44,2022-02-12_16h45.01.720,lexical_decision_task_DD,2021.2.3,Win32,60.09976561,,,,,,,,,,,0.8797,1,,,,,,,,,,,,,,m,1,0.8797,,,,,,,,0.321661256,-0.29869708,0,0,0,,0,73,73,33,1,MAGGOT,C,old,m,./images/MAGGOT.png,,,,,,,,,,,,,,,,,,,,,,,,,,,,,,,,,,,
,,,,,,,,,,,,,,,,,5fb3224238ecb8a40fdd1685,44,2022-02-12_16h45.01.720,lexical_decision_task_DD,2021.2.3,Win32,60.09976561,,,,,,,,,,,0.7904,1,,,,,,,,,,,,,,z,1,0.7904,,,,,,,,0.321661256,-0.29869708,0,0,0,,0,74,74,135,1,JOODY,C,old,z,./images/JOODY.png,,,,,,,,,,,,,,,,,,,,,,,,,,,,,,,,,,,
,,,,,,,,,,,,,,,,,5fb3224238ecb8a40fdd1685,44,2022-02-12_16h45.01.720,lexical_decision_task_DD,2021.2.3,Win32,60.09976561,,,,,,,,,,,0.8118,1,,,,,,,,,,,,,,m,1,0.8118,,,,,,,,0.321661256,-0.29869708,0,0,0,,0,75,75,28,1,FALCON,HB,old,m,./images/FALCONHB.png,,,,,,,,,,,,,,,,,,,,,,,,,,,,,,,,,,,
,,,,,,,,,,,,,,,,,5fb3224238ecb8a40fdd1685,44,2022-02-12_16h45.01.720,lexical_decision_task_DD,2021.2.3,Win32,60.09976561,,,,,,,,,,,1.153,1,,,,,,,,,,,,,,z,1,1.153,,,,,,,,0.321661256,-0.29869708,0,0,0,,0,76,76,129,1,PRANS,C,old,z,./images/PRANS.png,,,,,,,,,,,,,,,,,,,,,,,,,,,,,,,,,,,
,,,,,,,,,,,,,,,,,5fb3224238ecb8a40fdd1685,44,2022-02-12_16h45.01.720,lexical_decision_task_DD,2021.2.3,Win32,60.09976561,,,,,,,,,,,1.0741,0,,,,,,,,,,,,,,m,0,1.0741,,,,,,,,0.321661256,-0.29869708,0,0,0,,0,77,77,144,1,NAIRY,C,old,z,./images/NAIRY.png,,,,,,,,,,,,,,,,,,,,,,,,,,,,,,,,,,,
,,,,,,,,,,,,,,,,,5fb3224238ecb8a40fdd1685,44,2022-02-12_16h45.01.720,lexical_decision_task_DD,2021.2.3,Win32,60.09976561,,,,,,,,,,,1.1002,1,,,,,,,,,,,,,,z,1,1.1002,,,,,,,,0.321661256,-0.29869708,0,0,0,,0,78,78,150,1,NOOLS,C,old,z,./images/NOOLS.png,,,,,,,,,,,,,,,,,,,,,,,,,,,,,,,,,,,
,,,,,,,,,,,,,,,,,5fb3224238ecb8a40fdd1685,44,2022-02-12_16h45.01.720,lexical_decision_task_DD,2021.2.3,Win32,60.09976561,,,,,,,,,,,1.3118,1,,,,,,,,,,,,,,z,1,1.3118,,,,,,,,0.321661256,-0.29869708,0,0,0,,0,79,79,165,1,TROWN,C,old,z,./images/TROWN.png,,,,,,,,,,,,,,,,,,,,,,,,,,,,,,,,,,,
,,,,,,,,,,,,,,,,,5fb3224238ecb8a40fdd1685,44,2022-02-12_16h45.01.720,lexical_decision_task_DD,2021.2.3,Win32,60.09976561,,,,,,,,,,,1.1113,1,,,,,,,,,,,,,,z,1,1.1113,,,,,,,,0.321661256,-0.29869708,0,0,0,,0,80,80,85,1,CHULK,HB,old,z,./images/CHULKHB.png,,,,,,,,,,,,,,,,,,,,,,,,,,,,,,,,,,,
,,,,,,,,,,,,,,,,,5fb3224238ecb8a40fdd1685,44,2022-02-12_16h45.01.720,lexical_decision_task_DD,2021.2.3,Win32,60.09976561,,,,,,,,,,,0.7914,1,,,,,,,,,,,,,,z,1,0.7914,,,,,,,,0.321661256,-0.29869708,0,0,0,,0,81,81,156,1,HIXES,C,old,z,./images/HIXES.png,,,,,,,,,,,,,,,,,,,,,,,,,,,,,,,,,,,
,,,,,,,,,,,,,,,,,5fb3224238ecb8a40fdd1685,44,2022-02-12_16h45.01.720,lexical_decision_task_DD,2021.2.3,Win32,60.09976561,,,,,,,,,,,0.7192,1,,,,,,,,,,,,,,m,1,0.7192,,,,,,,,0.321661256,-0.29869708,0,0,0,,0,82,82,20,1,CRADLE,LB,old,m,./images/CRADLELB.png,,,,,,,,,,,,,,,,,,,,,,,,,,,,,,,,,,,
,,,,,,,,,,,,,,,,,5fb3224238ecb8a40fdd1685,44,2022-02-12_16h45.01.720,lexical_decision_task_DD,2021.2.3,Win32,60.09976561,,,,,,,,,,,0.7156,1,,,,,,,,,,,,,,m,1,0.7156,,,,,,,,0.321661256,-0.29869708,0,0,0,space,0,83,83,39,1,SHELF,C,old,m,./images/SHELF.png,6.4957,,,,,,,,,,,,,,,,,,,,,,,,,,,,,,,,,,
,,,,,,,,,,,,,,,,,5fb3224238ecb8a40fdd1685,44,2022-02-12_16h45.01.720,lexical_decision_task_DD,2021.2.3,Win32,60.09976561,,,,,,,,,,,0.8301,1,,,,,,,,,,,,,,m,1,0.8301,,,,,,,,0.321661256,-0.29869708,0,0,0,,0,84,84,50,1,MALLET,LB,old,m,./images/MALLETLB.png,,,,,,,,,,,,,,,,,,,,,,,,,,,,,,,,,,,
,,,,,,,,,,,,,,,,,5fb3224238ecb8a40fdd1685,44,2022-02-12_16h45.01.720,lexical_decision_task_DD,2021.2.3,Win32,60.09976561,,,,,,,,,,,0.7767,1,,,,,,,,,,,,,,z,1,0.7767,,,,,,,,0.321661256,-0.29869708,0,0,0,,0,85,85,147,1,ZOLES,C,old,z,./images/ZOLES.png,,,,,,,,,,,,,,,,,,,,,,,,,,,,,,,,,,,
,,,,,,,,,,,,,,,,,5fb3224238ecb8a40fdd1685,44,2022-02-12_16h45.01.720,lexical_decision_task_DD,2021.2.3,Win32,60.09976561,,,,,,,,,,,1.2763,1,,,,,,,,,,,,,,z,1,1.2763,,,,,,,,0.321661256,-0.29869708,0,0,0,,0,86,86,102,1,DULLE,C,old,z,./images/DULLE.png,,,,,,,,,,,,,,,,,,,,,,,,,,,,,,,,,,,
,,,,,,,,,,,,,,,,,5fb3224238ecb8a40fdd1685,44,2022-02-12_16h45.01.720,lexical_decision_task_DD,2021.2.3,Win32,60.09976561,,,,,,,,,,,0.7863,0,,,,,,,,,,,,,,z,0,0.7863,,,,,,,,0.321661256,-0.29869708,0,0,0,,0,87,87,0,1,TOMATO,C,old,m,./images/TOMATO.png,,,,,,,,,,,,,,,,,,,,,,,,,,,,,,,,,,,
,,,,,,,,,,,,,,,,,5fb3224238ecb8a40fdd1685,44,2022-02-12_16h45.01.720,lexical_decision_task_DD,2021.2.3,Win32,60.09976561,,,,,,,,,,,0.7609,1,,,,,,,,,,,,,,z,1,0.7609,,,,,,,,0.321661256,-0.29869708,0,0,0,,0,88,88,101,1,GLEET,LB,old,z,./images/GLEETLB.png,,,,,,,,,,,,,,,,,,,,,,,,,,,,,,,,,,,
,,,,,,,,,,,,,,,,,5fb3224238ecb8a40fdd1685,44,2022-02-12_16h45.01.720,lexical_decision_task_DD,2021.2.3,Win32,60.09976561,,,,,,,,,,,0.7618,1,,,,,,,,,,,,,,m,1,0.7618,,,,,,,,0.321661256,-0.29869708,0,0,0,,0,89,89,40,1,SWING,HB,old,m,./images/SWINGHB.png,,,,,,,,,,,,,,,,,,,,,,,,,,,,,,,,,,,
,,,,,,,,,,,,,,,,,5fb3224238ecb8a40fdd1685,44,2022-02-12_16h45.01.720,lexical_decision_task_DD,2021.2.3,Win32,60.09976561,,,,,,,,,,,0.8746,1,,,,,,,,,,,,,,z,1,0.8746,,,,,,,,0.321661256,-0.29869708,0,0,0,,0,90,90,138,1,PLICE,C,old,z,./images/PLICE.png,,,,,,,,,,,,,,,,,,,,,,,,,,,,,,,,,,,
,,,,,,,,,,,,,,,,,5fb3224238ecb8a40fdd1685,44,2022-02-12_16h45.01.720,lexical_decision_task_DD,2021.2.3,Win32,60.09976561,,,,,,,,,,,0.8262,1,,,,,,,,,,,,,,m,1,0.8262,,,,,,,,0.321661256,-0.29869708,0,0,0,,0,91,91,81,1,POODLE,C,old,m,./images/POODLE.png,,,,,,,,,,,,,,,,,,,,,,,,,,,,,,,,,,,
,,,,,,,,,,,,,,,,,5fb3224238ecb8a40fdd1685,44,2022-02-12_16h45.01.720,lexical_decision_task_DD,2021.2.3,Win32,60.09976561,,,,,,,,,,,0.8017,1,,,,,,,,,,,,,,m,1,0.8017,,,,,,,,0.321661256,-0.29869708,0,0,0,,0,92,92,24,1,SCREW,C,old,m,./images/SCREW.png,,,,,,,,,,,,,,,,,,,,,,,,,,,,,,,,,,,
,,,,,,,,,,,,,,,,,5fb3224238ecb8a40fdd1685,44,2022-02-12_16h45.01.720,lexical_decision_task_DD,2021.2.3,Win32,60.09976561,,,,,,,,,,,0.5611,1,,,,,,,,,,,,,,m,1,0.5611,,,,,,,,0.321661256,-0.29869708,0,0,0,,0,93,93,65,1,FARMER,LB,old,m,./images/FARMERLB.png,,,,,,,,,,,,,,,,,,,,,,,,,,,,,,,,,,,
,,,,,,,,,,,,,,,,,5fb3224238ecb8a40fdd1685,44,2022-02-12_16h45.01.720,lexical_decision_task_DD,2021.2.3,Win32,60.09976561,,,,,,,,,,,0.5458,1,,,,,,,,,,,,,,m,1,0.5458,,,,,,,,0.321661256,-0.29869708,0,0,0,,0,94,94,38,1,LADDER,LB,old,m,./images/LADDERLB.png,,,,,,,,,,,,,,,,,,,,,,,,,,,,,,,,,,,
,,,,,,,,,,,,,,,,,5fb3224238ecb8a40fdd1685,44,2022-02-12_16h45.01.720,lexical_decision_task_DD,2021.2.3,Win32,60.09976561,,,,,,,,,,,0.7144,1,,,,,,,,,,,,,,z,1,0.7144,,,,,,,,0.321661256,-0.29869708,0,0,0,,0,95,95,105,1,MOKER,C,old,z,./images/MOKER.png,,,,,,,,,,,,,,,,,,,,,,,,,,,,,,,,,,,
,,,,,,,,,,,,,,,,,5fb3224238ecb8a40fdd1685,44,2022-02-12_16h45.01.720,lexical_decision_task_DD,2021.2.3,Win32,60.09976561,,,,,,,,,,,0.7146,1,,,,,,,,,,,,,,z,1,0.7146,,,,,,,,0.321661256,-0.29869708,0,0,0,,0,96,96,96,1,KEAMS,C,old,z,./images/KEAMS.png,,,,,,,,,,,,,,,,,,,,,,,,,,,,,,,,,,,
,,,,,,,,,,,,,,,,,5fb3224238ecb8a40fdd1685,44,2022-02-12_16h45.01.720,lexical_decision_task_DD,2021.2.3,Win32,60.09976561,,,,,,,,,,,0.8628,1,,,,,,,,,,,,,,z,1,0.8628,,,,,,,,0.321661256,-0.29869708,0,0,0,,0,97,97,127,1,NINDY,HB,old,z,./images/NINDYHB.png,,,,,,,,,,,,,,,,,,,,,,,,,,,,,,,,,,,
,,,,,,,,,,,,,,,,,5fb3224238ecb8a40fdd1685,44,2022-02-12_16h45.01.720,lexical_decision_task_DD,2021.2.3,Win32,60.09976561,,,,,,,,,,,0.8299,1,,,,,,,,,,,,,,m,1,0.8299,,,,,,,,0.321661256,-0.29869708,0,0,0,,0,98,98,61,1,CANDLE,HB,old,m,./images/CANDLEHB.png,,,,,,,,,,,,,,,,,,,,,,,,,,,,,,,,,,,
,,,,,,,,,,,,,,,,,5fb3224238ecb8a40fdd1685,44,2022-02-12_16h45.01.720,lexical_decision_task_DD,2021.2.3,Win32,60.09976561,,,,,,,,,,,0.9092,1,,,,,,,,,,,,,,z,1,0.9092,,,,,,,,0.321661256,-0.29869708,0,0,0,,0,99,99,120,1,RINED,C,old,z,./images/RINED.png,,,,,,,,,,,,,,,,,,,,,,,,,,,,,,,,,,,
,,,,,,,,,,,,,,,,,5fb3224238ecb8a40fdd1685,44,2022-02-12_16h45.01.720,lexical_decision_task_DD,2021.2.3,Win32,60.09976561,,,,,,,,,,,0.8955,1,,,,,,,,,,,,,,m,1,0.8955,,,,,,,,0.321661256,-0.29869708,0,0,0,,0,100,100,30,1,STORM,C,old,m,./images/STORM.png,,,,,,,,,,,,,,,,,,,,,,,,,,,,,,,,,,,
,,,,,,,,,,,,,,,,,5fb3224238ecb8a40fdd1685,44,2022-02-12_16h45.01.720,lexical_decision_task_DD,2021.2.3,Win32,60.09976561,,,,,,,,,,,0.7844,1,,,,,,,,,,,,,,z,1,0.7844,,,,,,,,0.321661256,-0.29869708,0,0,0,,0,101,101,123,1,SEDGE,C,old,z,./images/SEDGE.png,,,,,,,,,,,,,,,,,,,,,,,,,,,,,,,,,,,
,,,,,,,,,,,,,,,,,5fb3224238ecb8a40fdd1685,44,2022-02-12_16h45.01.720,lexical_decision_task_DD,2021.2.3,Win32,60.09976561,,,,,,,,,,,1.0365,1,,,,,,,,,,,,,,z,1,1.0365,,,,,,,,0.321661256,-0.29869708,0,0,0,,0,102,102,132,1,SCIFF,C,old,z,./images/SCIFF.png,,,,,,,,,,,,,,,,,,,,,,,,,,,,,,,,,,,
,,,,,,,,,,,,,,,,,5fb3224238ecb8a40fdd1685,44,2022-02-12_16h45.01.720,lexical_decision_task_DD,2021.2.3,Win32,60.09976561,,,,,,,,,,,0.6354,1,,,,,,,,,,,,,,z,1,0.6354,,,,,,,,0.321661256,-0.29869708,0,0,0,,0,103,103,107,1,FASKS,LB,old,z,./images/FASKSLB.png,,,,,,,,,,,,,,,,,,,,,,,,,,,,,,,,,,,
,,,,,,,,,,,,,,,,,5fb3224238ecb8a40fdd1685,44,2022-02-12_16h45.01.720,lexical_decision_task_DD,2021.2.3,Win32,60.09976561,,,,,,,,,,,0.7012,1,,,,,,,,,,,,,,m,1,0.7012,,,,,,,,0.321661256,-0.29869708,0,0,0,,0,104,104,64,1,JELLY,HB,old,m,./images/JELLYHB.png,,,,,,,,,,,,,,,,,,,,,,,,,,,,,,,,,,,
,,,,,,,,,,,,,,,,,5fb3224238ecb8a40fdd1685,44,2022-02-12_16h45.01.720,lexical_decision_task_DD,2021.2.3,Win32,60.09976561,,,,,,,,,,,0.8829,0,,,,,,,,,,,,,,z,0,0.8829,,,,,,,,0.321661256,-0.29869708,0,0,0,,0,105,105,45,1,KITTEN,C,old,m,./images/KITTEN.png,,,,,,,,,,,,,,,,,,,,,,,,,,,,,,,,,,,
,,,,,,,,,,,,,,,,,5fb3224238ecb8a40fdd1685,44,2022-02-12_16h45.01.720,lexical_decision_task_DD,2021.2.3,Win32,60.09976561,,,,,,,,,,,1.0731,1,,,,,,,,,,,,,,z,1,1.0731,,,,,,,,0.321661256,-0.29869708,0,0,0,,0,106,106,95,1,HANTY,LB,old,z,./images/HANTYLB.png,,,,,,,,,,,,,,,,,,,,,,,,,,,,,,,,,,,
,,,,,,,,,,,,,,,,,5fb3224238ecb8a40fdd1685,44,2022-02-12_16h45.01.720,lexical_decision_task_DD,2021.2.3,Win32,60.09976561,,,,,,,,,,,0.8398,1,,,,,,,,,,,,,,m,1,0.8398,,,,,,,,0.321661256,-0.29869708,0,0,0,,0,107,107,7,1,PAINT,HB,old,m,./images/PAINTHB.png,,,,,,,,,,,,,,,,,,,,,,,,,,,,,,,,,,,
,,,,,,,,,,,,,,,,,5fb3224238ecb8a40fdd1685,44,2022-02-12_16h45.01.720,lexical_decision_task_DD,2021.2.3,Win32,60.09976561,,,,,,,,,,,0.8328,1,,,,,,,,,,,,,,z,1,0.8328,,,,,,,,0.321661256,-0.29869708,0,0,0,,0,108,108,86,1,AIFED,LB,old,z,./images/AIFEDLB.png,,,,,,,,,,,,,,,,,,,,,,,,,,,,,,,,,,,
,,,,,,,,,,,,,,,,,5fb3224238ecb8a40fdd1685,44,2022-02-12_16h45.01.720,lexical_decision_task_DD,2021.2.3,Win32,60.09976561,,,,,,,,,,,0.8752,1,,,,,,,,,,,,,,z,1,0.8752,,,,,,,,0.321661256,-0.29869708,0,0,0,,0,109,109,84,1,HAXES,C,old,z,./images/HAXES.png,,,,,,,,,,,,,,,,,,,,,,,,,,,,,,,,,,,
,,,,,,,,,,,,,,,,,5fb3224238ecb8a40fdd1685,44,2022-02-12_16h45.01.720,lexical_decision_task_DD,2021.2.3,Win32,60.09976561,,,,,,,,,,,0.963,1,,,,,,,,,,,,,,m,1,0.963,,,,,,,,0.321661256,-0.29869708,0,0,0,,0,110,110,52,1,BANNER,HB,old,m,./images/BANNERHB.png,,,,,,,,,,,,,,,,,,,,,,,,,,,,,,,,,,,
,,,,,,,,,,,,,,,,,5fb3224238ecb8a40fdd1685,44,2022-02-12_16h45.01.720,lexical_decision_task_DD,2021.2.3,Win32,60.09976561,,,,,,,,,,,1.2775,1,,,,,,,,,,,,,,z,1,1.2775,,,,,,,,0.321661256,-0.29869708,0,0,0,,0,111,111,94,1,BLANS,HB,old,z,./images/BLANSHB.png,,,,,,,,,,,,,,,,,,,,,,,,,,,,,,,,,,,
,,,,,,,,,,,,,,,,,5fb3224238ecb8a40fdd1685,44,2022-02-12_16h45.01.720,lexical_decision_task_DD,2021.2.3,Win32,60.09976561,,,,,,,,,,,1.2588,1,,,,,,,,,,,,,,m,1,1.2588,,,,,,,,0.321661256,-0.29869708,0,0,0,,0,112,112,54,1,TRIPOD,C,old,m,./images/TRIPOD.png,,,,,,,,,,,,,,,,,,,,,,,,,,,,,,,,,,,
,,,,,,,,,,,,,,,,,5fb3224238ecb8a40fdd1685,44,2022-02-12_16h45.01.720,lexical_decision_task_DD,2021.2.3,Win32,60.09976561,,,,,,,,,,,1.3539,1,,,,,,,,,,,,,,z,1,1.3539,,,,,,,,0.321661256,-0.29869708,0,0,0,,0,113,113,97,1,CHIDS,HB,old,z,./images/CHIDSHB.png,,,,,,,,,,,,,,,,,,,,,,,,,,,,,,,,,,,
,,,,,,,,,,,,,,,,,5fb3224238ecb8a40fdd1685,44,2022-02-12_16h45.01.720,lexical_decision_task_DD,2021.2.3,Win32,60.09976561,,,,,,,,,,,0.9183,1,,,,,,,,,,,,,,m,1,0.9183,,,,,,,,0.321661256,-0.29869708,0,0,0,,0,114,114,79,1,CRUST,HB,old,m,./images/CRUSTHB.png,,,,,,,,,,,,,,,,,,,,,,,,,,,,,,,,,,,
,,,,,,,,,,,,,,,,,5fb3224238ecb8a40fdd1685,44,2022-02-12_16h45.01.720,lexical_decision_task_DD,2021.2.3,Win32,60.09976561,,,,,,,,,,,0.6963,1,,,,,,,,,,,,,,z,1,0.6963,,,,,,,,0.321661256,-0.29869708,0,0,0,,0,115,115,89,1,DRIEK,LB,old,z,./images/DRIEKLB.png,,,,,,,,,,,,,,,,,,,,,,,,,,,,,,,,,,,
,,,,,,,,,,,,,,,,,5fb3224238ecb8a40fdd1685,44,2022-02-12_16h45.01.720,lexical_decision_task_DD,2021.2.3,Win32,60.09976561,,,,,,,,,,,0.7778,1,,,,,,,,,,,,,,m,1,0.7778,,,,,,,,0.321661256,-0.29869708,0,0,0,,0,116,116,23,1,WALRUS,LB,old,m,./images/WALRUSLB.png,,,,,,,,,,,,,,,,,,,,,,,,,,,,,,,,,,,
,,,,,,,,,,,,,,,,,5fb3224238ecb8a40fdd1685,44,2022-02-12_16h45.01.720,lexical_decision_task_DD,2021.2.3,Win32,60.09976561,,,,,,,,,,,0.6136,1,,,,,,,,,,,,,,m,1,0.6136,,,,,,,,0.321661256,-0.29869708,0,0,0,,0,117,117,47,1,BERRY,LB,old,m,./images/BERRYLB.png,,,,,,,,,,,,,,,,,,,,,,,,,,,,,,,,,,,
,,,,,,,,,,,,,,,,,5fb3224238ecb8a40fdd1685,44,2022-02-12_16h45.01.720,lexical_decision_task_DD,2021.2.3,Win32,60.09976561,,,,,,,,,,,0.8005,1,,,,,,,,,,,,,,m,1,0.8005,,,,,,,,0.321661256,-0.29869708,0,0,0,,0,118,118,74,1,CEMENT,LB,old,m,./images/CEMENTLB.png,,,,,,,,,,,,,,,,,,,,,,,,,,,,,,,,,,,
,,,,,,,,,,,,,,,,,5fb3224238ecb8a40fdd1685,44,2022-02-12_16h45.01.720,lexical_decision_task_DD,2021.2.3,Win32,60.09976561,,,,,,,,,,,0.6788,1,,,,,,,,,,,,,,z,1,0.6788,,,,,,,,0.321661256,-0.29869708,0,0,0,,0,119,119,124,1,TUNCH,HB,old,z,./images/TUNCHHB.png,,,,,,,,,,,,,,,,,,,,,,,,,,,,,,,,,,,
,,,,,,,,,,,,,,,,,5fb3224238ecb8a40fdd1685,44,2022-02-12_16h45.01.720,lexical_decision_task_DD,2021.2.3,Win32,60.09976561,,,,,,,,,,,0.9958,0,,,,,,,,,,,,,,m,0,0.9958,,,,,,,,0.321661256,-0.29869708,0,0,0,,0,120,120,128,1,GRIFT,LB,old,z,./images/GRIFTLB.png,,,,,,,,,,,,,,,,,,,,,,,,,,,,,,,,,,,
,,,,,,,,,,,,,,,,,5fb3224238ecb8a40fdd1685,44,2022-02-12_16h45.01.720,lexical_decision_task_DD,2021.2.3,Win32,60.09976561,,,,,,,,,,,0.7464,1,,,,,,,,,,,,,,z,1,0.7464,,,,,,,,0.321661256,-0.29869708,0,0,0,,0,121,121,131,1,NACES,LB,old,z,./images/NACESLB.png,,,,,,,,,,,,,,,,,,,,,,,,,,,,,,,,,,,
,,,,,,,,,,,,,,,,,5fb3224238ecb8a40fdd1685,44,2022-02-12_16h45.01.720,lexical_decision_task_DD,2021.2.3,Win32,60.09976561,,,,,,,,,,,0.8828,1,,,,,,,,,,,,,,z,1,0.8828,,,,,,,,0.321661256,-0.29869708,0,0,0,,0,122,122,121,1,CEERS,HB,old,z,./images/CEERSHB.png,,,,,,,,,,,,,,,,,,,,,,,,,,,,,,,,,,,
,,,,,,,,,,,,,,,,,5fb3224238ecb8a40fdd1685,44,2022-02-12_16h45.01.720,lexical_decision_task_DD,2021.2.3,Win32,60.09976561,,,,,,,,,,,0.7132,1,,,,,,,,,,,,,,m,1,0.7132,,,,,,,,0.321661256,-0.29869708,0,0,0,,0,123,123,29,1,CRUMB,LB,old,m,./images/CRUMBLB.png,,,,,,,,,,,,,,,,,,,,,,,,,,,,,,,,,,,
,,,,,,,,,,,,,,,,,5fb3224238ecb8a40fdd1685,44,2022-02-12_16h45.01.720,lexical_decision_task_DD,2021.2.3,Win32,60.09976561,,,,,,,,,,,0.8443,1,,,,,,,,,,,,,,m,1,0.8443,,,,,,,,0.321661256,-0.29869708,0,0,0,,0,124,124,34,1,CANYON,HB,old,m,./images/CANYONHB.png,,,,,,,,,,,,,,,,,,,,,,,,,,,,,,,,,,,
,,,,,,,,,,,,,,,,,5fb3224238ecb8a40fdd1685,44,2022-02-12_16h45.01.720,lexical_decision_task_DD,2021.2.3,Win32,60.09976561,,,,,,,,,,,0.8744,1,,,,,,,,,,,,,,z,1,0.8744,,,,,,,,0.321661256,-0.29869708,0,0,0,space,0,125,125,161,1,BLAPS,LB,old,z,./images/BLAPSLB.png,8.9606,,,,,,,,,,,,,,,,,,,,,,,,,,,,,,,,,,
,,,,,,,,,,,,,,,,,5fb3224238ecb8a40fdd1685,44,2022-02-12_16h45.01.720,lexical_decision_task_DD,2021.2.3,Win32,60.09976561,,,,,,,,,,,0.8547,1,,,,,,,,,,,,,,m,1,0.8547,,,,,,,,0.321661256,-0.29869708,0,0,0,,0,126,126,8,1,TULIP,LB,old,m,./images/TULIPLB.png,,,,,,,,,,,,,,,,,,,,,,,,,,,,,,,,,,,
,,,,,,,,,,,,,,,,,5fb3224238ecb8a40fdd1685,44,2022-02-12_16h45.01.720,lexical_decision_task_DD,2021.2.3,Win32,60.09976561,,,,,,,,,,,0.8328,1,,,,,,,,,,,,,,z,1,0.8328,,,,,,,,0.321661256,-0.29869708,0,0,0,,0,127,127,100,1,DRIBS,HB,old,z,./images/DRIBSHB.png,,,,,,,,,,,,,,,,,,,,,,,,,,,,,,,,,,,
,,,,,,,,,,,,,,,,,5fb3224238ecb8a40fdd1685,44,2022-02-12_16h45.01.720,lexical_decision_task_DD,2021.2.3,Win32,60.09976561,,,,,,,,,,,1.0649,1,,,,,,,,,,,,,,m,1,1.0649,,,,,,,,0.321661256,-0.29869708,0,0,0,,0,128,128,9,1,RHINO,C,old,m,./images/RHINO.png,,,,,,,,,,,,,,,,,,,,,,,,,,,,,,,,,,,
,,,,,,,,,,,,,,,,,5fb3224238ecb8a40fdd1685,44,2022-02-12_16h45.01.720,lexical_decision_task_DD,2021.2.3,Win32,60.09976561,,,,,,,,,,,0.647,1,,,,,,,,,,,,,,m,1,0.647,,,,,,,,0.321661256,-0.29869708,0,0,0,,0,129,129,42,1,FOLDER,C,old,m,./images/FOLDER.png,,,,,,,,,,,,,,,,,,,,,,,,,,,,,,,,,,,
,,,,,,,,,,,,,,,,,5fb3224238ecb8a40fdd1685,44,2022-02-12_16h45.01.720,lexical_decision_task_DD,2021.2.3,Win32,60.09976561,,,,,,,,,,,0.8022,1,,,,,,,,,,,,,,z,1,0.8022,,,,,,,,0.321661256,-0.29869708,0,0,0,,0,130,130,98,1,BAMPS,LB,old,z,./images/BAMPSLB.png,,,,,,,,,,,,,,,,,,,,,,,,,,,,,,,,,,,
,,,,,,,,,,,,,,,,,5fb3224238ecb8a40fdd1685,44,2022-02-12_16h45.01.720,lexical_decision_task_DD,2021.2.3,Win32,60.09976561,,,,,,,,,,,0.6975,1,,,,,,,,,,,,,,m,1,0.6975,,,,,,,,0.321661256,-0.29869708,0,0,0,,0,131,131,18,1,JAGUAR,C,old,m,./images/JAGUAR.png,,,,,,,,,,,,,,,,,,,,,,,,,,,,,,,,,,,
,,,,,,,,,,,,,,,,,5fb3224238ecb8a40fdd1685,44,2022-02-12_16h45.01.720,lexical_decision_task_DD,2021.2.3,Win32,60.09976561,,,,,,,,,,,1.4393,1,,,,,,,,,,,,,,m,1,1.4393,,,,,,,,0.321661256,-0.29869708,0,0,0,,0,132,132,11,1,BONNET,LB,old,m,./images/BONNETLB.png,,,,,,,,,,,,,,,,,,,,,,,,,,,,,,,,,,,
,,,,,,,,,,,,,,,,,5fb3224238ecb8a40fdd1685,44,2022-02-12_16h45.01.720,lexical_decision_task_DD,2021.2.3,Win32,60.09976561,,,,,,,,,,,0.8004,1,,,,,,,,,,,,,,z,1,0.8004,,,,,,,,0.321661256,-0.29869708,0,0,0,,0,133,133,145,1,LAMEL,HB,old,z,./images/LAMELHB.png,,,,,,,,,,,,,,,,,,,,,,,,,,,,,,,,,,,
,,,,,,,,,,,,,,,,,5fb3224238ecb8a40fdd1685,44,2022-02-12_16h45.01.720,lexical_decision_task_DD,2021.2.3,Win32,60.09976561,,,,,,,,,,,0.7791,1,,,,,,,,,,,,,,m,1,0.7791,,,,,,,,0.321661256,-0.29869708,0,0,0,,0,134,134,62,1,PURSE,LB,old,m,./images/PURSELB.png,,,,,,,,,,,,,,,,,,,,,,,,,,,,,,,,,,,
,,,,,,,,,,,,,,,,,5fb3224238ecb8a40fdd1685,44,2022-02-12_16h45.01.720,lexical_decision_task_DD,2021.2.3,Win32,60.09976561,,,,,,,,,,,0.6794,1,,,,,,,,,,,,,,z,1,0.6794,,,,,,,,0.321661256,-0.29869708,0,0,0,,0,135,135,149,1,VEASE,LB,old,z,./images/VEASELB.png,,,,,,,,,,,,,,,,,,,,,,,,,,,,,,,,,,,
,,,,,,,,,,,,,,,,,5fb3224238ecb8a40fdd1685,44,2022-02-12_16h45.01.720,lexical_decision_task_DD,2021.2.3,Win32,60.09976561,,,,,,,,,,,0.6127,1,,,,,,,,,,,,,,m,1,0.6127,,,,,,,,0.321661256,-0.29869708,0,0,0,,0,136,136,56,1,PACKET,LB,old,m,./images/PACKETLB.png,,,,,,,,,,,,,,,,,,,,,,,,,,,,,,,,,,,
,,,,,,,,,,,,,,,,,5fb3224238ecb8a40fdd1685,44,2022-02-12_16h45.01.720,lexical_decision_task_DD,2021.2.3,Win32,60.09976561,,,,,,,,,,,0.6355,1,,,,,,,,,,,,,,m,1,0.6355,,,,,,,,0.321661256,-0.29869708,0,0,0,,0,137,137,68,1,TORCH,LB,old,m,./images/TORCHLB.png,,,,,,,,,,,,,,,,,,,,,,,,,,,,,,,,,,,
,,,,,,,,,,,,,,,,,5fb3224238ecb8a40fdd1685,44,2022-02-12_16h45.01.720,lexical_decision_task_DD,2021.2.3,Win32,60.09976561,,,,,,,,,,,0.6508,1,,,,,,,,,,,,,,m,1,0.6508,,,,,,,,0.321661256,-0.29869708,0,0,0,,0,138,138,13,1,MOTOR,HB,old,m,./images/MOTORHB.png,,,,,,,,,,,,,,,,,,,,,,,,,,,,,,,,,,,
,,,,,,,,,,,,,,,,,5fb3224238ecb8a40fdd1685,44,2022-02-12_16h45.01.720,lexical_decision_task_DD,2021.2.3,Win32,60.09976561,,,,,,,,,,,0.7102,1,,,,,,,,,,,,,,z,1,0.7102,,,,,,,,0.321661256,-0.29869708,0,0,0,,0,139,139,111,1,HOSSE,C,old,z,./images/HOSSE.png,,,,,,,,,,,,,,,,,,,,,,,,,,,,,,,,,,,
,,,,,,,,,,,,,,,,,5fb3224238ecb8a40fdd1685,44,2022-02-12_16h45.01.720,lexical_decision_task_DD,2021.2.3,Win32,60.09976561,,,,,,,,,,,0.6109,1,,,,,,,,,,,,,,m,1,0.6109,,,,,,,,0.321661256,-0.29869708,0,0,0,,0,140,140,35,1,PEACH,LB,old,m,./images/PEACHLB.png,,,,,,,,,,,,,,,,,,,,,,,,,,,,,,,,,,,
,,,,,,,,,,,,,,,,,5fb3224238ecb8a40fdd1685,44,2022-02-12_16h45.01.720,lexical_decision_task_DD,2021.2.3,Win32,60.09976561,,,,,,,,,,,0.9497,0,,,,,,,,,,,,,,z,0,0.9497,,,,,,,,0.321661256,-0.29869708,0,0,0,,0,141,141,67,1,SAILOR,HB,old,m,./images/SAILORHB.png,,,,,,,,,,,,,,,,,,,,,,,,,,,,,,,,,,,
,,,,,,,,,,,,,,,,,5fb3224238ecb8a40fdd1685,44,2022-02-12_16h45.01.720,lexical_decision_task_DD,2021.2.3,Win32,60.09976561,,,,,,,,,,,0.8299,1,,,,,,,,,,,,,,z,1,0.8299,,,,,,,,0.321661256,-0.29869708,0,0,0,,0,142,142,155,1,CANGY,LB,old,z,./images/CANGYLB.png,,,,,,,,,,,,,,,,,,,,,,,,,,,,,,,,,,,
,,,,,,,,,,,,,,,,,5fb3224238ecb8a40fdd1685,44,2022-02-12_16h45.01.720,lexical_decision_task_DD,2021.2.3,Win32,60.09976561,,,,,,,,,,,1.0561,1,,,,,,,,,,,,,,z,1,1.0561,,,,,,,,0.321661256,-0.29869708,0,0,0,,0,143,143,159,1,CUDDY,C,old,z,./images/CUDDY.png,,,,,,,,,,,,,,,,,,,,,,,,,,,,,,,,,,,
,,,,,,,,,,,,,,,,,5fb3224238ecb8a40fdd1685,44,2022-02-12_16h45.01.720,lexical_decision_task_DD,2021.2.3,Win32,60.09976561,,,,,,,,,,,0.7419,1,,,,,,,,,,,,,,m,1,0.7419,,,,,,,,0.321661256,-0.29869708,0,0,0,,0,144,144,10,1,BELLY,HB,old,m,./images/BELLYHB.png,,,,,,,,,,,,,,,,,,,,,,,,,,,,,,,,,,,
,,,,,,,,,,,,,,,,,5fb3224238ecb8a40fdd1685,44,2022-02-12_16h45.01.720,lexical_decision_task_DD,2021.2.3,Win32,60.09976561,,,,,,,,,,,0.7677,1,,,,,,,,,,,,,,m,1,0.7677,,,,,,,,0.321661256,-0.29869708,0,0,0,,0,145,145,72,1,NOOSE,C,old,m,./images/NOOSE.png,,,,,,,,,,,,,,,,,,,,,,,,,,,,,,,,,,,
,,,,,,,,,,,,,,,,,5fb3224238ecb8a40fdd1685,44,2022-02-12_16h45.01.720,lexical_decision_task_DD,2021.2.3,Win32,60.09976561,,,,,,,,,,,1.035,1,,,,,,,,,,,,,,z,1,1.035,,,,,,,,0.321661256,-0.29869708,0,0,0,,0,146,146,163,1,GAMBA,HB,old,z,./images/GAMBAHB.png,,,,,,,,,,,,,,,,,,,,,,,,,,,,,,,,,,,
,,,,,,,,,,,,,,,,,5fb3224238ecb8a40fdd1685,44,2022-02-12_16h45.01.720,lexical_decision_task_DD,2021.2.3,Win32,60.09976561,,,,,,,,,,,0.9379,1,,,,,,,,,,,,,,z,1,0.9379,,,,,,,,0.321661256,-0.29869708,0,0,0,,0,147,147,160,1,VEETS,HB,old,z,./images/VEETSHB.png,,,,,,,,,,,,,,,,,,,,,,,,,,,,,,,,,,,
,,,,,,,,,,,,,,,,,5fb3224238ecb8a40fdd1685,44,2022-02-12_16h45.01.720,lexical_decision_task_DD,2021.2.3,Win32,60.09976561,,,,,,,,,,,0.5965,1,,,,,,,,,,,,,,m,1,0.5965,,,,,,,,0.321661256,-0.29869708,0,0,0,,0,148,148,27,1,ATTIC,C,old,m,./images/ATTIC.png,,,,,,,,,,,,,,,,,,,,,,,,,,,,,,,,,,,
,,,,,,,,,,,,,,,,,5fb3224238ecb8a40fdd1685,44,2022-02-12_16h45.01.720,lexical_decision_task_DD,2021.2.3,Win32,60.09976561,,,,,,,,,,,0.6389,1,,,,,,,,,,,,,,m,1,0.6389,,,,,,,,0.321661256,-0.29869708,0,0,0,,0,149,149,63,1,MIRROR,C,old,m,./images/MIRROR.png,,,,,,,,,,,,,,,,,,,,,,,,,,,,,,,,,,,
,,,,,,,,,,,,,,,,,5fb3224238ecb8a40fdd1685,44,2022-02-12_16h45.01.720,lexical_decision_task_DD,2021.2.3,Win32,60.09976561,,,,,,,,,,,0.9045,1,,,,,,,,,,,,,,z,1,0.9045,,,,,,,,0.321661256,-0.29869708,0,0,0,,0,150,150,114,1,RIKES,C,old,z,./images/RIKES.png,,,,,,,,,,,,,,,,,,,,,,,,,,,,,,,,,,,
,,,,,,,,,,,,,,,,,5fb3224238ecb8a40fdd1685,44,2022-02-12_16h45.01.720,lexical_decision_task_DD,2021.2.3,Win32,60.09976561,,,,,,,,,,,1.0842,1,,,,,,,,,,,,,,m,1,1.0842,,,,,,,,0.321661256,-0.29869708,0,0,0,,0,151,151,76,1,INFANT,HB,old,m,./images/INFANTHB.png,,,,,,,,,,,,,,,,,,,,,,,,,,,,,,,,,,,
,,,,,,,,,,,,,,,,,5fb3224238ecb8a40fdd1685,44,2022-02-12_16h45.01.720,lexical_decision_task_DD,2021.2.3,Win32,60.09976561,,,,,,,,,,,0.8118,1,,,,,,,,,,,,,,m,1,0.8118,,,,,,,,0.321661256,-0.29869708,0,0,0,,0,152,152,58,1,BABOON,HB,old,m,./images/BABOONHB.png,,,,,,,,,,,,,,,,,,,,,,,,,,,,,,,,,,,
,,,,,,,,,,,,,,,,,5fb3224238ecb8a40fdd1685,44,2022-02-12_16h45.01.720,lexical_decision_task_DD,2021.2.3,Win32,60.09976561,,,,,,,,,,,1.2285,1,,,,,,,,,,,,,,z,1,1.2285,,,,,,,,0.321661256,-0.29869708,0,0,0,,0,153,153,157,1,INLER,HB,old,z,./images/INLERHB.png,,,,,,,,,,,,,,,,,,,,,,,,,,,,,,,,,,,
,,,,,,,,,,,,,,,,,5fb3224238ecb8a40fdd1685,44,2022-02-12_16h45.01.720,lexical_decision_task_DD,2021.2.3,Win32,60.09976561,,,,,,,,,,,0.7669,1,,,,,,,,,,,,,,z,1,0.7669,,,,,,,,0.321661256,-0.29869708,0,0,0,,0,154,154,162,1,LEICH,C,old,z,./images/LEICH.png,,,,,,,,,,,,,,,,,,,,,,,,,,,,,,,,,,,
,,,,,,,,,,,,,,,,,5fb3224238ecb8a40fdd1685,44,2022-02-12_16h45.01.720,lexical_decision_task_DD,2021.2.3,Win32,60.09976561,,,,,,,,,,,0.9103,1,,,,,,,,,,,,,,z,1,0.9103,,,,,,,,0.321661256,-0.29869708,0,0,0,,0,155,155,125,1,MOOKY,LB,old,z,./images/MOOKYLB.png,,,,,,,,,,,,,,,,,,,,,,,,,,,,,,,,,,,
,,,,,,,,,,,,,,,,,5fb3224238ecb8a40fdd1685,44,2022-02-12_16h45.01.720,lexical_decision_task_DD,2021.2.3,Win32,60.09976561,,,,,,,,,,,0.7184,1,,,,,,,,,,,,,,m,1,0.7184,,,,,,,,0.321661256,-0.29869708,0,0,0,,0,156,156,57,1,MOOSE,C,old,m,./images/MOOSE.png,,,,,,,,,,,,,,,,,,,,,,,,,,,,,,,,,,,
,,,,,,,,,,,,,,,,,5fb3224238ecb8a40fdd1685,44,2022-02-12_16h45.01.720,lexical_decision_task_DD,2021.2.3,Win32,60.09976561,,,,,,,,,,,1.0389,1,,,,,,,,,,,,,,z,1,1.0389,,,,,,,,0.321661256,-0.29869708,0,0,0,,0,157,157,106,1,CLUMS,HB,old,z,./images/CLUMSHB.png,,,,,,,,,,,,,,,,,,,,,,,,,,,,,,,,,,,
,,,,,,,,,,,,,,,,,5fb3224238ecb8a40fdd1685,44,2022-02-12_16h45.01.720,lexical_decision_task_DD,2021.2.3,Win32,60.09976561,,,,,,,,,,,0.6674,1,,,,,,,,,,,,,,m,1,0.6674,,,,,,,,0.321661256,-0.29869708,0,0,0,,0,158,158,2,1,BEARD,LB,old,m,./images/BEARDLB.png,,,,,,,,,,,,,,,,,,,,,,,,,,,,,,,,,,,
,,,,,,,,,,,,,,,,,5fb3224238ecb8a40fdd1685,44,2022-02-12_16h45.01.720,lexical_decision_task_DD,2021.2.3,Win32,60.09976561,,,,,,,,,,,1.0103,1,,,,,,,,,,,,,,z,1,1.0103,,,,,,,,0.321661256,-0.29869708,0,0,0,,0,159,159,130,1,CRILL,HB,old,z,./images/CRILLHB.png,,,,,,,,,,,,,,,,,,,,,,,,,,,,,,,,,,,
,,,,,,,,,,,,,,,,,5fb3224238ecb8a40fdd1685,44,2022-02-12_16h45.01.720,lexical_decision_task_DD,2021.2.3,Win32,60.09976561,,,,,,,,,,,0.6486,1,,,,,,,,,,,,,,m,1,0.6486,,,,,,,,0.321661256,-0.29869708,0,0,0,,0,160,160,53,1,CARPET,LB,old,m,./images/CARPETLB.png,,,,,,,,,,,,,,,,,,,,,,,,,,,,,,,,,,,
,,,,,,,,,,,,,,,,,5fb3224238ecb8a40fdd1685,44,2022-02-12_16h45.01.720,lexical_decision_task_DD,2021.2.3,Win32,60.09976561,,,,,,,,,,,0.7115,1,,,,,,,,,,,,,,m,1,0.7115,,,,,,,,0.321661256,-0.29869708,0,0,0,,0,161,161,83,1,JUNGLE,LB,old,m,./images/JUNGLELB.png,,,,,,,,,,,,,,,,,,,,,,,,,,,,,,,,,,,
,,,,,,,,,,,,,,,,,5fb3224238ecb8a40fdd1685,44,2022-02-12_16h45.01.720,lexical_decision_task_DD,2021.2.3,Win32,60.09976561,,,,,,,,,,,0.6935,1,,,,,,,,,,,,,,z,1,0.6935,,,,,,,,0.321661256,-0.29869708,0,0,0,,0,162,162,99,1,BACKY,C,old,z,./images/BACKY.png,,,,,,,,,,,,,,,,,,,,,,,,,,,,,,,,,,,
,,,,,,,,,,,,,,,,,5fb3224238ecb8a40fdd1685,44,2022-02-12_16h45.01.720,lexical_decision_task_DD,2021.2.3,Win32,60.09976561,,,,,,,,,,,0.9184,1,,,,,,,,,,,,,,z,1,0.9184,,,,,,,,0.321661256,-0.29869708,0,0,0,,0,163,163,139,1,BLEAR,HB,old,z,./images/BLEARHB.png,,,,,,,,,,,,,,,,,,,,,,,,,,,,,,,,,,,
,,,,,,,,,,,,,,,,,5fb3224238ecb8a40fdd1685,44,2022-02-12_16h45.01.720,lexical_decision_task_DD,2021.2.3,Win32,60.09976561,,,,,,,,,,,0.8545,1,,,,,,,,,,,,,,z,1,0.8545,,,,,,,,0.321661256,-0.29869708,0,0,0,,0,164,164,113,1,LINEW,LB,old,z,./images/LINEWLB.png,,,,,,,,,,,,,,,,,,,,,,,,,,,,,,,,,,,
,,,,,,,,,,,,,,,,,5fb3224238ecb8a40fdd1685,44,2022-02-12_16h45.01.720,lexical_decision_task_DD,2021.2.3,Win32,60.09976561,,,,,,,,,,,0.8839,1,,,,,,,,,,,,,,m,1,0.8839,,,,,,,,0.321661256,-0.29869708,0,0,0,,0,165,165,4,1,MUSCLE,HB,old,m,./images/MUSCLEHB.png,,,,,,,,,,,,,,,,,,,,,,,,,,,,,,,,,,,
,,,,,,,,,,,,,,,,,5fb3224238ecb8a40fdd1685,44,2022-02-12_16h45.01.720,lexical_decision_task_DD,2021.2.3,Win32,60.09976561,,,,,,,,,,,0.8077,1,,,,,,,,,,,,,,m,1,0.8077,,,,,,,,0.321661256,-0.29869708,0,0,0,,0,166,166,49,1,DRUMS,HB,old,m,./images/DRUMSHB.png,,,,,,,,,,,,,,,,,,,,,,,,,,,,,,,,,,,
,,,,,,,,,,,,,,,,,5fb3224238ecb8a40fdd1685,44,2022-02-12_16h45.01.720,lexical_decision_task_DD,2021.2.3,Win32,60.09976561,,,,,,,,,,,0.9103,1,,,,,,,,,,,,,,z,1,0.9103,,,,,,,,0.321661256,-0.29869708,0,0,0,,0,167,167,148,1,JOMS,HB,old,z,./images/JOMSHB.png,,,,,,,,,,,,,,,,,,,,,,,,,,,,,,,,,,,
,,,,,,,,,,,,,,,,,5fb3224238ecb8a40fdd1685,44,2022-02-12_16h45.01.720,lexical_decision_task_DD,2021.2.3,Win32,60.09976561,,,,,,,,,,,,,,,,,,,,,,,,,,,,,,,,,,,,,,,,,,,,,,,,How likely will it be that you will recognize the words presented very blurred on a scale of 0 (not likely) to 100 (most likely)?,,,,,0.021986984,-0.400325746,1,0,0,jol_adv,4,16.0294,0,0,0,2,1,,,,,,,,,,,,,,,,,,,,,
,,,,,,,,,,,,,,,,,5fb3224238ecb8a40fdd1685,44,2022-02-12_16h45.01.720,lexical_decision_task_DD,2021.2.3,Win32,60.09976561,,,,,,,,,,,,,,,,,,,,,,,,,,,,,,,,,,,,,,,,,,,,,,,,How likely will it be that you will recognize the words presented clearly on a scale of 0 (not likely) to 100 (most likely)?,,,,,,,,,,,6,9.3878,0,1,1,0,1,,,,,,,,,,,,,,,,,,,,,
,,,,,,,,,,,,,,,,,5fb3224238ecb8a40fdd1685,44,2022-02-12_16h45.01.720,lexical_decision_task_DD,2021.2.3,Win32,60.09976561,,,,,,,,,,,,,,,,,,,,,,,,,,,,,,,,,,,,,,,,,,,,,,,,How likely will it be that you will recognize the words presented slighly blurred on a scale of 0 (not likely) to 100 (most likely)?,,,,,,,,,,,6,5.0019,0,2,2,1,1,,,,,,,,,,,,,,,,,,,,,
,,0.145765488,-0.391205225,1,0,0,,,,,,1,test,"In the next phase you will be presented with the words from the the first phase. Your job is to decide whether you remember seeing the word or not. If you remember seeing the word press ""old"" or type ""m"". If you do not remember seeing the word press ""new"" or type ""z"". Please press the space bar or click on continue to begin. ",,,5fb3224238ecb8a40fdd1685,44,2022-02-12_16h45.01.720,lexical_decision_task_DD,2021.2.3,Win32,60.09976561,,,,,,,,,,,,,,,,,,,,,,,,,,,,,,,,,,,,,,,,,,,,,,,,,,,,,,,,,,,,,,,,,,instr_done_button,0,0,0,0,1,,,,,,,,,,,,,,,
space,2.7004,0.145765488,-0.391205225,0,0,0,,,,,,1,test,"In the next phase you will be presented with the words from the the first phase. Your job is to decide whether you remember seeing the word or not. If you remember seeing the word press ""old"" or type ""m"". If you do not remember seeing the word press ""new"" or type ""z"". Please press the space bar or click on continue to begin. ",,,5fb3224238ecb8a40fdd1685,44,2022-02-12_16h45.01.720,lexical_decision_task_DD,2021.2.3,Win32,60.09976561,,,,,,,,,,,,,,,,,,,,,,,,,,,,,,,,,,,,,,,,,,,,,,,,,,,,,,,,,,,,,,,,,,,1,0,1,0,1,,,,,,,,,,,,,,,
space,3.8631,0.145765488,-0.391205225,0,0,0,,,,,,1,test,"In the next phase you will be presented with the words from the the first phase. Your job is to decide whether you remember seeing the word or not. If you remember seeing the word press ""old"" or type ""m"". If you do not remember seeing the word press ""new"" or type ""z"". Please press the space bar or click on continue to begin. ",,,5fb3224238ecb8a40fdd1685,44,2022-02-12_16h45.01.720,lexical_decision_task_DD,2021.2.3,Win32,60.09976561,,,,,,,,,,,,,,,,,,,,,,,,,,,,,,,,,,,,,,,,,,,,,,,,,,,,,,,,,,,,,,,,,,,2,0,2,0,1,,,,,,,,,,,,,,,
,,-0.00537458,-0.397719883,1,0,0,,,,,,1,test,"In the next phase you will be presented with the words from the the first phase. Your job is to decide whether you remember seeing the word or not. If you remember seeing the word press ""old"" or type ""m"". If you do not remember seeing the word press ""new"" or type ""z"". Please press the space bar or click on continue to begin. ",,,5fb3224238ecb8a40fdd1685,44,2022-02-12_16h45.01.720,lexical_decision_task_DD,2021.2.3,Win32,60.09976561,,,,,,,,,,,,,,,,,,,,,,,,,,,,,,,,,,,,,,,,,,,,,,,,,,,,,,,,,,,,,,,,,,instr_done_button,3,0,3,0,1,,,,,,,,,,,,,,,
,,-0.00537458,-0.405537473,1,0,0,,,,,,1,test,"In the next phase you will be presented with the words from the the first phase. Your job is to decide whether you remember seeing the word or not. If you remember seeing the word press ""old"" or type ""m"". If you do not remember seeing the word press ""new"" or type ""z"". Please press the space bar or click on continue to begin. ",,,5fb3224238ecb8a40fdd1685,44,2022-02-12_16h45.01.720,lexical_decision_task_DD,2021.2.3,Win32,60.09976561,,,,,,,,,,,,,,,,,,,,,,,,,,,,,,,,,,,,,,,,,,,,,,,,,,,,,,,,,,,,,,,,,,instr_done_button,4,0,4,0,1,,,,,,,,,,,,,,,
,,,,,,,,,,,,,,,,,5fb3224238ecb8a40fdd1685,44,2022-02-12_16h45.01.720,lexical_decision_task_DD,2021.2.3,Win32,60.09976561,,,,,,,,,,,1.3962,0,,,,,,,,,,,,,,,,,,,,,,,,0.003745942,-0.40293161,0,0,0,,,,,,,COLLAR,C,z,m,./images/COLLAR.png,,,,,,,,,,,,,,,,,,,,,m,0,1.3962,,,,,,,,0,0,0,99,1
,,,,,,,,,,,,,,,,,5fb3224238ecb8a40fdd1685,44,2022-02-12_16h45.01.720,lexical_decision_task_DD,2021.2.3,Win32,60.09976561,,,,,,,,,,,0.8651,0,,,,,,,,,,,,,,,,,,,,,,,,0.003745942,-0.40293161,0,0,0,,,,,,,PARADE,LB,z,m,./images/PARADELB.png,,,,,,,,,,,,,,,,,,,,,m,0,0.8651,,,,,,,,0,1,1,101,1
,,,,,,,,,,,,,,,,,5fb3224238ecb8a40fdd1685,44,2022-02-12_16h45.01.720,lexical_decision_task_DD,2021.2.3,Win32,60.09976561,,,,,,,,,,,1.5366,1,,,,,,,,,,,,,,,,,,,,,,,,0.003745942,-0.40293161,0,0,0,,,,,,,SCREW,C,m,m,./images/SCREW.png,,,,,,,,,,,,,,,,,,,,,m,1,1.5366,,,,,,,,0,2,2,24,1
,,,,,,,,,,,,,,,,,5fb3224238ecb8a40fdd1685,44,2022-02-12_16h45.01.720,lexical_decision_task_DD,2021.2.3,Win32,60.09976561,,,,,,,,,,,0.6814,1,,,,,,,,,,,,,,,,,,,,,,,,0.003745942,-0.40293161,0,0,0,,,,,,,BONNET,LB,m,m,./images/BONNETLB.png,,,,,,,,,,,,,,,,,,,,,m,1,0.6814,,,,,,,,0,3,3,11,1
,,,,,,,,,,,,,,,,,5fb3224238ecb8a40fdd1685,44,2022-02-12_16h45.01.720,lexical_decision_task_DD,2021.2.3,Win32,60.09976561,,,,,,,,,,,1.033,0,,,,,,,,,,,,,,,,,,,,,,,,0.003745942,-0.40293161,0,0,0,,,,,,,CLOTH,LB,z,m,./images/CLOTHLB.png,,,,,,,,,,,,,,,,,,,,,m,0,1.033,,,,,,,,0,4,4,107,1
,,,,,,,,,,,,,,,,,5fb3224238ecb8a40fdd1685,44,2022-02-12_16h45.01.720,lexical_decision_task_DD,2021.2.3,Win32,60.09976561,,,,,,,,,,,0.9304,0,,,,,,,,,,,,,,,,,,,,,,,,0.003745942,-0.40293161,0,0,0,,,,,,,BAKER,C,z,m,./images/BAKER.png,,,,,,,,,,,,,,,,,,,,,m,0,0.9304,,,,,,,,0,5,5,147,1
,,,,,,,,,,,,,,,,,5fb3224238ecb8a40fdd1685,44,2022-02-12_16h45.01.720,lexical_decision_task_DD,2021.2.3,Win32,60.09976561,,,,,,,,,,,0.8149,0,,,,,,,,,,,,,,,,,,,,,,,,0.003745942,-0.40293161,0,0,0,,,,,,,SHIELD,C,z,m,./images/SHIELD.png,,,,,,,,,,,,,,,,,,,,,m,0,0.8149,,,,,,,,0,6,6,132,1
,,,,,,,,,,,,,,,,,5fb3224238ecb8a40fdd1685,44,2022-02-12_16h45.01.720,lexical_decision_task_DD,2021.2.3,Win32,60.09976561,,,,,,,,,,,0.8091,0,,,,,,,,,,,,,,,,,,,,,,,,0.003745942,-0.40293161,0,0,0,,,,,,,MUMMY,HB,z,m,./images/MUMMYHB.png,,,,,,,,,,,,,,,,,,,,,m,0,0.8091,,,,,,,,0,7,7,130,1
,,,,,,,,,,,,,,,,,5fb3224238ecb8a40fdd1685,44,2022-02-12_16h45.01.720,lexical_decision_task_DD,2021.2.3,Win32,60.09976561,,,,,,,,,,,1.0979,0,,,,,,,,,,,,,,,,,,,,,,,,0.003745942,-0.40293161,0,0,0,,,,,,,MALLET,LB,m,m,./images/MALLETLB.png,,,,,,,,,,,,,,,,,,,,,z,0,1.0979,,,,,,,,0,8,8,50,1
,,,,,,,,,,,,,,,,,5fb3224238ecb8a40fdd1685,44,2022-02-12_16h45.01.720,lexical_decision_task_DD,2021.2.3,Win32,60.09976561,,,,,,,,,,,0.8836,1,,,,,,,,,,,,,,,,,,,,,,,,0.003745942,-0.40293161,0,0,0,,,,,,,MOOSE,C,m,m,./images/MOOSE.png,,,,,,,,,,,,,,,,,,,,,m,1,0.8836,,,,,,,,0,9,9,57,1
,,,,,,,,,,,,,,,,,5fb3224238ecb8a40fdd1685,44,2022-02-12_16h45.01.720,lexical_decision_task_DD,2021.2.3,Win32,60.09976561,,,,,,,,,,,0.6825,1,,,,,,,,,,,,,,,,,,,,,,,,0.003745942,-0.40293161,0,0,0,,,,,,,RHINO,C,m,m,./images/RHINO.png,,,,,,,,,,,,,,,,,,,,,m,1,0.6825,,,,,,,,0,10,10,9,1
,,,,,,,,,,,,,,,,,5fb3224238ecb8a40fdd1685,44,2022-02-12_16h45.01.720,lexical_decision_task_DD,2021.2.3,Win32,60.09976561,,,,,,,,,,,0.9815,0,,,,,,,,,,,,,,,,,,,,,,,,0.003745942,-0.40293161,0,0,0,,,,,,,DONKEY,HB,z,m,./images/DONKEYHB.png,,,,,,,,,,,,,,,,,,,,,m,0,0.9815,,,,,,,,0,11,11,103,1
,,,,,,,,,,,,,,,,,5fb3224238ecb8a40fdd1685,44,2022-02-12_16h45.01.720,lexical_decision_task_DD,2021.2.3,Win32,60.09976561,,,,,,,,,,,0.8752,0,,,,,,,,,,,,,,,,,,,,,,,,0.003745942,-0.40293161,0,0,0,,,,,,,SLOPE,C,z,m,./images/SLOPE.png,,,,,,,,,,,,,,,,,,,,,m,0,0.8752,,,,,,,,0,12,12,114,1
,,,,,,,,,,,,,,,,,5fb3224238ecb8a40fdd1685,44,2022-02-12_16h45.01.720,lexical_decision_task_DD,2021.2.3,Win32,60.09976561,,,,,,,,,,,1.2657,1,,,,,,,,,,,,,,,,,,,,,,,,0.003745942,-0.40293161,0,0,0,,,,,,,BURIAL,LB,m,m,./images/BURIALLB.png,,,,,,,,,,,,,,,,,,,,,m,1,1.2657,,,,,,,,0,13,13,59,1
,,,,,,,,,,,,,,,,,5fb3224238ecb8a40fdd1685,44,2022-02-12_16h45.01.720,lexical_decision_task_DD,2021.2.3,Win32,60.09976561,,,,,,,,,,,1.0141,1,,,,,,,,,,,,,,,,,,,,,,,,0.003745942,-0.40293161,0,0,0,,,,,,,TOMATO,C,m,m,./images/TOMATO.png,,,,,,,,,,,,,,,,,,,,,m,1,1.0141,,,,,,,,0,14,14,0,1
,,,,,,,,,,,,,,,,,5fb3224238ecb8a40fdd1685,44,2022-02-12_16h45.01.720,lexical_decision_task_DD,2021.2.3,Win32,60.09976561,,,,,,,,,,,0.7722,1,,,,,,,,,,,,,,,,,,,,,,,,0.003745942,-0.40293161,0,0,0,,,,,,,PISTOL,LB,z,m,./images/PISTOLLB.png,,,,,,,,,,,,,,,,,,,,,z,1,0.7722,,,,,,,,0,15,15,113,1
,,,,,,,,,,,,,,,,,5fb3224238ecb8a40fdd1685,44,2022-02-12_16h45.01.720,lexical_decision_task_DD,2021.2.3,Win32,60.09976561,,,,,,,,,,,1.1106,1,,,,,,,,,,,,,,,,,,,,,,,,0.003745942,-0.40293161,0,0,0,,,,,,,MUFFIN,HB,m,m,./images/MUFFINHB.png,,,,,,,,,,,,,,,,,,,,,m,1,1.1106,,,,,,,,0,16,16,55,1
,,,,,,,,,,,,,,,,,5fb3224238ecb8a40fdd1685,44,2022-02-12_16h45.01.720,lexical_decision_task_DD,2021.2.3,Win32,60.09976561,,,,,,,,,,,1.4089,0,,,,,,,,,,,,,,,,,,,,,,,,0.003745942,-0.40293161,0,0,0,,,,,,,FERRY,C,z,m,./images/FERRY.png,,,,,,,,,,,,,,,,,,,,,m,0,1.4089,,,,,,,,0,17,17,141,1
,,,,,,,,,,,,,,,,,5fb3224238ecb8a40fdd1685,44,2022-02-12_16h45.01.720,lexical_decision_task_DD,2021.2.3,Win32,60.09976561,,,,,,,,,,,0.7454,1,,,,,,,,,,,,,,,,,,,,,,,,0.003745942,-0.40293161,0,0,0,,,,,,,PAINT,HB,m,m,./images/PAINTHB.png,,,,,,,,,,,,,,,,,,,,,m,1,0.7454,,,,,,,,0,18,18,7,1
,,,,,,,,,,,,,,,,,5fb3224238ecb8a40fdd1685,44,2022-02-12_16h45.01.720,lexical_decision_task_DD,2021.2.3,Win32,60.09976561,,,,,,,,,,,1.056,1,,,,,,,,,,,,,,,,,,,,,,,,0.003745942,-0.40293161,0,0,0,,,,,,,BANNER,HB,m,m,./images/BANNERHB.png,,,,,,,,,,,,,,,,,,,,,m,1,1.056,,,,,,,,0,19,19,52,1
,,,,,,,,,,,,,,,,,5fb3224238ecb8a40fdd1685,44,2022-02-12_16h45.01.720,lexical_decision_task_DD,2021.2.3,Win32,60.09976561,,,,,,,,,,,0.9665,0,,,,,,,,,,,,,,,,,,,,,,,,0.003745942,-0.40293161,0,0,0,,,,,,,GARDEN,HB,z,m,./images/GARDENHB.png,,,,,,,,,,,,,,,,,,,,,m,0,0.9665,,,,,,,,0,20,20,94,1
,,,,,,,,,,,,,,,,,5fb3224238ecb8a40fdd1685,44,2022-02-12_16h45.01.720,lexical_decision_task_DD,2021.2.3,Win32,60.09976561,,,,,,,,,,,0.8058,1,,,,,,,,,,,,,,,,,,,,,,,,0.003745942,-0.40293161,0,0,0,,,,,,,TWINS,C,m,m,./images/TWINS.png,,,,,,,,,,,,,,,,,,,,,m,1,0.8058,,,,,,,,0,21,21,60,1
,,,,,,,,,,,,,,,,,5fb3224238ecb8a40fdd1685,44,2022-02-12_16h45.01.720,lexical_decision_task_DD,2021.2.3,Win32,60.09976561,,,,,,,,,,,0.8176,1,,,,,,,,,,,,,,,,,,,,,,,,0.003745942,-0.40293161,0,0,0,,,,,,,MAGGOT,C,m,m,./images/MAGGOT.png,,,,,,,,,,,,,,,,,,,,,m,1,0.8176,,,,,,,,0,22,22,33,1
,,,,,,,,,,,,,,,,,5fb3224238ecb8a40fdd1685,44,2022-02-12_16h45.01.720,lexical_decision_task_DD,2021.2.3,Win32,60.09976561,,,,,,,,,,,0.6673,1,,,,,,,,,,,,,,,,,,,,,,,,0.003745942,-0.40293161,0,0,0,,,,,,,CANYON,HB,m,m,./images/CANYONHB.png,,,,,,,,,,,,,,,,,,,,,m,1,0.6673,,,,,,,,0,23,23,34,1
,,,,,,,,,,,,,,,,,5fb3224238ecb8a40fdd1685,44,2022-02-12_16h45.01.720,lexical_decision_task_DD,2021.2.3,Win32,60.09976561,,,,,,,,,,,1.2633,0,,,,,,,,,,,,,,,,,,,,,,,,0.003745942,-0.40293161,0,0,0,,,,,,,CLOUD,LB,z,m,./images/CLOUDLB.png,,,,,,,,,,,,,,,,,,,,,m,0,1.2633,,,,,,,,0,24,24,110,1
,,,,,,,,,,,,,,,,,5fb3224238ecb8a40fdd1685,44,2022-02-12_16h45.01.720,lexical_decision_task_DD,2021.2.3,Win32,60.09976561,,,,,,,,,,,0.755,1,,,,,,,,,,,,,,,,,,,,,,,,0.003745942,-0.40293161,0,0,0,,,,,,,COUCH,LB,m,m,./images/COUCHLB.png,,,,,,,,,,,,,,,,,,,,,m,1,0.755,,,,,,,,0,25,25,77,1
,,,,,,,,,,,,,,,,,5fb3224238ecb8a40fdd1685,44,2022-02-12_16h45.01.720,lexical_decision_task_DD,2021.2.3,Win32,60.09976561,,,,,,,,,,,0.8186,0,,,,,,,,,,,,,,,,,,,,,,,,0.003745942,-0.40293161,0,0,0,,,,,,,WAGON,HB,z,m,./images/WAGONHB.png,,,,,,,,,,,,,,,,,,,,,m,0,0.8186,,,,,,,,0,26,26,91,1
,,,,,,,,,,,,,,,,,5fb3224238ecb8a40fdd1685,44,2022-02-12_16h45.01.720,lexical_decision_task_DD,2021.2.3,Win32,60.09976561,,,,,,,,,,,0.7825,1,,,,,,,,,,,,,,,,,,,,,,,,0.003745942,-0.40293161,0,0,0,,,,,,,WEASEL,LB,m,m,./images/WEASELLB.png,,,,,,,,,,,,,,,,,,,,,m,1,0.7825,,,,,,,,0,27,27,80,1
,,,,,,,,,,,,,,,,,5fb3224238ecb8a40fdd1685,44,2022-02-12_16h45.01.720,lexical_decision_task_DD,2021.2.3,Win32,60.09976561,,,,,,,,,,,1.3725,0,,,,,,,,,,,,,,,,,,,,,,,,0.003745942,-0.40293161,0,0,0,,,,,,,GRANNY,LB,z,m,./images/GRANNYLB.png,,,,,,,,,,,,,,,,,,,,,m,0,1.3725,,,,,,,,0,28,28,104,1
,,,,,,,,,,,,,,,,,5fb3224238ecb8a40fdd1685,44,2022-02-12_16h45.01.720,lexical_decision_task_DD,2021.2.3,Win32,60.09976561,,,,,,,,,,,0.7827,1,,,,,,,,,,,,,,,,,,,,,,,,0.003745942,-0.40293161,0,0,0,,,,,,,WRIST,HB,m,m,./images/WRISTHB.png,,,,,,,,,,,,,,,,,,,,,m,1,0.7827,,,,,,,,0,29,29,25,1
,,,,,,,,,,,,,,,,,5fb3224238ecb8a40fdd1685,44,2022-02-12_16h45.01.720,lexical_decision_task_DD,2021.2.3,Win32,60.09976561,,,,,,,,,,,0.7331,1,,,,,,,,,,,,,,,,,,,,,,,,0.003745942,-0.40293161,0,0,0,,,,,,,CANDLE,HB,m,m,./images/CANDLEHB.png,,,,,,,,,,,,,,,,,,,,,m,1,0.7331,,,,,,,,0,30,30,61,1
,,,,,,,,,,,,,,,,,5fb3224238ecb8a40fdd1685,44,2022-02-12_16h45.01.720,lexical_decision_task_DD,2021.2.3,Win32,60.09976561,,,,,,,,,,,0.79,0,,,,,,,,,,,,,,,,,,,,,,,,0.003745942,-0.40293161,0,0,0,,,,,,,HEATER,LB,z,m,./images/HEATERLB.png,,,,,,,,,,,,,,,,,,,,,m,0,0.79,,,,,,,,0,31,31,140,1
,,,,,,,,,,,,,,,,,5fb3224238ecb8a40fdd1685,44,2022-02-12_16h45.01.720,lexical_decision_task_DD,2021.2.3,Win32,60.09976561,,,,,,,,,,,0.888,1,,,,,,,,,,,,,,,,,,,,,,,,0.003745942,-0.40293161,0,0,0,,,,,,,LITTER,C,m,m,./images/LITTER.png,,,,,,,,,,,,,,,,,,,,,m,1,0.888,,,,,,,,0,32,32,78,1
,,,,,,,,,,,,,,,,,5fb3224238ecb8a40fdd1685,44,2022-02-12_16h45.01.720,lexical_decision_task_DD,2021.2.3,Win32,60.09976561,,,,,,,,,,,0.918,1,,,,,,,,,,,,,,,,,,,,,,,,0.003745942,-0.40293161,0,0,0,,,,,,,SAUNA,C,z,m,./images/SAUNA.png,,,,,,,,,,,,,,,,,,,,,z,1,0.918,,,,,,,,0,33,33,117,1
,,,,,,,,,,,,,,,,,5fb3224238ecb8a40fdd1685,44,2022-02-12_16h45.01.720,lexical_decision_task_DD,2021.2.3,Win32,60.09976561,,,,,,,,,,,0.9988,0,,,,,,,,,,,,,,,,,,,,,,,,0.003745942,-0.40293161,0,0,0,,,,,,,MIDGET,HB,z,m,./images/MIDGETHB.png,,,,,,,,,,,,,,,,,,,,,m,0,0.9988,,,,,,,,0,34,34,160,1
,,,,,,,,,,,,,,,,,5fb3224238ecb8a40fdd1685,44,2022-02-12_16h45.01.720,lexical_decision_task_DD,2021.2.3,Win32,60.09976561,,,,,,,,,,,0.6499,1,,,,,,,,,,,,,,,,,,,,,,,,0.003745942,-0.40293161,0,0,0,,,,,,,URINE,HB,m,m,./images/URINEHB.png,,,,,,,,,,,,,,,,,,,,,m,1,0.6499,,,,,,,,0,35,35,70,1
,,,,,,,,,,,,,,,,,5fb3224238ecb8a40fdd1685,44,2022-02-12_16h45.01.720,lexical_decision_task_DD,2021.2.3,Win32,60.09976561,,,,,,,,,,,0.6937,1,,,,,,,,,,,,,,,,,,,,,,,,0.003745942,-0.40293161,0,0,0,,,,,,,ONION,C,m,m,./images/ONION.png,,,,,,,,,,,,,,,,,,,,,m,1,0.6937,,,,,,,,0,36,36,51,1
,,,,,,,,,,,,,,,,,5fb3224238ecb8a40fdd1685,44,2022-02-12_16h45.01.720,lexical_decision_task_DD,2021.2.3,Win32,60.09976561,,,,,,,,,,,0.6329,0,,,,,,,,,,,,,,,,,,,,,,,,0.003745942,-0.40293161,0,0,0,,,,,,,STOOL,HB,z,m,./images/STOOLHB.png,,,,,,,,,,,,,,,,,,,,,m,0,0.6329,,,,,,,,0,37,37,127,1
,,,,,,,,,,,,,,,,,5fb3224238ecb8a40fdd1685,44,2022-02-12_16h45.01.720,lexical_decision_task_DD,2021.2.3,Win32,60.09976561,,,,,,,,,,,1.0522,1,,,,,,,,,,,,,,,,,,,,,,,,0.003745942,-0.40293161,0,0,0,,,,,,,TRIPOD,C,m,m,./images/TRIPOD.png,,,,,,,,,,,,,,,,,,,,,m,1,1.0522,,,,,,,,0,38,38,54,1
,,,,,,,,,,,,,,,,,5fb3224238ecb8a40fdd1685,44,2022-02-12_16h45.01.720,lexical_decision_task_DD,2021.2.3,Win32,60.09976561,,,,,,,,,,,0.6657,0,,,,,,,,,,,,,,,,,,,,,,,,0.003745942,-0.40293161,0,0,0,,,,,,,PARCEL,C,z,m,./images/PARCEL.png,,,,,,,,,,,,,,,,,,,,,m,0,0.6657,,,,,,,,0,39,39,102,1
,,,,,,,,,,,,,,,,,5fb3224238ecb8a40fdd1685,44,2022-02-12_16h45.01.720,lexical_decision_task_DD,2021.2.3,Win32,60.09976561,,,,,,,,,,,0.7673,1,,,,,,,,,,,,,,,,,,,,,,,,0.003745942,-0.40293161,0,0,0,,,,,,,QUILL,HB,m,m,./images/QUILLHB.png,,,,,,,,,,,,,,,,,,,,,m,1,0.7673,,,,,,,,0,40,40,31,1
,,,,,,,,,,,,,,,,,5fb3224238ecb8a40fdd1685,44,2022-02-12_16h45.01.720,lexical_decision_task_DD,2021.2.3,Win32,60.09976561,,,,,,,,,,,0.6471,1,,,,,,,,,,,,,,,,,,,,,,,,0.003745942,-0.40293161,0,0,0,space,,,,,,BELLY,HB,m,m,./images/BELLYHB.png,7.7825,,,,,,,,,,,,,,,,,,,,m,1,0.6471,,,,,,,,0,41,41,10,1
,,,,,,,,,,,,,,,,,5fb3224238ecb8a40fdd1685,44,2022-02-12_16h45.01.720,lexical_decision_task_DD,2021.2.3,Win32,60.09976561,,,,,,,,,,,0.765,1,,,,,,,,,,,,,,,,,,,,,,,,0.003745942,-0.40293161,0,0,0,,,,,,,PACKET,LB,m,m,./images/PACKETLB.png,,,,,,,,,,,,,,,,,,,,,m,1,0.765,,,,,,,,0,42,42,56,1
,,,,,,,,,,,,,,,,,5fb3224238ecb8a40fdd1685,44,2022-02-12_16h45.01.720,lexical_decision_task_DD,2021.2.3,Win32,60.09976561,,,,,,,,,,,0.7057,0,,,,,,,,,,,,,,,,,,,,,,,,0.003745942,-0.40293161,0,0,0,,,,,,,BUNNY,HB,z,m,./images/BUNNYHB.png,,,,,,,,,,,,,,,,,,,,,m,0,0.7057,,,,,,,,0,43,43,97,1
,,,,,,,,,,,,,,,,,5fb3224238ecb8a40fdd1685,44,2022-02-12_16h45.01.720,lexical_decision_task_DD,2021.2.3,Win32,60.09976561,,,,,,,,,,,0.6188,1,,,,,,,,,,,,,,,,,,,,,,,,0.003745942,-0.40293161,0,0,0,,,,,,,JAGUAR,C,m,m,./images/JAGUAR.png,,,,,,,,,,,,,,,,,,,,,m,1,0.6188,,,,,,,,0,44,44,18,1
,,,,,,,,,,,,,,,,,5fb3224238ecb8a40fdd1685,44,2022-02-12_16h45.01.720,lexical_decision_task_DD,2021.2.3,Win32,60.09976561,,,,,,,,,,,0.7416,1,,,,,,,,,,,,,,,,,,,,,,,,0.003745942,-0.40293161,0,0,0,,,,,,,TORCH,LB,m,m,./images/TORCHLB.png,,,,,,,,,,,,,,,,,,,,,m,1,0.7416,,,,,,,,0,45,45,68,1
,,,,,,,,,,,,,,,,,5fb3224238ecb8a40fdd1685,44,2022-02-12_16h45.01.720,lexical_decision_task_DD,2021.2.3,Win32,60.09976561,,,,,,,,,,,1.1632,1,,,,,,,,,,,,,,,,,,,,,,,,0.003745942,-0.40293161,0,0,0,,,,,,,PLANET,LB,z,m,./images/PLANETLB.png,,,,,,,,,,,,,,,,,,,,,z,1,1.1632,,,,,,,,0,46,46,164,1
,,,,,,,,,,,,,,,,,5fb3224238ecb8a40fdd1685,44,2022-02-12_16h45.01.720,lexical_decision_task_DD,2021.2.3,Win32,60.09976561,,,,,,,,,,,0.882,1,,,,,,,,,,,,,,,,,,,,,,,,0.003745942,-0.40293161,0,0,0,,,,,,,FARMER,LB,m,m,./images/FARMERLB.png,,,,,,,,,,,,,,,,,,,,,m,1,0.882,,,,,,,,0,47,47,65,1
,,,,,,,,,,,,,,,,,5fb3224238ecb8a40fdd1685,44,2022-02-12_16h45.01.720,lexical_decision_task_DD,2021.2.3,Win32,60.09976561,,,,,,,,,,,0.7473,0,,,,,,,,,,,,,,,,,,,,,,,,0.003745942,-0.40293161,0,0,0,,,,,,,STEAK,HB,z,m,./images/STEAKHB.png,,,,,,,,,,,,,,,,,,,,,m,0,0.7473,,,,,,,,0,48,48,115,1
,,,,,,,,,,,,,,,,,5fb3224238ecb8a40fdd1685,44,2022-02-12_16h45.01.720,lexical_decision_task_DD,2021.2.3,Win32,60.09976561,,,,,,,,,,,1.0643,0,,,,,,,,,,,,,,,,,,,,,,,,0.003745942,-0.40293161,0,0,0,,,,,,,JUMPER,LB,z,m,./images/JUMPERLB.png,,,,,,,,,,,,,,,,,,,,,m,0,1.0643,,,,,,,,0,49,49,158,1
,,,,,,,,,,,,,,,,,5fb3224238ecb8a40fdd1685,44,2022-02-12_16h45.01.720,lexical_decision_task_DD,2021.2.3,Win32,60.09976561,,,,,,,,,,,0.6599,1,,,,,,,,,,,,,,,,,,,,,,,,0.003745942,-0.40293161,0,0,0,,,,,,,NOOSE,C,m,m,./images/NOOSE.png,,,,,,,,,,,,,,,,,,,,,m,1,0.6599,,,,,,,,0,50,50,72,1
,,,,,,,,,,,,,,,,,5fb3224238ecb8a40fdd1685,44,2022-02-12_16h45.01.720,lexical_decision_task_DD,2021.2.3,Win32,60.09976561,,,,,,,,,,,1.1374,1,,,,,,,,,,,,,,,,,,,,,,,,0.003745942,-0.40293161,0,0,0,,,,,,,PENCE,HB,m,m,./images/PENCEHB.png,,,,,,,,,,,,,,,,,,,,,m,1,1.1374,,,,,,,,0,51,51,16,1
,,,,,,,,,,,,,,,,,5fb3224238ecb8a40fdd1685,44,2022-02-12_16h45.01.720,lexical_decision_task_DD,2021.2.3,Win32,60.09976561,,,,,,,,,,,2.3969,1,,,,,,,,,,,,,,,,,,,,,,,,0.003745942,-0.40293161,0,0,0,,,,,,,SWEAT,C,m,m,./images/SWEAT.png,,,,,,,,,,,,,,,,,,,,,m,1,2.3969,,,,,,,,0,52,52,66,1
,,,,,,,,,,,,,,,,,5fb3224238ecb8a40fdd1685,44,2022-02-12_16h45.01.720,lexical_decision_task_DD,2021.2.3,Win32,60.09976561,,,,,,,,,,,1.1585,1,,,,,,,,,,,,,,,,,,,,,,,,0.003745942,-0.40293161,0,0,0,,,,,,,GRAPE,HB,z,m,./images/GRAPEHB.png,,,,,,,,,,,,,,,,,,,,,z,1,1.1585,,,,,,,,0,53,53,100,1
,,,,,,,,,,,,,,,,,5fb3224238ecb8a40fdd1685,44,2022-02-12_16h45.01.720,lexical_decision_task_DD,2021.2.3,Win32,60.09976561,,,,,,,,,,,1.1632,1,,,,,,,,,,,,,,,,,,,,,,,,0.003745942,-0.40293161,0,0,0,,,,,,,BROOM,C,z,m,./images/BROOM.png,,,,,,,,,,,,,,,,,,,,,z,1,1.1632,,,,,,,,0,54,54,162,1
,,,,,,,,,,,,,,,,,5fb3224238ecb8a40fdd1685,44,2022-02-12_16h45.01.720,lexical_decision_task_DD,2021.2.3,Win32,60.09976561,,,,,,,,,,,0.8631,0,,,,,,,,,,,,,,,,,,,,,,,,0.003745942,-0.40293161,0,0,0,,,,,,,BRUSH,LB,z,m,./images/BRUSHLB.png,,,,,,,,,,,,,,,,,,,,,m,0,0.8631,,,,,,,,0,55,55,143,1
,,,,,,,,,,,,,,,,,5fb3224238ecb8a40fdd1685,44,2022-02-12_16h45.01.720,lexical_decision_task_DD,2021.2.3,Win32,60.09976561,,,,,,,,,,,0.9811,1,,,,,,,,,,,,,,,,,,,,,,,,0.003745942,-0.40293161,0,0,0,,,,,,,STRING,LB,m,m,./images/STRINGLB.png,,,,,,,,,,,,,,,,,,,,,m,1,0.9811,,,,,,,,0,56,56,41,1
,,,,,,,,,,,,,,,,,5fb3224238ecb8a40fdd1685,44,2022-02-12_16h45.01.720,lexical_decision_task_DD,2021.2.3,Win32,60.09976561,,,,,,,,,,,1.5699,0,,,,,,,,,,,,,,,,,,,,,,,,0.003745942,-0.40293161,0,0,0,,,,,,,PASTA,LB,m,m,./images/PASTALB.png,,,,,,,,,,,,,,,,,,,,,z,0,1.5699,,,,,,,,0,57,57,5,1
,,,,,,,,,,,,,,,,,5fb3224238ecb8a40fdd1685,44,2022-02-12_16h45.01.720,lexical_decision_task_DD,2021.2.3,Win32,60.09976561,,,,,,,,,,,0.7395,0,,,,,,,,,,,,,,,,,,,,,,,,0.003745942,-0.40293161,0,0,0,,,,,,,ARROW,C,z,m,./images/ARROW.png,,,,,,,,,,,,,,,,,,,,,m,0,0.7395,,,,,,,,0,58,58,153,1
,,,,,,,,,,,,,,,,,5fb3224238ecb8a40fdd1685,44,2022-02-12_16h45.01.720,lexical_decision_task_DD,2021.2.3,Win32,60.09976561,,,,,,,,,,,0.7348,1,,,,,,,,,,,,,,,,,,,,,,,,0.003745942,-0.40293161,0,0,0,,,,,,,CEMENT,LB,m,m,./images/CEMENTLB.png,,,,,,,,,,,,,,,,,,,,,m,1,0.7348,,,,,,,,0,59,59,74,1
,,,,,,,,,,,,,,,,,5fb3224238ecb8a40fdd1685,44,2022-02-12_16h45.01.720,lexical_decision_task_DD,2021.2.3,Win32,60.09976561,,,,,,,,,,,0.84,1,,,,,,,,,,,,,,,,,,,,,,,,0.003745942,-0.40293161,0,0,0,,,,,,,MOSQUE,HB,m,m,./images/MOSQUEHB.png,,,,,,,,,,,,,,,,,,,,,m,1,0.84,,,,,,,,0,60,60,43,1
,,,,,,,,,,,,,,,,,5fb3224238ecb8a40fdd1685,44,2022-02-12_16h45.01.720,lexical_decision_task_DD,2021.2.3,Win32,60.09976561,,,,,,,,,,,0.6801,0,,,,,,,,,,,,,,,,,,,,,,,,0.003745942,-0.40293161,0,0,0,,,,,,,STREAM,LB,z,m,./images/STREAMLB.png,,,,,,,,,,,,,,,,,,,,,m,0,0.6801,,,,,,,,0,61,61,125,1
,,,,,,,,,,,,,,,,,5fb3224238ecb8a40fdd1685,44,2022-02-12_16h45.01.720,lexical_decision_task_DD,2021.2.3,Win32,60.09976561,,,,,,,,,,,0.6562,0,,,,,,,,,,,,,,,,,,,,,,,,0.003745942,-0.40293161,0,0,0,,,,,,,PILOT,LB,z,m,./images/PILOTLB.png,,,,,,,,,,,,,,,,,,,,,m,0,0.6562,,,,,,,,0,62,62,134,1
,,,,,,,,,,,,,,,,,5fb3224238ecb8a40fdd1685,44,2022-02-12_16h45.01.720,lexical_decision_task_DD,2021.2.3,Win32,60.09976561,,,,,,,,,,,0.8825,0,,,,,,,,,,,,,,,,,,,,,,,,0.003745942,-0.40293161,0,0,0,,,,,,,PEBBLE,HB,z,m,./images/PEBBLEHB.png,,,,,,,,,,,,,,,,,,,,,m,0,0.8825,,,,,,,,0,63,63,166,1
,,,,,,,,,,,,,,,,,5fb3224238ecb8a40fdd1685,44,2022-02-12_16h45.01.720,lexical_decision_task_DD,2021.2.3,Win32,60.09976561,,,,,,,,,,,0.6917,1,,,,,,,,,,,,,,,,,,,,,,,,0.003745942,-0.40293161,0,0,0,,,,,,,JELLY,HB,m,m,./images/JELLYHB.png,,,,,,,,,,,,,,,,,,,,,m,1,0.6917,,,,,,,,0,64,64,64,1
,,,,,,,,,,,,,,,,,5fb3224238ecb8a40fdd1685,44,2022-02-12_16h45.01.720,lexical_decision_task_DD,2021.2.3,Win32,60.09976561,,,,,,,,,,,1.041,1,,,,,,,,,,,,,,,,,,,,,,,,0.003745942,-0.40293161,0,0,0,,,,,,,LIZARD,LB,m,m,./images/LIZARDLB.png,,,,,,,,,,,,,,,,,,,,,m,1,1.041,,,,,,,,0,65,65,44,1
,,,,,,,,,,,,,,,,,5fb3224238ecb8a40fdd1685,44,2022-02-12_16h45.01.720,lexical_decision_task_DD,2021.2.3,Win32,60.09976561,,,,,,,,,,,0.6422,1,,,,,,,,,,,,,,,,,,,,,,,,0.003745942,-0.40293161,0,0,0,,,,,,,POODLE,C,m,m,./images/POODLE.png,,,,,,,,,,,,,,,,,,,,,m,1,0.6422,,,,,,,,0,66,66,81,1
,,,,,,,,,,,,,,,,,5fb3224238ecb8a40fdd1685,44,2022-02-12_16h45.01.720,lexical_decision_task_DD,2021.2.3,Win32,60.09976561,,,,,,,,,,,0.682,0,,,,,,,,,,,,,,,,,,,,,,,,0.003745942,-0.40293161,0,0,0,,,,,,,CASINO,HB,z,m,./images/CASINOHB.png,,,,,,,,,,,,,,,,,,,,,m,0,0.682,,,,,,,,0,67,67,112,1
,,,,,,,,,,,,,,,,,5fb3224238ecb8a40fdd1685,44,2022-02-12_16h45.01.720,lexical_decision_task_DD,2021.2.3,Win32,60.09976561,,,,,,,,,,,0.6603,1,,,,,,,,,,,,,,,,,,,,,,,,0.003745942,-0.40293161,0,0,0,,,,,,,KITTEN,C,m,m,./images/KITTEN.png,,,,,,,,,,,,,,,,,,,,,m,1,0.6603,,,,,,,,0,68,68,45,1
,,,,,,,,,,,,,,,,,5fb3224238ecb8a40fdd1685,44,2022-02-12_16h45.01.720,lexical_decision_task_DD,2021.2.3,Win32,60.09976561,,,,,,,,,,,0.9875,1,,,,,,,,,,,,,,,,,,,,,,,,0.003745942,-0.40293161,0,0,0,,,,,,,THROAT,C,m,m,./images/THROAT.png,,,,,,,,,,,,,,,,,,,,,m,1,0.9875,,,,,,,,0,69,69,36,1
,,,,,,,,,,,,,,,,,5fb3224238ecb8a40fdd1685,44,2022-02-12_16h45.01.720,lexical_decision_task_DD,2021.2.3,Win32,60.09976561,,,,,,,,,,,0.8548,1,,,,,,,,,,,,,,,,,,,,,,,,0.003745942,-0.40293161,0,0,0,,,,,,,KIDNEY,C,m,m,./images/KIDNEY.png,,,,,,,,,,,,,,,,,,,,,m,1,0.8548,,,,,,,,0,70,70,21,1
,,,,,,,,,,,,,,,,,5fb3224238ecb8a40fdd1685,44,2022-02-12_16h45.01.720,lexical_decision_task_DD,2021.2.3,Win32,60.09976561,,,,,,,,,,,0.6467,1,,,,,,,,,,,,,,,,,,,,,,,,0.003745942,-0.40293161,0,0,0,,,,,,,ATTIC,C,m,m,./images/ATTIC.png,,,,,,,,,,,,,,,,,,,,,m,1,0.6467,,,,,,,,0,71,71,27,1
,,,,,,,,,,,,,,,,,5fb3224238ecb8a40fdd1685,44,2022-02-12_16h45.01.720,lexical_decision_task_DD,2021.2.3,Win32,60.09976561,,,,,,,,,,,0.7375,1,,,,,,,,,,,,,,,,,,,,,,,,0.003745942,-0.40293161,0,0,0,,,,,,,SKIING,LB,m,m,./images/SKIINGLB.png,,,,,,,,,,,,,,,,,,,,,m,1,0.7375,,,,,,,,0,72,72,17,1
,,,,,,,,,,,,,,,,,5fb3224238ecb8a40fdd1685,44,2022-02-12_16h45.01.720,lexical_decision_task_DD,2021.2.3,Win32,60.09976561,,,,,,,,,,,1.0303,0,,,,,,,,,,,,,,,,,,,,,,,,0.003745942,-0.40293161,0,0,0,,,,,,,CLIFF,LB,z,m,./images/CLIFFLB.png,,,,,,,,,,,,,,,,,,,,,m,0,1.0303,,,,,,,,0,73,73,92,1
,,,,,,,,,,,,,,,,,5fb3224238ecb8a40fdd1685,44,2022-02-12_16h45.01.720,lexical_decision_task_DD,2021.2.3,Win32,60.09976561,,,,,,,,,,,0.7155,1,,,,,,,,,,,,,,,,,,,,,,,,0.003745942,-0.40293161,0,0,0,,,,,,,PICKLE,LB,m,m,./images/PICKLELB.png,,,,,,,,,,,,,,,,,,,,,m,1,0.7155,,,,,,,,0,74,74,14,1
,,,,,,,,,,,,,,,,,5fb3224238ecb8a40fdd1685,44,2022-02-12_16h45.01.720,lexical_decision_task_DD,2021.2.3,Win32,60.09976561,,,,,,,,,,,0.8348,0,,,,,,,,,,,,,,,,,,,,,,,,0.003745942,-0.40293161,0,0,0,,,,,,,ALLEY,HB,z,m,./images/ALLEYHB.png,,,,,,,,,,,,,,,,,,,,,m,0,0.8348,,,,,,,,0,75,75,139,1
,,,,,,,,,,,,,,,,,5fb3224238ecb8a40fdd1685,44,2022-02-12_16h45.01.720,lexical_decision_task_DD,2021.2.3,Win32,60.09976561,,,,,,,,,,,0.8474,1,,,,,,,,,,,,,,,,,,,,,,,,0.003745942,-0.40293161,0,0,0,,,,,,,CRADLE,LB,m,m,./images/CRADLELB.png,,,,,,,,,,,,,,,,,,,,,m,1,0.8474,,,,,,,,0,76,76,20,1
,,,,,,,,,,,,,,,,,5fb3224238ecb8a40fdd1685,44,2022-02-12_16h45.01.720,lexical_decision_task_DD,2021.2.3,Win32,60.09976561,,,,,,,,,,,0.9148,1,,,,,,,,,,,,,,,,,,,,,,,,0.003745942,-0.40293161,0,0,0,,,,,,,PLANK,HB,m,m,./images/PLANKHB.png,,,,,,,,,,,,,,,,,,,,,m,1,0.9148,,,,,,,,0,77,77,1,1
,,,,,,,,,,,,,,,,,5fb3224238ecb8a40fdd1685,44,2022-02-12_16h45.01.720,lexical_decision_task_DD,2021.2.3,Win32,60.09976561,,,,,,,,,,,0.6191,1,,,,,,,,,,,,,,,,,,,,,,,,0.003745942,-0.40293161,0,0,0,,,,,,,PURSE,LB,m,m,./images/PURSELB.png,,,,,,,,,,,,,,,,,,,,,m,1,0.6191,,,,,,,,0,78,78,62,1
,,,,,,,,,,,,,,,,,5fb3224238ecb8a40fdd1685,44,2022-02-12_16h45.01.720,lexical_decision_task_DD,2021.2.3,Win32,60.09976561,,,,,,,,,,,0.7714,1,,,,,,,,,,,,,,,,,,,,,,,,0.003745942,-0.40293161,0,0,0,,,,,,,GREASE,C,m,m,./images/GREASE.png,,,,,,,,,,,,,,,,,,,,,m,1,0.7714,,,,,,,,0,79,79,15,1
,,,,,,,,,,,,,,,,,5fb3224238ecb8a40fdd1685,44,2022-02-12_16h45.01.720,lexical_decision_task_DD,2021.2.3,Win32,60.09976561,,,,,,,,,,,0.6696,0,,,,,,,,,,,,,,,,,,,,,,,,0.003745942,-0.40293161,0,0,0,,,,,,,RULER,HB,z,m,./images/RULERHB.png,,,,,,,,,,,,,,,,,,,,,m,0,0.6696,,,,,,,,0,80,80,163,1
,,,,,,,,,,,,,,,,,5fb3224238ecb8a40fdd1685,44,2022-02-12_16h45.01.720,lexical_decision_task_DD,2021.2.3,Win32,60.09976561,,,,,,,,,,,0.5938,1,,,,,,,,,,,,,,,,,,,,,,,,0.003745942,-0.40293161,0,0,0,,,,,,,MIRROR,C,m,m,./images/MIRROR.png,,,,,,,,,,,,,,,,,,,,,m,1,0.5938,,,,,,,,0,81,81,63,1
,,,,,,,,,,,,,,,,,5fb3224238ecb8a40fdd1685,44,2022-02-12_16h45.01.720,lexical_decision_task_DD,2021.2.3,Win32,60.09976561,,,,,,,,,,,0.7174,0,,,,,,,,,,,,,,,,,,,,,,,,0.003745942,-0.40293161,0,0,0,,,,,,,ARTIST,HB,z,m,./images/ARTISTHB.png,,,,,,,,,,,,,,,,,,,,,m,0,0.7174,,,,,,,,0,82,82,145,1
,,,,,,,,,,,,,,,,,5fb3224238ecb8a40fdd1685,44,2022-02-12_16h45.01.720,lexical_decision_task_DD,2021.2.3,Win32,60.09976561,,,,,,,,,,,0.4499,0,,,,,,,,,,,,,,,,,,,,,,,,0.003745942,-0.40293161,0,0,0,space,,,,,,POSTER,LB,z,m,./images/POSTERLB.png,6.9432,,,,,,,,,,,,,,,,,,,,m,0,0.4499,,,,,,,,0,83,83,137,1
,,,,,,,,,,,,,,,,,5fb3224238ecb8a40fdd1685,44,2022-02-12_16h45.01.720,lexical_decision_task_DD,2021.2.3,Win32,60.09976561,,,,,,,,,,,1.4011,1,,,,,,,,,,,,,,,,,,,,,,,,0.003745942,-0.40293161,0,0,0,,,,,,,STOVE,LB,z,m,./images/STOVELB.png,,,,,,,,,,,,,,,,,,,,,z,1,1.4011,,,,,,,,0,84,84,86,1
,,,,,,,,,,,,,,,,,5fb3224238ecb8a40fdd1685,44,2022-02-12_16h45.01.720,lexical_decision_task_DD,2021.2.3,Win32,60.09976561,,,,,,,,,,,0.6392,1,,,,,,,,,,,,,,,,,,,,,,,,0.003745942,-0.40293161,0,0,0,,,,,,,PEARL,HB,m,m,./images/PEARLHB.png,,,,,,,,,,,,,,,,,,,,,m,1,0.6392,,,,,,,,0,85,85,46,1
,,,,,,,,,,,,,,,,,5fb3224238ecb8a40fdd1685,44,2022-02-12_16h45.01.720,lexical_decision_task_DD,2021.2.3,Win32,60.09976561,,,,,,,,,,,1.0476,0,,,,,,,,,,,,,,,,,,,,,,,,0.003745942,-0.40293161,0,0,0,,,,,,,LAGOON,LB,z,m,./images/LAGOONLB.png,,,,,,,,,,,,,,,,,,,,,m,0,1.0476,,,,,,,,0,86,86,131,1
,,,,,,,,,,,,,,,,,5fb3224238ecb8a40fdd1685,44,2022-02-12_16h45.01.720,lexical_decision_task_DD,2021.2.3,Win32,60.09976561,,,,,,,,,,,1.0058,1,,,,,,,,,,,,,,,,,,,,,,,,0.003745942,-0.40293161,0,0,0,,,,,,,PIMPLE,LB,m,m,./images/PIMPLELB.png,,,,,,,,,,,,,,,,,,,,,m,1,1.0058,,,,,,,,0,87,87,71,1
,,,,,,,,,,,,,,,,,5fb3224238ecb8a40fdd1685,44,2022-02-12_16h45.01.720,lexical_decision_task_DD,2021.2.3,Win32,60.09976561,,,,,,,,,,,0.7471,1,,,,,,,,,,,,,,,,,,,,,,,,0.003745942,-0.40293161,0,0,0,,,,,,,BABOON,HB,m,m,./images/BABOONHB.png,,,,,,,,,,,,,,,,,,,,,m,1,0.7471,,,,,,,,0,88,88,58,1
,,,,,,,,,,,,,,,,,5fb3224238ecb8a40fdd1685,44,2022-02-12_16h45.01.720,lexical_decision_task_DD,2021.2.3,Win32,60.09976561,,,,,,,,,,,0.9634,0,,,,,,,,,,,,,,,,,,,,,,,,0.003745942,-0.40293161,0,0,0,,,,,,,DESERT,HB,z,m,./images/DESERTHB.png,,,,,,,,,,,,,,,,,,,,,m,0,0.9634,,,,,,,,0,89,89,136,1
,,,,,,,,,,,,,,,,,5fb3224238ecb8a40fdd1685,44,2022-02-12_16h45.01.720,lexical_decision_task_DD,2021.2.3,Win32,60.09976561,,,,,,,,,,,0.619,0,,,,,,,,,,,,,,,,,,,,,,,,0.003745942,-0.40293161,0,0,0,,,,,,,SNAKE,HB,z,m,./images/SNAKEHB.png,,,,,,,,,,,,,,,,,,,,,m,0,0.619,,,,,,,,0,90,90,124,1
,,,,,,,,,,,,,,,,,5fb3224238ecb8a40fdd1685,44,2022-02-12_16h45.01.720,lexical_decision_task_DD,2021.2.3,Win32,60.09976561,,,,,,,,,,,0.6363,0,,,,,,,,,,,,,,,,,,,,,,,,0.003745942,-0.40293161,0,0,0,,,,,,,FENCE,LB,z,m,./images/FENCELB.png,,,,,,,,,,,,,,,,,,,,,m,0,0.6363,,,,,,,,0,91,91,98,1
,,,,,,,,,,,,,,,,,5fb3224238ecb8a40fdd1685,44,2022-02-12_16h45.01.720,lexical_decision_task_DD,2021.2.3,Win32,60.09976561,,,,,,,,,,,0.9013,0,,,,,,,,,,,,,,,,,,,,,,,,0.003745942,-0.40293161,0,0,0,,,,,,,MEDAL,LB,z,m,./images/MEDALLB.png,,,,,,,,,,,,,,,,,,,,,m,0,0.9013,,,,,,,,0,92,92,95,1
,,,,,,,,,,,,,,,,,5fb3224238ecb8a40fdd1685,44,2022-02-12_16h45.01.720,lexical_decision_task_DD,2021.2.3,Win32,60.09976561,,,,,,,,,,,0.533,0,,,,,,,,,,,,,,,,,,,,,,,,0.003745942,-0.40293161,0,0,0,,,,,,,BOXER,HB,z,m,./images/BOXERHB.png,,,,,,,,,,,,,,,,,,,,,m,0,0.533,,,,,,,,0,93,93,88,1
,,,,,,,,,,,,,,,,,5fb3224238ecb8a40fdd1685,44,2022-02-12_16h45.01.720,lexical_decision_task_DD,2021.2.3,Win32,60.09976561,,,,,,,,,,,1.0523,0,,,,,,,,,,,,,,,,,,,,,,,,0.003745942,-0.40293161,0,0,0,,,,,,,BUBBLE,LB,z,m,./images/BUBBLELB.png,,,,,,,,,,,,,,,,,,,,,m,0,1.0523,,,,,,,,0,94,94,155,1
,,,,,,,,,,,,,,,,,5fb3224238ecb8a40fdd1685,44,2022-02-12_16h45.01.720,lexical_decision_task_DD,2021.2.3,Win32,60.09976561,,,,,,,,,,,0.5964,0,,,,,,,,,,,,,,,,,,,,,,,,0.003745942,-0.40293161,0,0,0,,,,,,,FLASK,C,z,m,./images/FLASK.png,,,,,,,,,,,,,,,,,,,,,m,0,0.5964,,,,,,,,0,95,95,156,1
,,,,,,,,,,,,,,,,,5fb3224238ecb8a40fdd1685,44,2022-02-12_16h45.01.720,lexical_decision_task_DD,2021.2.3,Win32,60.09976561,,,,,,,,,,,0.9181,1,,,,,,,,,,,,,,,,,,,,,,,,0.003745942,-0.40293161,0,0,0,,,,,,,CRUST,HB,m,m,./images/CRUSTHB.png,,,,,,,,,,,,,,,,,,,,,m,1,0.9181,,,,,,,,0,96,96,79,1
,,,,,,,,,,,,,,,,,5fb3224238ecb8a40fdd1685,44,2022-02-12_16h45.01.720,lexical_decision_task_DD,2021.2.3,Win32,60.09976561,,,,,,,,,,,0.5151,1,,,,,,,,,,,,,,,,,,,,,,,,0.003745942,-0.40293161,0,0,0,,,,,,,DRUMS,HB,m,m,./images/DRUMSHB.png,,,,,,,,,,,,,,,,,,,,,m,1,0.5151,,,,,,,,0,97,97,49,1
,,,,,,,,,,,,,,,,,5fb3224238ecb8a40fdd1685,44,2022-02-12_16h45.01.720,lexical_decision_task_DD,2021.2.3,Win32,60.09976561,,,,,,,,,,,0.5373,1,,,,,,,,,,,,,,,,,,,,,,,,0.003745942,-0.40293161,0,0,0,,,,,,,SAILOR,HB,m,m,./images/SAILORHB.png,,,,,,,,,,,,,,,,,,,,,m,1,0.5373,,,,,,,,0,98,98,67,1
,,,,,,,,,,,,,,,,,5fb3224238ecb8a40fdd1685,44,2022-02-12_16h45.01.720,lexical_decision_task_DD,2021.2.3,Win32,60.09976561,,,,,,,,,,,0.5657,1,,,,,,,,,,,,,,,,,,,,,,,,0.003745942,-0.40293161,0,0,0,,,,,,,PEACH,LB,m,m,./images/PEACHLB.png,,,,,,,,,,,,,,,,,,,,,m,1,0.5657,,,,,,,,0,99,99,35,1
,,,,,,,,,,,,,,,,,5fb3224238ecb8a40fdd1685,44,2022-02-12_16h45.01.720,lexical_decision_task_DD,2021.2.3,Win32,60.09976561,,,,,,,,,,,0.3656,0,,,,,,,,,,,,,,,,,,,,,,,,0.003745942,-0.40293161,0,0,0,,,,,,,POKER,HB,z,m,./images/POKERHB.png,,,,,,,,,,,,,,,,,,,,,m,0,0.3656,,,,,,,,0,100,100,151,1
,,,,,,,,,,,,,,,,,5fb3224238ecb8a40fdd1685,44,2022-02-12_16h45.01.720,lexical_decision_task_DD,2021.2.3,Win32,60.09976561,,,,,,,,,,,0.4513,1,,,,,,,,,,,,,,,,,,,,,,,,0.003745942,-0.40293161,0,0,0,,,,,,,SHORE,C,m,m,./images/SHORE.png,,,,,,,,,,,,,,,,,,,,,m,1,0.4513,,,,,,,,0,101,101,12,1
,,,,,,,,,,,,,,,,,5fb3224238ecb8a40fdd1685,44,2022-02-12_16h45.01.720,lexical_decision_task_DD,2021.2.3,Win32,60.09976561,,,,,,,,,,,0.4678,1,,,,,,,,,,,,,,,,,,,,,,,,0.003745942,-0.40293161,0,0,0,,,,,,,LADDER,LB,m,m,./images/LADDERLB.png,,,,,,,,,,,,,,,,,,,,,m,1,0.4678,,,,,,,,0,102,102,38,1
,,,,,,,,,,,,,,,,,5fb3224238ecb8a40fdd1685,44,2022-02-12_16h45.01.720,lexical_decision_task_DD,2021.2.3,Win32,60.09976561,,,,,,,,,,,0.5483,1,,,,,,,,,,,,,,,,,,,,,,,,0.003745942,-0.40293161,0,0,0,,,,,,,SUNSET,HB,m,m,./images/SUNSETHB.png,,,,,,,,,,,,,,,,,,,,,m,1,0.5483,,,,,,,,0,103,103,82,1
,,,,,,,,,,,,,,,,,5fb3224238ecb8a40fdd1685,44,2022-02-12_16h45.01.720,lexical_decision_task_DD,2021.2.3,Win32,60.09976561,,,,,,,,,,,0.5041,0,,,,,,,,,,,,,,,,,,,,,,,,0.003745942,-0.40293161,0,0,0,,,,,,,CANDY,C,z,m,./images/CANDY.png,,,,,,,,,,,,,,,,,,,,,m,0,0.5041,,,,,,,,0,104,104,123,1
,,,,,,,,,,,,,,,,,5fb3224238ecb8a40fdd1685,44,2022-02-12_16h45.01.720,lexical_decision_task_DD,2021.2.3,Win32,60.09976561,,,,,,,,,,,0.3672,0,,,,,,,,,,,,,,,,,,,,,,,,0.003745942,-0.40293161,0,0,0,,,,,,,HOCKEY,LB,z,m,./images/HOCKEYLB.png,,,,,,,,,,,,,,,,,,,,,m,0,0.3672,,,,,,,,0,105,105,116,1
,,,,,,,,,,,,,,,,,5fb3224238ecb8a40fdd1685,44,2022-02-12_16h45.01.720,lexical_decision_task_DD,2021.2.3,Win32,60.09976561,,,,,,,,,,,0.3558,1,,,,,,,,,,,,,,,,,,,,,,,,0.003745942,-0.40293161,0,0,0,,,,,,,MOTOR,HB,m,m,./images/MOTORHB.png,,,,,,,,,,,,,,,,,,,,,m,1,0.3558,,,,,,,,0,106,106,13,1
,,,,,,,,,,,,,,,,,5fb3224238ecb8a40fdd1685,44,2022-02-12_16h45.01.720,lexical_decision_task_DD,2021.2.3,Win32,60.09976561,,,,,,,,,,,0.7197,1,,,,,,,,,,,,,,,,,,,,,,,,0.003745942,-0.40293161,0,0,0,,,,,,,CRATER,C,z,m,./images/CRATER.png,,,,,,,,,,,,,,,,,,,,,z,1,0.7197,,,,,,,,0,107,107,87,1
,,,,,,,,,,,,,,,,,5fb3224238ecb8a40fdd1685,44,2022-02-12_16h45.01.720,lexical_decision_task_DD,2021.2.3,Win32,60.09976561,,,,,,,,,,,0.6396,1,,,,,,,,,,,,,,,,,,,,,,,,0.003745942,-0.40293161,0,0,0,,,,,,,BERRY,LB,m,m,./images/BERRYLB.png,,,,,,,,,,,,,,,,,,,,,m,1,0.6396,,,,,,,,0,108,108,47,1
,,,,,,,,,,,,,,,,,5fb3224238ecb8a40fdd1685,44,2022-02-12_16h45.01.720,lexical_decision_task_DD,2021.2.3,Win32,60.09976561,,,,,,,,,,,0.557,0,,,,,,,,,,,,,,,,,,,,,,,,0.003745942,-0.40293161,0,0,0,,,,,,,SPINE,LB,z,m,./images/SPINELB.png,,,,,,,,,,,,,,,,,,,,,m,0,0.557,,,,,,,,0,109,109,149,1
,,,,,,,,,,,,,,,,,5fb3224238ecb8a40fdd1685,44,2022-02-12_16h45.01.720,lexical_decision_task_DD,2021.2.3,Win32,60.09976561,,,,,,,,,,,0.7529,0,,,,,,,,,,,,,,,,,,,,,,,,0.003745942,-0.40293161,0,0,0,,,,,,,WALNUT,C,z,m,./images/WALNUT.png,,,,,,,,,,,,,,,,,,,,,m,0,0.7529,,,,,,,,0,110,110,84,1
,,,,,,,,,,,,,,,,,5fb3224238ecb8a40fdd1685,44,2022-02-12_16h45.01.720,lexical_decision_task_DD,2021.2.3,Win32,60.09976561,,,,,,,,,,,0.5129,0,,,,,,,,,,,,,,,,,,,,,,,,0.003745942,-0.40293161,0,0,0,,,,,,,ENGINE,LB,z,m,./images/ENGINELB.png,,,,,,,,,,,,,,,,,,,,,m,0,0.5129,,,,,,,,0,111,111,122,1
,,,,,,,,,,,,,,,,,5fb3224238ecb8a40fdd1685,44,2022-02-12_16h45.01.720,lexical_decision_task_DD,2021.2.3,Win32,60.09976561,,,,,,,,,,,0.7393,0,,,,,,,,,,,,,,,,,,,,,,,,0.003745942,-0.40293161,0,0,0,,,,,,,WHEEL,LB,z,m,./images/WHEELLB.png,,,,,,,,,,,,,,,,,,,,,m,0,0.7393,,,,,,,,0,112,112,161,1
,,,,,,,,,,,,,,,,,5fb3224238ecb8a40fdd1685,44,2022-02-12_16h45.01.720,lexical_decision_task_DD,2021.2.3,Win32,60.09976561,,,,,,,,,,,1.0031,1,,,,,,,,,,,,,,,,,,,,,,,,0.003745942,-0.40293161,0,0,0,,,,,,,JUNGLE,LB,m,m,./images/JUNGLELB.png,,,,,,,,,,,,,,,,,,,,,m,1,1.0031,,,,,,,,0,113,113,83,1
,,,,,,,,,,,,,,,,,5fb3224238ecb8a40fdd1685,44,2022-02-12_16h45.01.720,lexical_decision_task_DD,2021.2.3,Win32,60.09976561,,,,,,,,,,,0.6178,0,,,,,,,,,,,,,,,,,,,,,,,,0.003745942,-0.40293161,0,0,0,,,,,,,BANANA,HB,z,m,./images/BANANAHB.png,,,,,,,,,,,,,,,,,,,,,m,0,0.6178,,,,,,,,0,114,114,154,1
,,,,,,,,,,,,,,,,,5fb3224238ecb8a40fdd1685,44,2022-02-12_16h45.01.720,lexical_decision_task_DD,2021.2.3,Win32,60.09976561,,,,,,,,,,,0.6139,0,,,,,,,,,,,,,,,,,,,,,,,,0.003745942,-0.40293161,0,0,0,,,,,,,BUTTER,C,z,m,./images/BUTTER.png,,,,,,,,,,,,,,,,,,,,,m,0,0.6139,,,,,,,,0,115,115,111,1
,,,,,,,,,,,,,,,,,5fb3224238ecb8a40fdd1685,44,2022-02-12_16h45.01.720,lexical_decision_task_DD,2021.2.3,Win32,60.09976561,,,,,,,,,,,0.5806,0,,,,,,,,,,,,,,,,,,,,,,,,0.003745942,-0.40293161,0,0,0,,,,,,,TOWEL,HB,z,m,./images/TOWELHB.png,,,,,,,,,,,,,,,,,,,,,m,0,0.5806,,,,,,,,0,116,116,85,1
,,,,,,,,,,,,,,,,,5fb3224238ecb8a40fdd1685,44,2022-02-12_16h45.01.720,lexical_decision_task_DD,2021.2.3,Win32,60.09976561,,,,,,,,,,,0.6478,0,,,,,,,,,,,,,,,,,,,,,,,,0.003745942,-0.40293161,0,0,0,,,,,,,WHISKY,LB,z,m,./images/WHISKYLB.png,,,,,,,,,,,,,,,,,,,,,m,0,0.6478,,,,,,,,0,117,117,167,1
,,,,,,,,,,,,,,,,,5fb3224238ecb8a40fdd1685,44,2022-02-12_16h45.01.720,lexical_decision_task_DD,2021.2.3,Win32,60.09976561,,,,,,,,,,,0.4651,1,,,,,,,,,,,,,,,,,,,,,,,,0.003745942,-0.40293161,0,0,0,,,,,,,SPORT,C,m,m,./images/SPORT.png,,,,,,,,,,,,,,,,,,,,,m,1,0.4651,,,,,,,,0,118,118,48,1
,,,,,,,,,,,,,,,,,5fb3224238ecb8a40fdd1685,44,2022-02-12_16h45.01.720,lexical_decision_task_DD,2021.2.3,Win32,60.09976561,,,,,,,,,,,0.504,1,,,,,,,,,,,,,,,,,,,,,,,,0.003745942,-0.40293161,0,0,0,,,,,,,CARPET,LB,m,m,./images/CARPETLB.png,,,,,,,,,,,,,,,,,,,,,m,1,0.504,,,,,,,,0,119,119,53,1
,,,,,,,,,,,,,,,,,5fb3224238ecb8a40fdd1685,44,2022-02-12_16h45.01.720,lexical_decision_task_DD,2021.2.3,Win32,60.09976561,,,,,,,,,,,0.4765,0,,,,,,,,,,,,,,,,,,,,,,,,0.003745942,-0.40293161,0,0,0,,,,,,,MAMMAL,LB,z,m,./images/MAMMALLB.png,,,,,,,,,,,,,,,,,,,,,m,0,0.4765,,,,,,,,0,120,120,146,1
,,,,,,,,,,,,,,,,,5fb3224238ecb8a40fdd1685,44,2022-02-12_16h45.01.720,lexical_decision_task_DD,2021.2.3,Win32,60.09976561,,,,,,,,,,,0.3873,0,,,,,,,,,,,,,,,,,,,,,,,,0.003745942,-0.40293161,0,0,0,,,,,,,LLAMA,LB,z,m,./images/LLAMALB.png,,,,,,,,,,,,,,,,,,,,,m,0,0.3873,,,,,,,,0,121,121,119,1
,,,,,,,,,,,,,,,,,5fb3224238ecb8a40fdd1685,44,2022-02-12_16h45.01.720,lexical_decision_task_DD,2021.2.3,Win32,60.09976561,,,,,,,,,,,0.3659,1,,,,,,,,,,,,,,,,,,,,,,,,0.003745942,-0.40293161,0,0,0,,,,,,,FINGER,C,m,m,./images/FINGER.png,,,,,,,,,,,,,,,,,,,,,m,1,0.3659,,,,,,,,0,122,122,3,1
,,,,,,,,,,,,,,,,,5fb3224238ecb8a40fdd1685,44,2022-02-12_16h45.01.720,lexical_decision_task_DD,2021.2.3,Win32,60.09976561,,,,,,,,,,,0.6576,1,,,,,,,,,,,,,,,,,,,,,,,,0.003745942,-0.40293161,0,0,0,,,,,,,BEARD,LB,m,m,./images/BEARDLB.png,,,,,,,,,,,,,,,,,,,,,m,1,0.6576,,,,,,,,0,123,123,2,1
,,,,,,,,,,,,,,,,,5fb3224238ecb8a40fdd1685,44,2022-02-12_16h45.01.720,lexical_decision_task_DD,2021.2.3,Win32,60.09976561,,,,,,,,,,,0.7797,0,,,,,,,,,,,,,,,,,,,,,,,,0.003745942,-0.40293161,0,0,0,,,,,,,BLOKE,C,z,m,./images/BLOKE.png,,,,,,,,,,,,,,,,,,,,,m,0,0.7797,,,,,,,,0,124,124,96,1
,,,,,,,,,,,,,,,,,5fb3224238ecb8a40fdd1685,44,2022-02-12_16h45.01.720,lexical_decision_task_DD,2021.2.3,Win32,60.09976561,,,,,,,,,,,0.9466,1,,,,,,,,,,,,,,,,,,,,,,,,0.003745942,-0.40293161,0,0,0,space,,,,,,DIVER,C,z,m,./images/DIVER.png,7.2946,,,,,,,,,,,,,,,,,,,,z,1,0.9466,,,,,,,,0,125,125,93,1
,,,,,,,,,,,,,,,,,5fb3224238ecb8a40fdd1685,44,2022-02-12_16h45.01.720,lexical_decision_task_DD,2021.2.3,Win32,60.09976561,,,,,,,,,,,1.1247,1,,,,,,,,,,,,,,,,,,,,,,,,0.003745942,-0.40293161,0,0,0,,,,,,,VALLEY,LB,z,m,./images/VALLEYLB.png,,,,,,,,,,,,,,,,,,,,,z,1,1.1247,,,,,,,,0,126,126,152,1
,,,,,,,,,,,,,,,,,5fb3224238ecb8a40fdd1685,44,2022-02-12_16h45.01.720,lexical_decision_task_DD,2021.2.3,Win32,60.09976561,,,,,,,,,,,0.6149,0,,,,,,,,,,,,,,,,,,,,,,,,0.003745942,-0.40293161,0,0,0,,,,,,,CHALK,HB,z,m,./images/CHALKHB.png,,,,,,,,,,,,,,,,,,,,,m,0,0.6149,,,,,,,,0,127,127,109,1
,,,,,,,,,,,,,,,,,5fb3224238ecb8a40fdd1685,44,2022-02-12_16h45.01.720,lexical_decision_task_DD,2021.2.3,Win32,60.09976561,,,,,,,,,,,0.6816,1,,,,,,,,,,,,,,,,,,,,,,,,0.003745942,-0.40293161,0,0,0,,,,,,,MUSCLE,HB,m,m,./images/MUSCLEHB.png,,,,,,,,,,,,,,,,,,,,,m,1,0.6816,,,,,,,,0,128,128,4,1
,,,,,,,,,,,,,,,,,5fb3224238ecb8a40fdd1685,44,2022-02-12_16h45.01.720,lexical_decision_task_DD,2021.2.3,Win32,60.09976561,,,,,,,,,,,0.5474,1,,,,,,,,,,,,,,,,,,,,,,,,0.003745942,-0.40293161,0,0,0,,,,,,,CRUMB,LB,m,m,./images/CRUMBLB.png,,,,,,,,,,,,,,,,,,,,,m,1,0.5474,,,,,,,,0,129,129,29,1
,,,,,,,,,,,,,,,,,5fb3224238ecb8a40fdd1685,44,2022-02-12_16h45.01.720,lexical_decision_task_DD,2021.2.3,Win32,60.09976561,,,,,,,,,,,0.5492,0,,,,,,,,,,,,,,,,,,,,,,,,0.003745942,-0.40293161,0,0,0,,,,,,,BRIDE,HB,z,m,./images/BRIDEHB.png,,,,,,,,,,,,,,,,,,,,,m,0,0.5492,,,,,,,,0,130,130,148,1
,,,,,,,,,,,,,,,,,5fb3224238ecb8a40fdd1685,44,2022-02-12_16h45.01.720,lexical_decision_task_DD,2021.2.3,Win32,60.09976561,,,,,,,,,,,0.6176,1,,,,,,,,,,,,,,,,,,,,,,,,0.003745942,-0.40293161,0,0,0,,,,,,,STORM,C,m,m,./images/STORM.png,,,,,,,,,,,,,,,,,,,,,m,1,0.6176,,,,,,,,0,131,131,30,1
,,,,,,,,,,,,,,,,,5fb3224238ecb8a40fdd1685,44,2022-02-12_16h45.01.720,lexical_decision_task_DD,2021.2.3,Win32,60.09976561,,,,,,,,,,,1.0302,1,,,,,,,,,,,,,,,,,,,,,,,,0.003745942,-0.40293161,0,0,0,,,,,,,CHAIN,C,z,m,./images/CHAIN.png,,,,,,,,,,,,,,,,,,,,,z,1,1.0302,,,,,,,,0,132,132,126,1
,,,,,,,,,,,,,,,,,5fb3224238ecb8a40fdd1685,44,2022-02-12_16h45.01.720,lexical_decision_task_DD,2021.2.3,Win32,60.09976561,,,,,,,,,,,0.5194,1,,,,,,,,,,,,,,,,,,,,,,,,0.003745942,-0.40293161,0,0,0,,,,,,,SQUARE,C,m,m,./images/SQUARE.png,,,,,,,,,,,,,,,,,,,,,m,1,0.5194,,,,,,,,0,133,133,6,1
,,,,,,,,,,,,,,,,,5fb3224238ecb8a40fdd1685,44,2022-02-12_16h45.01.720,lexical_decision_task_DD,2021.2.3,Win32,60.09976561,,,,,,,,,,,0.4924,0,,,,,,,,,,,,,,,,,,,,,,,,0.003745942,-0.40293161,0,0,0,,,,,,,BOILER,C,z,m,./images/BOILER.png,,,,,,,,,,,,,,,,,,,,,m,0,0.4924,,,,,,,,0,134,134,120,1
,,,,,,,,,,,,,,,,,5fb3224238ecb8a40fdd1685,44,2022-02-12_16h45.01.720,lexical_decision_task_DD,2021.2.3,Win32,60.09976561,,,,,,,,,,,0.6205,1,,,,,,,,,,,,,,,,,,,,,,,,0.003745942,-0.40293161,0,0,0,,,,,,,GRAIN,C,m,m,./images/GRAIN.png,,,,,,,,,,,,,,,,,,,,,m,1,0.6205,,,,,,,,0,135,135,75,1
