key_resp.keys,instr_done_touch.x,instr_done_touch.y,instr_done_touch.leftButton,instr_done_touch.midButton,instr_done_touch.rightButton,instr_done_touch.clicked_name,instruction_pages.thisRepN,instruction_pages.thisTrialN,instruction_pages.thisN,instruction_pages.thisIndex,instruction_pages.ran,pageN,phase,instruct_text,has_image,instruct_image,participant,age,date,expName,psychopyVersion,OS,frameRate,response.keys,response.corr,response.rt,touch_resp.x,touch_resp.y,touch_resp.leftButton,touch_resp.midButton,touch_resp.rightButton,touch_resp.time,touch_resp.clicked_name,rt,corr,practrials.thisRepN,practrials.thisTrialN,practrials.thisN,practrials.thisIndex,practrials.ran,TrialID,Target,corrAns,end_of_practice_trials_pages.thisRepN,end_of_practice_trials_pages.thisTrialN,end_of_practice_trials_pages.thisN,end_of_practice_trials_pages.thisIndex,end_of_practice_trials_pages.ran,key_resp_2.keys,key_resp_2.corr,key_resp_2.rt,targ_click.x,targ_click.y,targ_click.leftButton,targ_click.midButton,targ_click.rightButton,targ_click.time,targ_click.clicked_name,break_done_touch.x,break_done_touch.y,break_done_touch.leftButton,break_done_touch.midButton,break_done_touch.rightButton,break_done_keyboard.keys,maintrials.thisRepN,maintrials.thisTrialN,maintrials.thisN,maintrials.thisIndex,maintrials.ran,string,blur,study,lex,stim_path,break_done_keyboard.rt,break_done_touch.clicked_name,mouse_2.x,mouse_2.y,mouse_2.leftButton,mouse_2.midButton,mouse_2.rightButton,mouse_2.clicked_name,slider.response,slider.rt,trials.thisRepN,trials.thisTrialN,trials.thisN,trials.thisIndex,trials.ran,key_resp.rt,test_instructions.thisRepN,test_instructions.thisTrialN,test_instructions.thisN,test_instructions.thisIndex,test_instructions.ran,key_resp_3.keys,key_resp_3.corr,key_resp_3.rt,test_click.x,test_click.y,test_click.leftButton,test_click.midButton,test_click.rightButton,test_click.time,test_click.clicked_name,test_phase.thisRepN,test_phase.thisTrialN,test_phase.thisN,test_phase.thisIndex,test_phase.ran
,0.091145833,-0.3828125,1,0,0,instr_done_button,0,0,0,0,1,1,instructions,"INSTRUCTIONS
At the start of each trial, look at the plus sign  (+) in the center of the screen.  This tells you that a trial is about to begin and where to look. Second, the plus sign will disappear and a string of letters will appear. Your task is to determine if the string of letters is a word or not. If the item is a word press the M key (on keyboard)  or touch the word button (phone/tablet).  If the item is not a word,  press the  Z key (on keyboard)  or touch the nonword button (on phone/tablet). 
Press the space bar or touch  continue.",0,,5fce736898fa590803b3b0d8,24,2022-02-12_13h26.07.160,lexical_decision_task_DD,2021.2.3,Win32,59.7335882,,,,,,,,,,,,,,,,,,,,,,,,,,,,,,,,,,,,,,,,,,,,,,,,,,,,,,,,,,,,,,,,,,,,,,,,,,,,,,,,,,,,,,,
,0.111979167,-0.40625,1,0,0,instr_done_button,0,1,1,1,1,2,instructions,"If your device has a keyboard, press the 'Z' key for nonwords and the 'M' key for words.





Press the space bar or touch the button below to continue.",0,keyboard-example.gif,5fce736898fa590803b3b0d8,24,2022-02-12_13h26.07.160,lexical_decision_task_DD,2021.2.3,Win32,59.7335882,,,,,,,,,,,,,,,,,,,,,,,,,,,,,,,,,,,,,,,,,,,,,,,,,,,,,,,,,,,,,,,,,,,,,,,,,,,,,,,,,,,,,,,
,0.024739583,-0.390625,1,0,0,instr_done_button,0,2,2,2,1,3,instructions,"If you are using a touchscreen only device, use the buttons on the screen. Do not use the mouse.





Press the space bar or touch the button below to continue.",0,touchscreen-example.gif,5fce736898fa590803b3b0d8,24,2022-02-12_13h26.07.160,lexical_decision_task_DD,2021.2.3,Win32,59.7335882,,,,,,,,,,,,,,,,,,,,,,,,,,,,,,,,,,,,,,,,,,,,,,,,,,,,,,,,,,,,,,,,,,,,,,,,,,,,,,,,,,,,,,,
,-0.032552083,-0.37890625,1,0,0,instr_done_button,0,3,3,3,1,4,instructions,"It is very important that you respond as quickly and accurately as possible, as each letter string will only be on the screen for two seconds. If you do not respond within this time, the message 'Too slow!' will be displayed and the experiment will progress to the next letter string. The first 20 trials will be practice trials and you will receive feedback on your answers. 

Press the space bar or touch the button below to start the practice trials.",0,,5fce736898fa590803b3b0d8,24,2022-02-12_13h26.07.160,lexical_decision_task_DD,2021.2.3,Win32,59.7335882,,,,,,,,,,,,,,,,,,,,,,,,,,,,,,,,,,,,,,,,,,,,,,,,,,,,,,,,,,,,,,,,,,,,,,,,,,,,,,,,,,,,,,,
,,,,,,,,,,,,,,,,,5fce736898fa590803b3b0d8,24,2022-02-12_13h26.07.160,lexical_decision_task_DD,2021.2.3,Win32,59.7335882,m,1,2.4411,,,,,,,,2.4411,1,0,0,0,4,1,1001,SQUEAK,m,,,,,,,,,,,,,,,,,,,,,,,,,,,,,,,,,,,,,,,,,,,,,,,,,,,,,,,,,,,,,,,,,,,
,,,,,,,,,,,,,,,,,5fce736898fa590803b3b0d8,24,2022-02-12_13h26.07.160,lexical_decision_task_DD,2021.2.3,Win32,59.7335882,m,1,0.892,,,,,,,,0.892,1,0,1,1,1,1,1001,ADJUST,m,,,,,,,,,,,,,,,,,,,,,,,,,,,,,,,,,,,,,,,,,,,,,,,,,,,,,,,,,,,,,,,,,,,
,,,,,,,,,,,,,,,,,5fce736898fa590803b3b0d8,24,2022-02-12_13h26.07.160,lexical_decision_task_DD,2021.2.3,Win32,59.7335882,m,1,0.9264,,,,,,,,0.9264,1,0,2,2,0,1,1001,UTOPIA,m,,,,,,,,,,,,,,,,,,,,,,,,,,,,,,,,,,,,,,,,,,,,,,,,,,,,,,,,,,,,,,,,,,,
,,,,,,,,,,,,,,,,,5fce736898fa590803b3b0d8,24,2022-02-12_13h26.07.160,lexical_decision_task_DD,2021.2.3,Win32,59.7335882,z,1,1.5852,,,,,,,,1.5852,1,0,3,3,8,1,1001,ASLERT,z,,,,,,,,,,,,,,,,,,,,,,,,,,,,,,,,,,,,,,,,,,,,,,,,,,,,,,,,,,,,,,,,,,,
,,,,,,,,,,,,,,,,,5fce736898fa590803b3b0d8,24,2022-02-12_13h26.07.160,lexical_decision_task_DD,2021.2.3,Win32,59.7335882,m,1,0.8316,,,,,,,,0.8316,1,0,4,4,5,1,1001,OBTAIN,m,,,,,,,,,,,,,,,,,,,,,,,,,,,,,,,,,,,,,,,,,,,,,,,,,,,,,,,,,,,,,,,,,,,
,,,,,,,,,,,,,,,,,5fce736898fa590803b3b0d8,24,2022-02-12_13h26.07.160,lexical_decision_task_DD,2021.2.3,Win32,59.7335882,m,1,0.9335,,,,,,,,0.9335,1,0,5,5,3,1,1001,MATRIX,m,,,,,,,,,,,,,,,,,,,,,,,,,,,,,,,,,,,,,,,,,,,,,,,,,,,,,,,,,,,,,,,,,,,
,,,,,,,,,,,,,,,,,5fce736898fa590803b3b0d8,24,2022-02-12_13h26.07.160,lexical_decision_task_DD,2021.2.3,Win32,59.7335882,m,1,1.0001,,,,,,,,1.0001,1,0,6,6,2,1,1001,ALMOND,m,,,,,,,,,,,,,,,,,,,,,,,,,,,,,,,,,,,,,,,,,,,,,,,,,,,,,,,,,,,,,,,,,,,
,,,,,,,,,,,,,,,,,5fce736898fa590803b3b0d8,24,2022-02-12_13h26.07.160,lexical_decision_task_DD,2021.2.3,Win32,59.7335882,z,1,0.7859,,,,,,,,0.7859,1,0,7,7,11,1,1001,RASHET,z,,,,,,,,,,,,,,,,,,,,,,,,,,,,,,,,,,,,,,,,,,,,,,,,,,,,,,,,,,,,,,,,,,,
,,,,,,,,,,,,,,,,,5fce736898fa590803b3b0d8,24,2022-02-12_13h26.07.160,lexical_decision_task_DD,2021.2.3,Win32,59.7335882,z,1,0.8493,,,,,,,,0.8493,1,0,8,8,12,1,1001,SPRINY,z,,,,,,,,,,,,,,,,,,,,,,,,,,,,,,,,,,,,,,,,,,,,,,,,,,,,,,,,,,,,,,,,,,,
,,,,,,,,,,,,,,,,,5fce736898fa590803b3b0d8,24,2022-02-12_13h26.07.160,lexical_decision_task_DD,2021.2.3,Win32,59.7335882,m,1,0.721,,,,,,,,0.721,1,0,9,9,6,1,1001,ZOMBIE,m,,,,,,,,,,,,,,,,,,,,,,,,,,,,,,,,,,,,,,,,,,,,,,,,,,,,,,,,,,,,,,,,,,,
,,,,,,,,,,,,,,,,,5fce736898fa590803b3b0d8,24,2022-02-12_13h26.07.160,lexical_decision_task_DD,2021.2.3,Win32,59.7335882,z,1,0.8633,,,,,,,,0.8633,1,0,10,10,9,1,1001,FARINY,z,,,,,,,,,,,,,,,,,,,,,,,,,,,,,,,,,,,,,,,,,,,,,,,,,,,,,,,,,,,,,,,,,,,
,,,,,,,,,,,,,,,,,5fce736898fa590803b3b0d8,24,2022-02-12_13h26.07.160,lexical_decision_task_DD,2021.2.3,Win32,59.7335882,z,1,0.8385,,,,,,,,0.8385,1,0,11,11,14,1,1001,THRALE,z,,,,,,,,,,,,,,,,,,,,,,,,,,,,,,,,,,,,,,,,,,,,,,,,,,,,,,,,,,,,,,,,,,,
,,,,,,,,,,,,,,,,,5fce736898fa590803b3b0d8,24,2022-02-12_13h26.07.160,lexical_decision_task_DD,2021.2.3,Win32,59.7335882,z,1,0.650200001,,,,,,,,0.650200001,1,0,12,12,13,1,1001,ROUPET,z,,,,,,,,,,,,,,,,,,,,,,,,,,,,,,,,,,,,,,,,,,,,,,,,,,,,,,,,,,,,,,,,,,,
,,,,,,,,,,,,,,,,,5fce736898fa590803b3b0d8,24,2022-02-12_13h26.07.160,lexical_decision_task_DD,2021.2.3,Win32,59.7335882,z,1,0.592200001,,,,,,,,0.592200001,1,0,13,13,10,1,1001,INLADE,z,,,,,,,,,,,,,,,,,,,,,,,,,,,,,,,,,,,,,,,,,,,,,,,,,,,,,,,,,,,,,,,,,,,
,,,,,,,,,,,,,,,,,5fce736898fa590803b3b0d8,24,2022-02-12_13h26.07.160,lexical_decision_task_DD,2021.2.3,Win32,59.7335882,z,1,0.6705,,,,,,,,0.6705,1,0,14,14,15,1,1001,WHAISE,z,,,,,,,,,,,,,,,,,,,,,,,,,,,,,,,,,,,,,,,,,,,,,,,,,,,,,,,,,,,,,,,,,,,
,,,,,,,,,,,,,,,,,5fce736898fa590803b3b0d8,24,2022-02-12_13h26.07.160,lexical_decision_task_DD,2021.2.3,Win32,59.7335882,m,1,0.8946,,,,,,,,0.8946,1,0,15,15,7,1,1001,VOLUME,m,,,,,,,,,,,,,,,,,,,,,,,,,,,,,,,,,,,,,,,,,,,,,,,,,,,,,,,,,,,,,,,,,,,
,-0.005208333,-0.365885417,1,0,0,instr_done_button,,,,,,1,end_of_practice,"You have completed the practice trials. During the experimental trials, you will not receive feedback. 
Before you begin, please ensure that you are in a comfortable and quiet location and will not be disturbed for about 15 minutes, as we cannot use your data if you do not complete all the trials. 
 When you are ready to start the experimental trials, please press space or touch the button below.",,,5fce736898fa590803b3b0d8,24,2022-02-12_13h26.07.160,lexical_decision_task_DD,2021.2.3,Win32,59.7335882,,,,,,,,,,,,,,,,,,,,,0,0,0,0,1,,,,,,,,,,,,,,,,,,,,,,,,,,,,,,,,,,,,,,,,,,,,,,,,,,,,,,,,,,,,,,
,,,,,,,,,,,,,,,,,5fce736898fa590803b3b0d8,24,2022-02-12_13h26.07.160,lexical_decision_task_DD,2021.2.3,Win32,59.7335882,,,,,,,,,,,1.9899,1,,,,,,,,,,,,,,m,1,1.9899,,,,,,,,-0.001302083,-0.044270833,0,0,0,,0,0,0,47,1,BERRY,LB,old,m,./images/BERRYLB.png,,,,,,,,,,,,,,,,,,,,,,,,,,,,,,,,,,,,
,,,,,,,,,,,,,,,,,5fce736898fa590803b3b0d8,24,2022-02-12_13h26.07.160,lexical_decision_task_DD,2021.2.3,Win32,59.7335882,,,,,,,,,,,2.576599999,1,,,,,,,,,,,,,,m,1,2.576599999,,,,,,,,-0.283854167,-0.498697917,0,0,0,,0,1,1,43,1,MOSQUE,HB,old,m,./images/MOSQUEHB.png,,,,,,,,,,,,,,,,,,,,,,,,,,,,,,,,,,,,
,,,,,,,,,,,,,,,,,5fce736898fa590803b3b0d8,24,2022-02-12_13h26.07.160,lexical_decision_task_DD,2021.2.3,Win32,59.7335882,,,,,,,,,,,0.6536,1,,,,,,,,,,,,,,m,1,0.6536,,,,,,,,-0.283854167,-0.498697917,0,0,0,,0,2,2,68,1,TORCH,LB,old,m,./images/TORCHLB.png,,,,,,,,,,,,,,,,,,,,,,,,,,,,,,,,,,,,
,,,,,,,,,,,,,,,,,5fce736898fa590803b3b0d8,24,2022-02-12_13h26.07.160,lexical_decision_task_DD,2021.2.3,Win32,59.7335882,,,,,,,,,,,0.9315,1,,,,,,,,,,,,,,z,1,0.9315,,,,,,,,-0.283854167,-0.498697917,0,0,0,,0,3,3,84,1,HAXES,C,old,z,./images/HAXES.png,,,,,,,,,,,,,,,,,,,,,,,,,,,,,,,,,,,,
,,,,,,,,,,,,,,,,,5fce736898fa590803b3b0d8,24,2022-02-12_13h26.07.160,lexical_decision_task_DD,2021.2.3,Win32,59.7335882,,,,,,,,,,,0.862,1,,,,,,,,,,,,,,z,1,0.862,,,,,,,,-0.283854167,-0.498697917,0,0,0,,0,4,4,89,1,DRIEK,LB,old,z,./images/DRIEKLB.png,,,,,,,,,,,,,,,,,,,,,,,,,,,,,,,,,,,,
,,,,,,,,,,,,,,,,,5fce736898fa590803b3b0d8,24,2022-02-12_13h26.07.160,lexical_decision_task_DD,2021.2.3,Win32,59.7335882,,,,,,,,,,,0.8068,1,,,,,,,,,,,,,,z,1,0.8068,,,,,,,,-0.283854167,-0.498697917,0,0,0,,0,5,5,131,1,NACES,LB,old,z,./images/NACESLB.png,,,,,,,,,,,,,,,,,,,,,,,,,,,,,,,,,,,,
,,,,,,,,,,,,,,,,,5fce736898fa590803b3b0d8,24,2022-02-12_13h26.07.160,lexical_decision_task_DD,2021.2.3,Win32,59.7335882,,,,,,,,,,,0.6734,1,,,,,,,,,,,,,,m,1,0.6734,,,,,,,,-0.283854167,-0.498697917,0,0,0,,0,6,6,63,1,MIRROR,C,old,m,./images/MIRROR.png,,,,,,,,,,,,,,,,,,,,,,,,,,,,,,,,,,,,
,,,,,,,,,,,,,,,,,5fce736898fa590803b3b0d8,24,2022-02-12_13h26.07.160,lexical_decision_task_DD,2021.2.3,Win32,59.7335882,,,,,,,,,,,0.7143,1,,,,,,,,,,,,,,z,1,0.7143,,,,,,,,-0.283854167,-0.498697917,0,0,0,,0,7,7,161,1,BLAPS,LB,old,z,./images/BLAPSLB.png,,,,,,,,,,,,,,,,,,,,,,,,,,,,,,,,,,,,
,,,,,,,,,,,,,,,,,5fce736898fa590803b3b0d8,24,2022-02-12_13h26.07.160,lexical_decision_task_DD,2021.2.3,Win32,59.7335882,,,,,,,,,,,0.636400001,1,,,,,,,,,,,,,,m,1,0.636400001,,,,,,,,-0.283854167,-0.498697917,0,0,0,,0,8,8,75,1,GRAIN,C,old,m,./images/GRAIN.png,,,,,,,,,,,,,,,,,,,,,,,,,,,,,,,,,,,,
,,,,,,,,,,,,,,,,,5fce736898fa590803b3b0d8,24,2022-02-12_13h26.07.160,lexical_decision_task_DD,2021.2.3,Win32,59.7335882,,,,,,,,,,,0.5675,1,,,,,,,,,,,,,,z,1,0.5675,,,,,,,,-0.283854167,-0.498697917,0,0,0,,0,9,9,140,1,DOVET,LB,old,z,./images/DOVETLB.png,,,,,,,,,,,,,,,,,,,,,,,,,,,,,,,,,,,,
,,,,,,,,,,,,,,,,,5fce736898fa590803b3b0d8,24,2022-02-12_13h26.07.160,lexical_decision_task_DD,2021.2.3,Win32,59.7335882,,,,,,,,,,,1.5273,1,,,,,,,,,,,,,,m,1,1.5273,,,,,,,,-0.283854167,-0.498697917,0,0,0,,0,10,10,50,1,MALLET,LB,old,m,./images/MALLETLB.png,,,,,,,,,,,,,,,,,,,,,,,,,,,,,,,,,,,,
,,,,,,,,,,,,,,,,,5fce736898fa590803b3b0d8,24,2022-02-12_13h26.07.160,lexical_decision_task_DD,2021.2.3,Win32,59.7335882,,,,,,,,,,,1.0176,1,,,,,,,,,,,,,,m,1,1.0176,,,,,,,,-0.283854167,-0.498697917,0,0,0,,0,11,11,37,1,BIRTH,HB,old,m,./images/BIRTHHB.png,,,,,,,,,,,,,,,,,,,,,,,,,,,,,,,,,,,,
,,,,,,,,,,,,,,,,,5fce736898fa590803b3b0d8,24,2022-02-12_13h26.07.160,lexical_decision_task_DD,2021.2.3,Win32,59.7335882,,,,,,,,,,,0.8387,1,,,,,,,,,,,,,,m,1,0.8387,,,,,,,,-0.283854167,-0.498697917,0,0,0,,0,12,12,27,1,ATTIC,C,old,m,./images/ATTIC.png,,,,,,,,,,,,,,,,,,,,,,,,,,,,,,,,,,,,
,,,,,,,,,,,,,,,,,5fce736898fa590803b3b0d8,24,2022-02-12_13h26.07.160,lexical_decision_task_DD,2021.2.3,Win32,59.7335882,,,,,,,,,,,1.0999,1,,,,,,,,,,,,,,z,1,1.0999,,,,,,,,-0.283854167,-0.498697917,0,0,0,,0,13,13,154,1,THINT,HB,old,z,./images/THINTHB.png,,,,,,,,,,,,,,,,,,,,,,,,,,,,,,,,,,,,
,,,,,,,,,,,,,,,,,5fce736898fa590803b3b0d8,24,2022-02-12_13h26.07.160,lexical_decision_task_DD,2021.2.3,Win32,59.7335882,,,,,,,,,,,0.9624,1,,,,,,,,,,,,,,m,1,0.9624,,,,,,,,-0.283854167,-0.498697917,0,0,0,,0,14,14,40,1,SWING,HB,old,m,./images/SWINGHB.png,,,,,,,,,,,,,,,,,,,,,,,,,,,,,,,,,,,,
,,,,,,,,,,,,,,,,,5fce736898fa590803b3b0d8,24,2022-02-12_13h26.07.160,lexical_decision_task_DD,2021.2.3,Win32,59.7335882,,,,,,,,,,,0.8386,1,,,,,,,,,,,,,,m,1,0.8386,,,,,,,,-0.283854167,-0.498697917,0,0,0,,0,15,15,78,1,LITTER,C,old,m,./images/LITTER.png,,,,,,,,,,,,,,,,,,,,,,,,,,,,,,,,,,,,
,,,,,,,,,,,,,,,,,5fce736898fa590803b3b0d8,24,2022-02-12_13h26.07.160,lexical_decision_task_DD,2021.2.3,Win32,59.7335882,,,,,,,,,,,0.7133,1,,,,,,,,,,,,,,m,1,0.7133,,,,,,,,-0.283854167,-0.498697917,0,0,0,,0,16,16,15,1,GREASE,C,old,m,./images/GREASE.png,,,,,,,,,,,,,,,,,,,,,,,,,,,,,,,,,,,,
,,,,,,,,,,,,,,,,,5fce736898fa590803b3b0d8,24,2022-02-12_13h26.07.160,lexical_decision_task_DD,2021.2.3,Win32,59.7335882,,,,,,,,,,,0.9777,1,,,,,,,,,,,,,,z,1,0.9777,,,,,,,,-0.283854167,-0.498697917,0,0,0,,0,17,17,124,1,TUNCH,HB,old,z,./images/TUNCHHB.png,,,,,,,,,,,,,,,,,,,,,,,,,,,,,,,,,,,,
,,,,,,,,,,,,,,,,,5fce736898fa590803b3b0d8,24,2022-02-12_13h26.07.160,lexical_decision_task_DD,2021.2.3,Win32,59.7335882,,,,,,,,,,,1.0555,1,,,,,,,,,,,,,,z,1,1.0555,,,,,,,,-0.283854167,-0.498697917,0,0,0,,0,18,18,145,1,LAMEL,HB,old,z,./images/LAMELHB.png,,,,,,,,,,,,,,,,,,,,,,,,,,,,,,,,,,,,
,,,,,,,,,,,,,,,,,5fce736898fa590803b3b0d8,24,2022-02-12_13h26.07.160,lexical_decision_task_DD,2021.2.3,Win32,59.7335882,,,,,,,,,,,0.889099999,1,,,,,,,,,,,,,,m,1,0.889099999,,,,,,,,-0.283854167,-0.498697917,0,0,0,,0,19,19,23,1,WALRUS,LB,old,m,./images/WALRUSLB.png,,,,,,,,,,,,,,,,,,,,,,,,,,,,,,,,,,,,
,,,,,,,,,,,,,,,,,5fce736898fa590803b3b0d8,24,2022-02-12_13h26.07.160,lexical_decision_task_DD,2021.2.3,Win32,59.7335882,,,,,,,,,,,0.9502,1,,,,,,,,,,,,,,z,1,0.9502,,,,,,,,-0.283854167,-0.498697917,0,0,0,,0,20,20,94,1,BLANS,HB,old,z,./images/BLANSHB.png,,,,,,,,,,,,,,,,,,,,,,,,,,,,,,,,,,,,
,,,,,,,,,,,,,,,,,5fce736898fa590803b3b0d8,24,2022-02-12_13h26.07.160,lexical_decision_task_DD,2021.2.3,Win32,59.7335882,,,,,,,,,,,0.8457,1,,,,,,,,,,,,,,z,1,0.8457,,,,,,,,-0.283854167,-0.498697917,0,0,0,,0,21,21,164,1,SGREW,LB,old,z,./images/SGREWLB.png,,,,,,,,,,,,,,,,,,,,,,,,,,,,,,,,,,,,
,,,,,,,,,,,,,,,,,5fce736898fa590803b3b0d8,24,2022-02-12_13h26.07.160,lexical_decision_task_DD,2021.2.3,Win32,59.7335882,,,,,,,,,,,1.183299999,1,,,,,,,,,,,,,,m,1,1.183299999,,,,,,,,-0.283854167,-0.498697917,0,0,0,,0,22,22,72,1,NOOSE,C,old,m,./images/NOOSE.png,,,,,,,,,,,,,,,,,,,,,,,,,,,,,,,,,,,,
,,,,,,,,,,,,,,,,,5fce736898fa590803b3b0d8,24,2022-02-12_13h26.07.160,lexical_decision_task_DD,2021.2.3,Win32,59.7335882,,,,,,,,,,,1.5848,1,,,,,,,,,,,,,,m,1,1.5848,,,,,,,,-0.283854167,-0.498697917,0,0,0,,0,23,23,74,1,CEMENT,LB,old,m,./images/CEMENTLB.png,,,,,,,,,,,,,,,,,,,,,,,,,,,,,,,,,,,,
,,,,,,,,,,,,,,,,,5fce736898fa590803b3b0d8,24,2022-02-12_13h26.07.160,lexical_decision_task_DD,2021.2.3,Win32,59.7335882,,,,,,,,,,,0.755,1,,,,,,,,,,,,,,z,1,0.755,,,,,,,,-0.283854167,-0.498697917,0,0,0,,0,24,24,129,1,PRANS,C,old,z,./images/PRANS.png,,,,,,,,,,,,,,,,,,,,,,,,,,,,,,,,,,,,
,,,,,,,,,,,,,,,,,5fce736898fa590803b3b0d8,24,2022-02-12_13h26.07.160,lexical_decision_task_DD,2021.2.3,Win32,59.7335882,,,,,,,,,,,0.763900001,1,,,,,,,,,,,,,,z,1,0.763900001,,,,,,,,-0.283854167,-0.498697917,0,0,0,,0,25,25,127,1,NINDY,HB,old,z,./images/NINDYHB.png,,,,,,,,,,,,,,,,,,,,,,,,,,,,,,,,,,,,
,,,,,,,,,,,,,,,,,5fce736898fa590803b3b0d8,24,2022-02-12_13h26.07.160,lexical_decision_task_DD,2021.2.3,Win32,59.7335882,,,,,,,,,,,1.082799999,1,,,,,,,,,,,,,,m,1,1.082799999,,,,,,,,-0.283854167,-0.498697917,0,0,0,,0,26,26,34,1,CANYON,HB,old,m,./images/CANYONHB.png,,,,,,,,,,,,,,,,,,,,,,,,,,,,,,,,,,,,
,,,,,,,,,,,,,,,,,5fce736898fa590803b3b0d8,24,2022-02-12_13h26.07.160,lexical_decision_task_DD,2021.2.3,Win32,59.7335882,,,,,,,,,,,0.7288,1,,,,,,,,,,,,,,z,1,0.7288,,,,,,,,-0.283854167,-0.498697917,0,0,0,,0,27,27,117,1,STEEG,C,old,z,./images/STEEG.png,,,,,,,,,,,,,,,,,,,,,,,,,,,,,,,,,,,,
,,,,,,,,,,,,,,,,,5fce736898fa590803b3b0d8,24,2022-02-12_13h26.07.160,lexical_decision_task_DD,2021.2.3,Win32,59.7335882,,,,,,,,,,,0.6519,1,,,,,,,,,,,,,,m,1,0.6519,,,,,,,,-0.283854167,-0.498697917,0,0,0,,0,28,28,62,1,PURSE,LB,old,m,./images/PURSELB.png,,,,,,,,,,,,,,,,,,,,,,,,,,,,,,,,,,,,
,,,,,,,,,,,,,,,,,5fce736898fa590803b3b0d8,24,2022-02-12_13h26.07.160,lexical_decision_task_DD,2021.2.3,Win32,59.7335882,,,,,,,,,,,0.9419,1,,,,,,,,,,,,,,m,1,0.9419,,,,,,,,-0.283854167,-0.498697917,0,0,0,,0,29,29,61,1,CANDLE,HB,old,m,./images/CANDLEHB.png,,,,,,,,,,,,,,,,,,,,,,,,,,,,,,,,,,,,
,,,,,,,,,,,,,,,,,5fce736898fa590803b3b0d8,24,2022-02-12_13h26.07.160,lexical_decision_task_DD,2021.2.3,Win32,59.7335882,,,,,,,,,,,0.811099999,1,,,,,,,,,,,,,,z,1,0.811099999,,,,,,,,-0.283854167,-0.498697917,0,0,0,,0,30,30,159,1,CUDDY,C,old,z,./images/CUDDY.png,,,,,,,,,,,,,,,,,,,,,,,,,,,,,,,,,,,,
,,,,,,,,,,,,,,,,,5fce736898fa590803b3b0d8,24,2022-02-12_13h26.07.160,lexical_decision_task_DD,2021.2.3,Win32,59.7335882,,,,,,,,,,,0.6812,1,,,,,,,,,,,,,,m,1,0.6812,,,,,,,,-0.283854167,-0.498697917,0,0,0,,0,31,31,60,1,TWINS,C,old,m,./images/TWINS.png,,,,,,,,,,,,,,,,,,,,,,,,,,,,,,,,,,,,
,,,,,,,,,,,,,,,,,5fce736898fa590803b3b0d8,24,2022-02-12_13h26.07.160,lexical_decision_task_DD,2021.2.3,Win32,59.7335882,,,,,,,,,,,0.765,1,,,,,,,,,,,,,,m,1,0.765,,,,,,,,-0.283854167,-0.498697917,0,0,0,,0,32,32,66,1,SWEAT,C,old,m,./images/SWEAT.png,,,,,,,,,,,,,,,,,,,,,,,,,,,,,,,,,,,,
,,,,,,,,,,,,,,,,,5fce736898fa590803b3b0d8,24,2022-02-12_13h26.07.160,lexical_decision_task_DD,2021.2.3,Win32,59.7335882,,,,,,,,,,,0.6985,1,,,,,,,,,,,,,,z,1,0.6985,,,,,,,,-0.283854167,-0.498697917,0,0,0,,0,33,33,125,1,MOOKY,LB,old,z,./images/MOOKYLB.png,,,,,,,,,,,,,,,,,,,,,,,,,,,,,,,,,,,,
,,,,,,,,,,,,,,,,,5fce736898fa590803b3b0d8,24,2022-02-12_13h26.07.160,lexical_decision_task_DD,2021.2.3,Win32,59.7335882,,,,,,,,,,,1.0307,1,,,,,,,,,,,,,,z,1,1.0307,,,,,,,,-0.283854167,-0.498697917,0,0,0,,0,34,34,163,1,GAMBA,HB,old,z,./images/GAMBAHB.png,,,,,,,,,,,,,,,,,,,,,,,,,,,,,,,,,,,,
,,,,,,,,,,,,,,,,,5fce736898fa590803b3b0d8,24,2022-02-12_13h26.07.160,lexical_decision_task_DD,2021.2.3,Win32,59.7335882,,,,,,,,,,,0.9399,1,,,,,,,,,,,,,,m,1,0.9399,,,,,,,,-0.283854167,-0.498697917,0,0,0,,0,35,35,20,1,CRADLE,LB,old,m,./images/CRADLELB.png,,,,,,,,,,,,,,,,,,,,,,,,,,,,,,,,,,,,
,,,,,,,,,,,,,,,,,5fce736898fa590803b3b0d8,24,2022-02-12_13h26.07.160,lexical_decision_task_DD,2021.2.3,Win32,59.7335882,,,,,,,,,,,1.0545,1,,,,,,,,,,,,,,z,1,1.0545,,,,,,,,-0.283854167,-0.498697917,0,0,0,,0,36,36,109,1,BURGE,HB,old,z,./images/BURGEHB.png,,,,,,,,,,,,,,,,,,,,,,,,,,,,,,,,,,,,
,,,,,,,,,,,,,,,,,5fce736898fa590803b3b0d8,24,2022-02-12_13h26.07.160,lexical_decision_task_DD,2021.2.3,Win32,59.7335882,,,,,,,,,,,0.7061,1,,,,,,,,,,,,,,m,1,0.7061,,,,,,,,-0.283854167,-0.498697917,0,0,0,,0,37,37,44,1,LIZARD,LB,old,m,./images/LIZARDLB.png,,,,,,,,,,,,,,,,,,,,,,,,,,,,,,,,,,,,
,,,,,,,,,,,,,,,,,5fce736898fa590803b3b0d8,24,2022-02-12_13h26.07.160,lexical_decision_task_DD,2021.2.3,Win32,59.7335882,,,,,,,,,,,0.764400001,1,,,,,,,,,,,,,,z,1,0.764400001,,,,,,,,-0.283854167,-0.498697917,0,0,0,,0,38,38,156,1,HIXES,C,old,z,./images/HIXES.png,,,,,,,,,,,,,,,,,,,,,,,,,,,,,,,,,,,,
,,,,,,,,,,,,,,,,,5fce736898fa590803b3b0d8,24,2022-02-12_13h26.07.160,lexical_decision_task_DD,2021.2.3,Win32,59.7335882,,,,,,,,,,,0.8503,1,,,,,,,,,,,,,,z,1,0.8503,,,,,,,,-0.283854167,-0.498697917,0,0,0,,0,39,39,141,1,PLEET,C,old,z,./images/PLEET.png,,,,,,,,,,,,,,,,,,,,,,,,,,,,,,,,,,,,
,,,,,,,,,,,,,,,,,5fce736898fa590803b3b0d8,24,2022-02-12_13h26.07.160,lexical_decision_task_DD,2021.2.3,Win32,59.7335882,,,,,,,,,,,1.233,1,,,,,,,,,,,,,,m,1,1.233,,,,,,,,-0.283854167,-0.498697917,0,0,0,,0,40,40,25,1,WRIST,HB,old,m,./images/WRISTHB.png,,,,,,,,,,,,,,,,,,,,,,,,,,,,,,,,,,,,
,,,,,,,,,,,,,,,,,5fce736898fa590803b3b0d8,24,2022-02-12_13h26.07.160,lexical_decision_task_DD,2021.2.3,Win32,59.7335882,,,,,,,,,,,0.574200001,1,,,,,,,,,,,,,,m,1,0.574200001,,,,,,,,-0.283854167,-0.498697917,0,0,0,space,0,41,41,26,1,SMOKER,LB,old,m,./images/SMOKERLB.png,15.5225,,,,,,,,,,,,,,,,,,,,,,,,,,,,,,,,,,,
,,,,,,,,,,,,,,,,,5fce736898fa590803b3b0d8,24,2022-02-12_13h26.07.160,lexical_decision_task_DD,2021.2.3,Win32,59.7335882,,,,,,,,,,,1.1066,1,,,,,,,,,,,,,,z,1,1.1066,,,,,,,,-0.283854167,-0.498697917,0,0,0,,0,42,42,150,1,NOOLS,C,old,z,./images/NOOLS.png,,,,,,,,,,,,,,,,,,,,,,,,,,,,,,,,,,,,
,,,,,,,,,,,,,,,,,5fce736898fa590803b3b0d8,24,2022-02-12_13h26.07.160,lexical_decision_task_DD,2021.2.3,Win32,59.7335882,,,,,,,,,,,1.151099999,1,,,,,,,,,,,,,,z,1,1.151099999,,,,,,,,-0.283854167,-0.498697917,0,0,0,,0,43,43,128,1,GRIFT,LB,old,z,./images/GRIFTLB.png,,,,,,,,,,,,,,,,,,,,,,,,,,,,,,,,,,,,
,,,,,,,,,,,,,,,,,5fce736898fa590803b3b0d8,24,2022-02-12_13h26.07.160,lexical_decision_task_DD,2021.2.3,Win32,59.7335882,,,,,,,,,,,1.2486,1,,,,,,,,,,,,,,m,1,1.2486,,,,,,,,-0.283854167,-0.498697917,0,0,0,,0,44,44,57,1,MOOSE,C,old,m,./images/MOOSE.png,,,,,,,,,,,,,,,,,,,,,,,,,,,,,,,,,,,,
,,,,,,,,,,,,,,,,,5fce736898fa590803b3b0d8,24,2022-02-12_13h26.07.160,lexical_decision_task_DD,2021.2.3,Win32,59.7335882,,,,,,,,,,,1.1762,1,,,,,,,,,,,,,,m,1,1.1762,,,,,,,,-0.283854167,-0.498697917,0,0,0,,0,45,45,80,1,WEASEL,LB,old,m,./images/WEASELLB.png,,,,,,,,,,,,,,,,,,,,,,,,,,,,,,,,,,,,
,,,,,,,,,,,,,,,,,5fce736898fa590803b3b0d8,24,2022-02-12_13h26.07.160,lexical_decision_task_DD,2021.2.3,Win32,59.7335882,,,,,,,,,,,0.7506,1,,,,,,,,,,,,,,m,1,0.7506,,,,,,,,-0.283854167,-0.498697917,0,0,0,,0,46,46,71,1,PIMPLE,LB,old,m,./images/PIMPLELB.png,,,,,,,,,,,,,,,,,,,,,,,,,,,,,,,,,,,,
,,,,,,,,,,,,,,,,,5fce736898fa590803b3b0d8,24,2022-02-12_13h26.07.160,lexical_decision_task_DD,2021.2.3,Win32,59.7335882,,,,,,,,,,,0.7617,1,,,,,,,,,,,,,,z,1,0.7617,,,,,,,,-0.283854167,-0.498697917,0,0,0,,0,47,47,120,1,RINED,C,old,z,./images/RINED.png,,,,,,,,,,,,,,,,,,,,,,,,,,,,,,,,,,,,
,,,,,,,,,,,,,,,,,5fce736898fa590803b3b0d8,24,2022-02-12_13h26.07.160,lexical_decision_task_DD,2021.2.3,Win32,59.7335882,,,,,,,,,,,0.9068,1,,,,,,,,,,,,,,z,1,0.9068,,,,,,,,-0.283854167,-0.498697917,0,0,0,,0,48,48,113,1,LINEW,LB,old,z,./images/LINEWLB.png,,,,,,,,,,,,,,,,,,,,,,,,,,,,,,,,,,,,
,,,,,,,,,,,,,,,,,5fce736898fa590803b3b0d8,24,2022-02-12_13h26.07.160,lexical_decision_task_DD,2021.2.3,Win32,59.7335882,,,,,,,,,,,1.2536,1,,,,,,,,,,,,,,m,1,1.2536,,,,,,,,-0.283854167,-0.498697917,0,0,0,,0,49,49,21,1,KIDNEY,C,old,m,./images/KIDNEY.png,,,,,,,,,,,,,,,,,,,,,,,,,,,,,,,,,,,,
,,,,,,,,,,,,,,,,,5fce736898fa590803b3b0d8,24,2022-02-12_13h26.07.160,lexical_decision_task_DD,2021.2.3,Win32,59.7335882,,,,,,,,,,,1.352200001,1,,,,,,,,,,,,,,m,1,1.352200001,,,,,,,,-0.283854167,-0.498697917,0,0,0,,0,50,50,29,1,CRUMB,LB,old,m,./images/CRUMBLB.png,,,,,,,,,,,,,,,,,,,,,,,,,,,,,,,,,,,,
,,,,,,,,,,,,,,,,,5fce736898fa590803b3b0d8,24,2022-02-12_13h26.07.160,lexical_decision_task_DD,2021.2.3,Win32,59.7335882,,,,,,,,,,,0.8812,1,,,,,,,,,,,,,,m,1,0.8812,,,,,,,,-0.283854167,-0.498697917,0,0,0,,0,51,51,59,1,BURIAL,LB,old,m,./images/BURIALLB.png,,,,,,,,,,,,,,,,,,,,,,,,,,,,,,,,,,,,
,,,,,,,,,,,,,,,,,5fce736898fa590803b3b0d8,24,2022-02-12_13h26.07.160,lexical_decision_task_DD,2021.2.3,Win32,59.7335882,,,,,,,,,,,0.832,1,,,,,,,,,,,,,,z,1,0.832,,,,,,,,-0.283854167,-0.498697917,0,0,0,,0,52,52,123,1,SEDGE,C,old,z,./images/SEDGE.png,,,,,,,,,,,,,,,,,,,,,,,,,,,,,,,,,,,,
,,,,,,,,,,,,,,,,,5fce736898fa590803b3b0d8,24,2022-02-12_13h26.07.160,lexical_decision_task_DD,2021.2.3,Win32,59.7335882,,,,,,,,,,,0.691,1,,,,,,,,,,,,,,m,1,0.691,,,,,,,,-0.283854167,-0.498697917,0,0,0,,0,53,53,5,1,PASTA,LB,old,m,./images/PASTALB.png,,,,,,,,,,,,,,,,,,,,,,,,,,,,,,,,,,,,
,,,,,,,,,,,,,,,,,5fce736898fa590803b3b0d8,24,2022-02-12_13h26.07.160,lexical_decision_task_DD,2021.2.3,Win32,59.7335882,,,,,,,,,,,1.0243,1,,,,,,,,,,,,,,m,1,1.0243,,,,,,,,-0.283854167,-0.498697917,0,0,0,,0,54,54,52,1,BANNER,HB,old,m,./images/BANNERHB.png,,,,,,,,,,,,,,,,,,,,,,,,,,,,,,,,,,,,
,,,,,,,,,,,,,,,,,5fce736898fa590803b3b0d8,24,2022-02-12_13h26.07.160,lexical_decision_task_DD,2021.2.3,Win32,59.7335882,,,,,,,,,,,1.3834,1,,,,,,,,,,,,,,z,1,1.3834,,,,,,,,-0.283854167,-0.498697917,0,0,0,,0,55,55,121,1,CEERS,HB,old,z,./images/CEERSHB.png,,,,,,,,,,,,,,,,,,,,,,,,,,,,,,,,,,,,
,,,,,,,,,,,,,,,,,5fce736898fa590803b3b0d8,24,2022-02-12_13h26.07.160,lexical_decision_task_DD,2021.2.3,Win32,59.7335882,,,,,,,,,,,1.0014,1,,,,,,,,,,,,,,z,1,1.0014,,,,,,,,-0.283854167,-0.498697917,0,0,0,,0,56,56,95,1,HANTY,LB,old,z,./images/HANTYLB.png,,,,,,,,,,,,,,,,,,,,,,,,,,,,,,,,,,,,
,,,,,,,,,,,,,,,,,5fce736898fa590803b3b0d8,24,2022-02-12_13h26.07.160,lexical_decision_task_DD,2021.2.3,Win32,59.7335882,,,,,,,,,,,0.6139,1,,,,,,,,,,,,,,m,1,0.6139,,,,,,,,-0.283854167,-0.498697917,0,0,0,,0,57,57,3,1,FINGER,C,old,m,./images/FINGER.png,,,,,,,,,,,,,,,,,,,,,,,,,,,,,,,,,,,,
,,,,,,,,,,,,,,,,,5fce736898fa590803b3b0d8,24,2022-02-12_13h26.07.160,lexical_decision_task_DD,2021.2.3,Win32,59.7335882,,,,,,,,,,,0.991,1,,,,,,,,,,,,,,m,1,0.991,,,,,,,,-0.283854167,-0.498697917,0,0,0,,0,58,58,45,1,KITTEN,C,old,m,./images/KITTEN.png,,,,,,,,,,,,,,,,,,,,,,,,,,,,,,,,,,,,
,,,,,,,,,,,,,,,,,5fce736898fa590803b3b0d8,24,2022-02-12_13h26.07.160,lexical_decision_task_DD,2021.2.3,Win32,59.7335882,,,,,,,,,,,0.5815,1,,,,,,,,,,,,,,z,1,0.5815,,,,,,,,-0.283854167,-0.498697917,0,0,0,,0,59,59,135,1,JOODY,C,old,z,./images/JOODY.png,,,,,,,,,,,,,,,,,,,,,,,,,,,,,,,,,,,,
,,,,,,,,,,,,,,,,,5fce736898fa590803b3b0d8,24,2022-02-12_13h26.07.160,lexical_decision_task_DD,2021.2.3,Win32,59.7335882,,,,,,,,,,,0.798400001,1,,,,,,,,,,,,,,m,1,0.798400001,,,,,,,,-0.283854167,-0.498697917,0,0,0,,0,60,60,70,1,URINE,HB,old,m,./images/URINEHB.png,,,,,,,,,,,,,,,,,,,,,,,,,,,,,,,,,,,,
,,,,,,,,,,,,,,,,,5fce736898fa590803b3b0d8,24,2022-02-12_13h26.07.160,lexical_decision_task_DD,2021.2.3,Win32,59.7335882,,,,,,,,,,,0.76,1,,,,,,,,,,,,,,z,1,0.76,,,,,,,,-0.283854167,-0.498697917,0,0,0,,0,61,61,107,1,FASKS,LB,old,z,./images/FASKSLB.png,,,,,,,,,,,,,,,,,,,,,,,,,,,,,,,,,,,,
,,,,,,,,,,,,,,,,,5fce736898fa590803b3b0d8,24,2022-02-12_13h26.07.160,lexical_decision_task_DD,2021.2.3,Win32,59.7335882,,,,,,,,,,,0.5931,1,,,,,,,,,,,,,,z,1,0.5931,,,,,,,,-0.283854167,-0.498697917,0,0,0,,0,62,62,137,1,JOOST,LB,old,z,./images/JOOSTLB.png,,,,,,,,,,,,,,,,,,,,,,,,,,,,,,,,,,,,
,,,,,,,,,,,,,,,,,5fce736898fa590803b3b0d8,24,2022-02-12_13h26.07.160,lexical_decision_task_DD,2021.2.3,Win32,59.7335882,,,,,,,,,,,1.5261,1,,,,,,,,,,,,,,z,1,1.5261,,,,,,,,-0.283854167,-0.498697917,0,0,0,,0,63,63,157,1,INLER,HB,old,z,./images/INLERHB.png,,,,,,,,,,,,,,,,,,,,,,,,,,,,,,,,,,,,
,,,,,,,,,,,,,,,,,5fce736898fa590803b3b0d8,24,2022-02-12_13h26.07.160,lexical_decision_task_DD,2021.2.3,Win32,59.7335882,,,,,,,,,,,0.841599999,1,,,,,,,,,,,,,,z,1,0.841599999,,,,,,,,-0.283854167,-0.498697917,0,0,0,,0,64,64,119,1,PAFER,LB,old,z,./images/PAFERLB.png,,,,,,,,,,,,,,,,,,,,,,,,,,,,,,,,,,,,
,,,,,,,,,,,,,,,,,5fce736898fa590803b3b0d8,24,2022-02-12_13h26.07.160,lexical_decision_task_DD,2021.2.3,Win32,59.7335882,,,,,,,,,,,0.7112,1,,,,,,,,,,,,,,m,1,0.7112,,,,,,,,-0.283854167,-0.498697917,0,0,0,,0,65,65,38,1,LADDER,LB,old,m,./images/LADDERLB.png,,,,,,,,,,,,,,,,,,,,,,,,,,,,,,,,,,,,
,,,,,,,,,,,,,,,,,5fce736898fa590803b3b0d8,24,2022-02-12_13h26.07.160,lexical_decision_task_DD,2021.2.3,Win32,59.7335882,,,,,,,,,,,0.6992,1,,,,,,,,,,,,,,m,1,0.6992,,,,,,,,-0.283854167,-0.498697917,0,0,0,,0,66,66,7,1,PAINT,HB,old,m,./images/PAINTHB.png,,,,,,,,,,,,,,,,,,,,,,,,,,,,,,,,,,,,
,,,,,,,,,,,,,,,,,5fce736898fa590803b3b0d8,24,2022-02-12_13h26.07.160,lexical_decision_task_DD,2021.2.3,Win32,59.7335882,,,,,,,,,,,0.837,1,,,,,,,,,,,,,,z,1,0.837,,,,,,,,-0.283854167,-0.498697917,0,0,0,,0,67,67,136,1,WERVE,HB,old,z,./images/WERVEHB.png,,,,,,,,,,,,,,,,,,,,,,,,,,,,,,,,,,,,
,,,,,,,,,,,,,,,,,5fce736898fa590803b3b0d8,24,2022-02-12_13h26.07.160,lexical_decision_task_DD,2021.2.3,Win32,59.7335882,,,,,,,,,,,0.6876,1,,,,,,,,,,,,,,z,1,0.6876,,,,,,,,-0.283854167,-0.498697917,0,0,0,,0,68,68,126,1,GUELS,C,old,z,./images/GUELS.png,,,,,,,,,,,,,,,,,,,,,,,,,,,,,,,,,,,,
,,,,,,,,,,,,,,,,,5fce736898fa590803b3b0d8,24,2022-02-12_13h26.07.160,lexical_decision_task_DD,2021.2.3,Win32,59.7335882,,,,,,,,,,,0.6826,1,,,,,,,,,,,,,,z,1,0.6826,,,,,,,,-0.283854167,-0.498697917,0,0,0,,0,69,69,102,1,DULLE,C,old,z,./images/DULLE.png,,,,,,,,,,,,,,,,,,,,,,,,,,,,,,,,,,,,
,,,,,,,,,,,,,,,,,5fce736898fa590803b3b0d8,24,2022-02-12_13h26.07.160,lexical_decision_task_DD,2021.2.3,Win32,59.7335882,,,,,,,,,,,0.6262,1,,,,,,,,,,,,,,m,1,0.6262,,,,,,,,-0.283854167,-0.498697917,0,0,0,,0,70,70,0,1,TOMATO,C,old,m,./images/TOMATO.png,,,,,,,,,,,,,,,,,,,,,,,,,,,,,,,,,,,,
,,,,,,,,,,,,,,,,,5fce736898fa590803b3b0d8,24,2022-02-12_13h26.07.160,lexical_decision_task_DD,2021.2.3,Win32,59.7335882,,,,,,,,,,,0.972700001,1,,,,,,,,,,,,,,m,1,0.972700001,,,,,,,,-0.283854167,-0.498697917,0,0,0,,0,71,71,9,1,RHINO,C,old,m,./images/RHINO.png,,,,,,,,,,,,,,,,,,,,,,,,,,,,,,,,,,,,
,,,,,,,,,,,,,,,,,5fce736898fa590803b3b0d8,24,2022-02-12_13h26.07.160,lexical_decision_task_DD,2021.2.3,Win32,59.7335882,,,,,,,,,,,1.1874,1,,,,,,,,,,,,,,m,1,1.1874,,,,,,,,-0.283854167,-0.498697917,0,0,0,,0,72,72,58,1,BABOON,HB,old,m,./images/BABOONHB.png,,,,,,,,,,,,,,,,,,,,,,,,,,,,,,,,,,,,
,,,,,,,,,,,,,,,,,5fce736898fa590803b3b0d8,24,2022-02-12_13h26.07.160,lexical_decision_task_DD,2021.2.3,Win32,59.7335882,,,,,,,,,,,0.7652,1,,,,,,,,,,,,,,m,1,0.7652,,,,,,,,-0.283854167,-0.498697917,0,0,0,,0,73,73,11,1,BONNET,LB,old,m,./images/BONNETLB.png,,,,,,,,,,,,,,,,,,,,,,,,,,,,,,,,,,,,
,,,,,,,,,,,,,,,,,5fce736898fa590803b3b0d8,24,2022-02-12_13h26.07.160,lexical_decision_task_DD,2021.2.3,Win32,59.7335882,,,,,,,,,,,1.2415,1,,,,,,,,,,,,,,z,1,1.2415,,,,,,,,-0.283854167,-0.498697917,0,0,0,,0,74,74,148,1,JOMS,HB,old,z,./images/JOMSHB.png,,,,,,,,,,,,,,,,,,,,,,,,,,,,,,,,,,,,
,,,,,,,,,,,,,,,,,5fce736898fa590803b3b0d8,24,2022-02-12_13h26.07.160,lexical_decision_task_DD,2021.2.3,Win32,59.7335882,,,,,,,,,,,0.612,1,,,,,,,,,,,,,,z,1,0.612,,,,,,,,-0.283854167,-0.498697917,0,0,0,,0,75,75,122,1,BLOOT,LB,old,z,./images/BLOOTLB.png,,,,,,,,,,,,,,,,,,,,,,,,,,,,,,,,,,,,
,,,,,,,,,,,,,,,,,5fce736898fa590803b3b0d8,24,2022-02-12_13h26.07.160,lexical_decision_task_DD,2021.2.3,Win32,59.7335882,,,,,,,,,,,1.1937,1,,,,,,,,,,,,,,z,1,1.1937,,,,,,,,-0.283854167,-0.498697917,0,0,0,,0,76,76,146,1,MOOST,LB,old,z,./images/MOOSTLB.png,,,,,,,,,,,,,,,,,,,,,,,,,,,,,,,,,,,,
,,,,,,,,,,,,,,,,,5fce736898fa590803b3b0d8,24,2022-02-12_13h26.07.160,lexical_decision_task_DD,2021.2.3,Win32,59.7335882,,,,,,,,,,,0.548400001,1,,,,,,,,,,,,,,z,1,0.548400001,,,,,,,,-0.283854167,-0.498697917,0,0,0,,0,77,77,86,1,AIFED,LB,old,z,./images/AIFEDLB.png,,,,,,,,,,,,,,,,,,,,,,,,,,,,,,,,,,,,
,,,,,,,,,,,,,,,,,5fce736898fa590803b3b0d8,24,2022-02-12_13h26.07.160,lexical_decision_task_DD,2021.2.3,Win32,59.7335882,,,,,,,,,,,1.006,1,,,,,,,,,,,,,,m,1,1.006,,,,,,,,-0.283854167,-0.498697917,0,0,0,,0,78,78,13,1,MOTOR,HB,old,m,./images/MOTORHB.png,,,,,,,,,,,,,,,,,,,,,,,,,,,,,,,,,,,,
,,,,,,,,,,,,,,,,,5fce736898fa590803b3b0d8,24,2022-02-12_13h26.07.160,lexical_decision_task_DD,2021.2.3,Win32,59.7335882,,,,,,,,,,,1.1374,1,,,,,,,,,,,,,,z,1,1.1374,,,,,,,,-0.283854167,-0.498697917,0,0,0,,0,79,79,111,1,HOSSE,C,old,z,./images/HOSSE.png,,,,,,,,,,,,,,,,,,,,,,,,,,,,,,,,,,,,
,,,,,,,,,,,,,,,,,5fce736898fa590803b3b0d8,24,2022-02-12_13h26.07.160,lexical_decision_task_DD,2021.2.3,Win32,59.7335882,,,,,,,,,,,0.7502,1,,,,,,,,,,,,,,m,1,0.7502,,,,,,,,-0.283854167,-0.498697917,0,0,0,,0,80,80,55,1,MUFFIN,HB,old,m,./images/MUFFINHB.png,,,,,,,,,,,,,,,,,,,,,,,,,,,,,,,,,,,,
,,,,,,,,,,,,,,,,,5fce736898fa590803b3b0d8,24,2022-02-12_13h26.07.160,lexical_decision_task_DD,2021.2.3,Win32,59.7335882,,,,,,,,,,,0.7299,1,,,,,,,,,,,,,,z,1,0.7299,,,,,,,,-0.283854167,-0.498697917,0,0,0,,0,81,81,118,1,BAVEL,HB,old,z,./images/BAVELHB.png,,,,,,,,,,,,,,,,,,,,,,,,,,,,,,,,,,,,
,,,,,,,,,,,,,,,,,5fce736898fa590803b3b0d8,24,2022-02-12_13h26.07.160,lexical_decision_task_DD,2021.2.3,Win32,59.7335882,,,,,,,,,,,0.6915,1,,,,,,,,,,,,,,z,1,0.6915,,,,,,,,-0.283854167,-0.498697917,0,0,0,,0,82,82,87,1,TRING,C,old,z,./images/TRING.png,,,,,,,,,,,,,,,,,,,,,,,,,,,,,,,,,,,,
,,,,,,,,,,,,,,,,,5fce736898fa590803b3b0d8,24,2022-02-12_13h26.07.160,lexical_decision_task_DD,2021.2.3,Win32,59.7335882,,,,,,,,,,,0.8465,1,,,,,,,,,,,,,,z,1,0.8465,,,,,,,,-0.283854167,-0.498697917,0,0,0,space,0,83,83,134,1,TROSS,LB,old,z,./images/TROSSLB.png,4.506299999,,,,,,,,,,,,,,,,,,,,,,,,,,,,,,,,,,,
,,,,,,,,,,,,,,,,,5fce736898fa590803b3b0d8,24,2022-02-12_13h26.07.160,lexical_decision_task_DD,2021.2.3,Win32,59.7335882,,,,,,,,,,,0.983900001,1,,,,,,,,,,,,,,m,1,0.983900001,,,,,,,,-0.283854167,-0.498697917,0,0,0,,0,84,84,30,1,STORM,C,old,m,./images/STORM.png,,,,,,,,,,,,,,,,,,,,,,,,,,,,,,,,,,,,
,,,,,,,,,,,,,,,,,5fce736898fa590803b3b0d8,24,2022-02-12_13h26.07.160,lexical_decision_task_DD,2021.2.3,Win32,59.7335882,,,,,,,,,,,0.9095,1,,,,,,,,,,,,,,m,1,0.9095,,,,,,,,-0.283854167,-0.498697917,0,0,0,,0,85,85,77,1,COUCH,LB,old,m,./images/COUCHLB.png,,,,,,,,,,,,,,,,,,,,,,,,,,,,,,,,,,,,
,,,,,,,,,,,,,,,,,5fce736898fa590803b3b0d8,24,2022-02-12_13h26.07.160,lexical_decision_task_DD,2021.2.3,Win32,59.7335882,,,,,,,,,,,0.9625,1,,,,,,,,,,,,,,z,1,0.9625,,,,,,,,-0.283854167,-0.498697917,0,0,0,,0,86,86,106,1,CLUMS,HB,old,z,./images/CLUMSHB.png,,,,,,,,,,,,,,,,,,,,,,,,,,,,,,,,,,,,
,,,,,,,,,,,,,,,,,5fce736898fa590803b3b0d8,24,2022-02-12_13h26.07.160,lexical_decision_task_DD,2021.2.3,Win32,59.7335882,,,,,,,,,,,0.848799999,1,,,,,,,,,,,,,,z,1,0.848799999,,,,,,,,-0.283854167,-0.498697917,0,0,0,,0,87,87,92,1,PAIMS,LB,old,z,./images/PAIMSLB.png,,,,,,,,,,,,,,,,,,,,,,,,,,,,,,,,,,,,
,,,,,,,,,,,,,,,,,5fce736898fa590803b3b0d8,24,2022-02-12_13h26.07.160,lexical_decision_task_DD,2021.2.3,Win32,59.7335882,,,,,,,,,,,0.8529,1,,,,,,,,,,,,,,m,1,0.8529,,,,,,,,-0.283854167,-0.498697917,0,0,0,,0,88,88,76,1,INFANT,HB,old,m,./images/INFANTHB.png,,,,,,,,,,,,,,,,,,,,,,,,,,,,,,,,,,,,
,,,,,,,,,,,,,,,,,5fce736898fa590803b3b0d8,24,2022-02-12_13h26.07.160,lexical_decision_task_DD,2021.2.3,Win32,59.7335882,,,,,,,,,,,1.025599999,1,,,,,,,,,,,,,,m,1,1.025599999,,,,,,,,-0.283854167,-0.498697917,0,0,0,,0,89,89,32,1,BARREL,LB,old,m,./images/BARRELLB.png,,,,,,,,,,,,,,,,,,,,,,,,,,,,,,,,,,,,
,,,,,,,,,,,,,,,,,5fce736898fa590803b3b0d8,24,2022-02-12_13h26.07.160,lexical_decision_task_DD,2021.2.3,Win32,59.7335882,,,,,,,,,,,0.784,1,,,,,,,,,,,,,,z,1,0.784,,,,,,,,-0.283854167,-0.498697917,0,0,0,,0,90,90,160,1,VEETS,HB,old,z,./images/VEETSHB.png,,,,,,,,,,,,,,,,,,,,,,,,,,,,,,,,,,,,
,,,,,,,,,,,,,,,,,5fce736898fa590803b3b0d8,24,2022-02-12_13h26.07.160,lexical_decision_task_DD,2021.2.3,Win32,59.7335882,,,,,,,,,,,1.445599999,1,,,,,,,,,,,,,,m,1,1.445599999,,,,,,,,-0.283854167,-0.498697917,0,0,0,,0,91,91,2,1,BEARD,LB,old,m,./images/BEARDLB.png,,,,,,,,,,,,,,,,,,,,,,,,,,,,,,,,,,,,
,,,,,,,,,,,,,,,,,5fce736898fa590803b3b0d8,24,2022-02-12_13h26.07.160,lexical_decision_task_DD,2021.2.3,Win32,59.7335882,,,,,,,,,,,0.851,1,,,,,,,,,,,,,,z,1,0.851,,,,,,,,-0.283854167,-0.498697917,0,0,0,,0,92,92,138,1,PLICE,C,old,z,./images/PLICE.png,,,,,,,,,,,,,,,,,,,,,,,,,,,,,,,,,,,,
,,,,,,,,,,,,,,,,,5fce736898fa590803b3b0d8,24,2022-02-12_13h26.07.160,lexical_decision_task_DD,2021.2.3,Win32,59.7335882,,,,,,,,,,,1.1497,1,,,,,,,,,,,,,,z,1,1.1497,,,,,,,,-0.283854167,-0.498697917,0,0,0,,0,93,93,88,1,GLUSH,HB,old,z,./images/GLUSHHB.png,,,,,,,,,,,,,,,,,,,,,,,,,,,,,,,,,,,,
,,,,,,,,,,,,,,,,,5fce736898fa590803b3b0d8,24,2022-02-12_13h26.07.160,lexical_decision_task_DD,2021.2.3,Win32,59.7335882,,,,,,,,,,,0.628,1,,,,,,,,,,,,,,z,1,0.628,,,,,,,,-0.283854167,-0.498697917,0,0,0,,0,94,94,101,1,GLEET,LB,old,z,./images/GLEETLB.png,,,,,,,,,,,,,,,,,,,,,,,,,,,,,,,,,,,,
,,,,,,,,,,,,,,,,,5fce736898fa590803b3b0d8,24,2022-02-12_13h26.07.160,lexical_decision_task_DD,2021.2.3,Win32,59.7335882,,,,,,,,,,,1.007400001,1,,,,,,,,,,,,,,m,1,1.007400001,,,,,,,,-0.283854167,-0.498697917,0,0,0,,0,95,95,49,1,DRUMS,HB,old,m,./images/DRUMSHB.png,,,,,,,,,,,,,,,,,,,,,,,,,,,,,,,,,,,,
,,,,,,,,,,,,,,,,,5fce736898fa590803b3b0d8,24,2022-02-12_13h26.07.160,lexical_decision_task_DD,2021.2.3,Win32,59.7335882,,,,,,,,,,,1.2788,1,,,,,,,,,,,,,,m,1,1.2788,,,,,,,,-0.283854167,-0.498697917,0,0,0,,0,96,96,28,1,FALCON,HB,old,m,./images/FALCONHB.png,,,,,,,,,,,,,,,,,,,,,,,,,,,,,,,,,,,,
,,,,,,,,,,,,,,,,,5fce736898fa590803b3b0d8,24,2022-02-12_13h26.07.160,lexical_decision_task_DD,2021.2.3,Win32,59.7335882,,,,,,,,,,,1.2813,0,,,,,,,,,,,,,,z,0,1.2813,,,,,,,,-0.283854167,-0.498697917,0,0,0,,0,97,97,16,1,PENCE,HB,old,m,./images/PENCEHB.png,,,,,,,,,,,,,,,,,,,,,,,,,,,,,,,,,,,,
,,,,,,,,,,,,,,,,,5fce736898fa590803b3b0d8,24,2022-02-12_13h26.07.160,lexical_decision_task_DD,2021.2.3,Win32,59.7335882,,,,,,,,,,,1.0768,1,,,,,,,,,,,,,,m,1,1.0768,,,,,,,,-0.283854167,-0.498697917,0,0,0,,0,98,98,14,1,PICKLE,LB,old,m,./images/PICKLELB.png,,,,,,,,,,,,,,,,,,,,,,,,,,,,,,,,,,,,
,,,,,,,,,,,,,,,,,5fce736898fa590803b3b0d8,24,2022-02-12_13h26.07.160,lexical_decision_task_DD,2021.2.3,Win32,59.7335882,,,,,,,,,,,1.288,1,,,,,,,,,,,,,,m,1,1.288,,,,,,,,-0.283854167,-0.498697917,0,0,0,,0,99,99,33,1,MAGGOT,C,old,m,./images/MAGGOT.png,,,,,,,,,,,,,,,,,,,,,,,,,,,,,,,,,,,,
,,,,,,,,,,,,,,,,,5fce736898fa590803b3b0d8,24,2022-02-12_13h26.07.160,lexical_decision_task_DD,2021.2.3,Win32,59.7335882,,,,,,,,,,,0.702700001,1,,,,,,,,,,,,,,m,1,0.702700001,,,,,,,,-0.283854167,-0.498697917,0,0,0,,0,100,100,46,1,PEARL,HB,old,m,./images/PEARLHB.png,,,,,,,,,,,,,,,,,,,,,,,,,,,,,,,,,,,,
,,,,,,,,,,,,,,,,,5fce736898fa590803b3b0d8,24,2022-02-12_13h26.07.160,lexical_decision_task_DD,2021.2.3,Win32,59.7335882,,,,,,,,,,,0.9908,1,,,,,,,,,,,,,,m,1,0.9908,,,,,,,,-0.283854167,-0.498697917,0,0,0,,0,101,101,54,1,TRIPOD,C,old,m,./images/TRIPOD.png,,,,,,,,,,,,,,,,,,,,,,,,,,,,,,,,,,,,
,,,,,,,,,,,,,,,,,5fce736898fa590803b3b0d8,24,2022-02-12_13h26.07.160,lexical_decision_task_DD,2021.2.3,Win32,59.7335882,,,,,,,,,,,1.1582,1,,,,,,,,,,,,,,z,1,1.1582,,,,,,,,-0.283854167,-0.498697917,0,0,0,,0,102,102,155,1,CANGY,LB,old,z,./images/CANGYLB.png,,,,,,,,,,,,,,,,,,,,,,,,,,,,,,,,,,,,
,,,,,,,,,,,,,,,,,5fce736898fa590803b3b0d8,24,2022-02-12_13h26.07.160,lexical_decision_task_DD,2021.2.3,Win32,59.7335882,,,,,,,,,,,0.7494,1,,,,,,,,,,,,,,m,1,0.7494,,,,,,,,-0.283854167,-0.498697917,0,0,0,,0,103,103,24,1,SCREW,C,old,m,./images/SCREW.png,,,,,,,,,,,,,,,,,,,,,,,,,,,,,,,,,,,,
,,,,,,,,,,,,,,,,,5fce736898fa590803b3b0d8,24,2022-02-12_13h26.07.160,lexical_decision_task_DD,2021.2.3,Win32,59.7335882,,,,,,,,,,,0.7814,1,,,,,,,,,,,,,,m,1,0.7814,,,,,,,,-0.283854167,-0.498697917,0,0,0,,0,104,104,36,1,THROAT,C,old,m,./images/THROAT.png,,,,,,,,,,,,,,,,,,,,,,,,,,,,,,,,,,,,
,,,,,,,,,,,,,,,,,5fce736898fa590803b3b0d8,24,2022-02-12_13h26.07.160,lexical_decision_task_DD,2021.2.3,Win32,59.7335882,,,,,,,,,,,0.9415,0,,,,,,,,,,,,,,m,0,0.9415,,,,,,,,-0.283854167,-0.498697917,0,0,0,,0,105,105,166,1,SHORY,HB,old,z,./images/SHORYHB.png,,,,,,,,,,,,,,,,,,,,,,,,,,,,,,,,,,,,
,,,,,,,,,,,,,,,,,5fce736898fa590803b3b0d8,24,2022-02-12_13h26.07.160,lexical_decision_task_DD,2021.2.3,Win32,59.7335882,,,,,,,,,,,1.5233,1,,,,,,,,,,,,,,m,1,1.5233,,,,,,,,-0.283854167,-0.498697917,0,0,0,,0,106,106,69,1,COOKER,C,old,m,./images/COOKER.png,,,,,,,,,,,,,,,,,,,,,,,,,,,,,,,,,,,,
,,,,,,,,,,,,,,,,,5fce736898fa590803b3b0d8,24,2022-02-12_13h26.07.160,lexical_decision_task_DD,2021.2.3,Win32,59.7335882,,,,,,,,,,,1.0788,1,,,,,,,,,,,,,,z,1,1.0788,,,,,,,,-0.283854167,-0.498697917,0,0,0,,0,107,107,158,1,EGECT,LB,old,z,./images/EGECTLB.png,,,,,,,,,,,,,,,,,,,,,,,,,,,,,,,,,,,,
,,,,,,,,,,,,,,,,,5fce736898fa590803b3b0d8,24,2022-02-12_13h26.07.160,lexical_decision_task_DD,2021.2.3,Win32,59.7335882,,,,,,,,,,,0.7632,1,,,,,,,,,,,,,,z,1,0.7632,,,,,,,,-0.283854167,-0.498697917,0,0,0,,0,108,108,96,1,KEAMS,C,old,z,./images/KEAMS.png,,,,,,,,,,,,,,,,,,,,,,,,,,,,,,,,,,,,
,,,,,,,,,,,,,,,,,5fce736898fa590803b3b0d8,24,2022-02-12_13h26.07.160,lexical_decision_task_DD,2021.2.3,Win32,59.7335882,,,,,,,,,,,0.730700001,1,,,,,,,,,,,,,,m,1,0.730700001,,,,,,,,-0.283854167,-0.498697917,0,0,0,,0,109,109,83,1,JUNGLE,LB,old,m,./images/JUNGLELB.png,,,,,,,,,,,,,,,,,,,,,,,,,,,,,,,,,,,,
,,,,,,,,,,,,,,,,,5fce736898fa590803b3b0d8,24,2022-02-12_13h26.07.160,lexical_decision_task_DD,2021.2.3,Win32,59.7335882,,,,,,,,,,,1.1384,1,,,,,,,,,,,,,,m,1,1.1384,,,,,,,,-0.283854167,-0.498697917,0,0,0,,0,110,110,82,1,SUNSET,HB,old,m,./images/SUNSETHB.png,,,,,,,,,,,,,,,,,,,,,,,,,,,,,,,,,,,,
,,,,,,,,,,,,,,,,,5fce736898fa590803b3b0d8,24,2022-02-12_13h26.07.160,lexical_decision_task_DD,2021.2.3,Win32,59.7335882,,,,,,,,,,,0.848299999,1,,,,,,,,,,,,,,m,1,0.848299999,,,,,,,,-0.283854167,-0.498697917,0,0,0,,0,111,111,79,1,CRUST,HB,old,m,./images/CRUSTHB.png,,,,,,,,,,,,,,,,,,,,,,,,,,,,,,,,,,,,
,,,,,,,,,,,,,,,,,5fce736898fa590803b3b0d8,24,2022-02-12_13h26.07.160,lexical_decision_task_DD,2021.2.3,Win32,59.7335882,,,,,,,,,,,1.166700001,1,,,,,,,,,,,,,,z,1,1.166700001,,,,,,,,-0.283854167,-0.498697917,0,0,0,,0,112,112,91,1,SHENS,HB,old,z,./images/SHENSHB.png,,,,,,,,,,,,,,,,,,,,,,,,,,,,,,,,,,,,
,,,,,,,,,,,,,,,,,5fce736898fa590803b3b0d8,24,2022-02-12_13h26.07.160,lexical_decision_task_DD,2021.2.3,Win32,59.7335882,,,,,,,,,,,0.7518,1,,,,,,,,,,,,,,m,1,0.7518,,,,,,,,-0.283854167,-0.498697917,0,0,0,,0,113,113,10,1,BELLY,HB,old,m,./images/BELLYHB.png,,,,,,,,,,,,,,,,,,,,,,,,,,,,,,,,,,,,
,,,,,,,,,,,,,,,,,5fce736898fa590803b3b0d8,24,2022-02-12_13h26.07.160,lexical_decision_task_DD,2021.2.3,Win32,59.7335882,,,,,,,,,,,1.4842,0,,,,,,,,,,,,,,z,0,1.4842,,,,,,,,-0.283854167,-0.498697917,0,0,0,,0,114,114,39,1,SHELF,C,old,m,./images/SHELF.png,,,,,,,,,,,,,,,,,,,,,,,,,,,,,,,,,,,,
,,,,,,,,,,,,,,,,,5fce736898fa590803b3b0d8,24,2022-02-12_13h26.07.160,lexical_decision_task_DD,2021.2.3,Win32,59.7335882,,,,,,,,,,,0.913099999,1,,,,,,,,,,,,,,z,1,0.913099999,,,,,,,,-0.283854167,-0.498697917,0,0,0,,0,115,115,108,1,GRUET,C,old,z,./images/GRUET.png,,,,,,,,,,,,,,,,,,,,,,,,,,,,,,,,,,,,
,,,,,,,,,,,,,,,,,5fce736898fa590803b3b0d8,24,2022-02-12_13h26.07.160,lexical_decision_task_DD,2021.2.3,Win32,59.7335882,,,,,,,,,,,0.697099999,1,,,,,,,,,,,,,,m,1,0.697099999,,,,,,,,-0.283854167,-0.498697917,0,0,0,,0,116,116,51,1,ONION,C,old,m,./images/ONION.png,,,,,,,,,,,,,,,,,,,,,,,,,,,,,,,,,,,,
,,,,,,,,,,,,,,,,,5fce736898fa590803b3b0d8,24,2022-02-12_13h26.07.160,lexical_decision_task_DD,2021.2.3,Win32,59.7335882,,,,,,,,,,,1.1498,1,,,,,,,,,,,,,,m,1,1.1498,,,,,,,,-0.283854167,-0.498697917,0,0,0,,0,117,117,6,1,SQUARE,C,old,m,./images/SQUARE.png,,,,,,,,,,,,,,,,,,,,,,,,,,,,,,,,,,,,
,,,,,,,,,,,,,,,,,5fce736898fa590803b3b0d8,24,2022-02-12_13h26.07.160,lexical_decision_task_DD,2021.2.3,Win32,59.7335882,,,,,,,,,,,0.8801,1,,,,,,,,,,,,,,z,1,0.8801,,,,,,,,-0.283854167,-0.498697917,0,0,0,,0,118,118,99,1,BACKY,C,old,z,./images/BACKY.png,,,,,,,,,,,,,,,,,,,,,,,,,,,,,,,,,,,,
,,,,,,,,,,,,,,,,,5fce736898fa590803b3b0d8,24,2022-02-12_13h26.07.160,lexical_decision_task_DD,2021.2.3,Win32,59.7335882,,,,,,,,,,,1.139,1,,,,,,,,,,,,,,z,1,1.139,,,,,,,,-0.283854167,-0.498697917,0,0,0,,0,119,119,100,1,DRIBS,HB,old,z,./images/DRIBSHB.png,,,,,,,,,,,,,,,,,,,,,,,,,,,,,,,,,,,,
,,,,,,,,,,,,,,,,,5fce736898fa590803b3b0d8,24,2022-02-12_13h26.07.160,lexical_decision_task_DD,2021.2.3,Win32,59.7335882,,,,,,,,,,,0.7371,1,,,,,,,,,,,,,,z,1,0.7371,,,,,,,,-0.283854167,-0.498697917,0,0,0,,0,120,120,142,1,PLASK,HB,old,z,./images/PLASKHB.png,,,,,,,,,,,,,,,,,,,,,,,,,,,,,,,,,,,,
,,,,,,,,,,,,,,,,,5fce736898fa590803b3b0d8,24,2022-02-12_13h26.07.160,lexical_decision_task_DD,2021.2.3,Win32,59.7335882,,,,,,,,,,,0.6804,1,,,,,,,,,,,,,,m,1,0.6804,,,,,,,,-0.283854167,-0.498697917,0,0,0,,0,121,121,81,1,POODLE,C,old,m,./images/POODLE.png,,,,,,,,,,,,,,,,,,,,,,,,,,,,,,,,,,,,
,,,,,,,,,,,,,,,,,5fce736898fa590803b3b0d8,24,2022-02-12_13h26.07.160,lexical_decision_task_DD,2021.2.3,Win32,59.7335882,,,,,,,,,,,0.7336,1,,,,,,,,,,,,,,z,1,0.7336,,,,,,,,-0.283854167,-0.498697917,0,0,0,,0,122,122,167,1,ZONET,LB,old,z,./images/ZONETLB.png,,,,,,,,,,,,,,,,,,,,,,,,,,,,,,,,,,,,
,,,,,,,,,,,,,,,,,5fce736898fa590803b3b0d8,24,2022-02-12_13h26.07.160,lexical_decision_task_DD,2021.2.3,Win32,59.7335882,,,,,,,,,,,0.6663,0,,,,,,,,,,,,,,z,0,0.6663,,,,,,,,-0.283854167,-0.498697917,0,0,0,,0,123,123,8,1,TULIP,LB,old,m,./images/TULIPLB.png,,,,,,,,,,,,,,,,,,,,,,,,,,,,,,,,,,,,
,,,,,,,,,,,,,,,,,5fce736898fa590803b3b0d8,24,2022-02-12_13h26.07.160,lexical_decision_task_DD,2021.2.3,Win32,59.7335882,,,,,,,,,,,0.8287,1,,,,,,,,,,,,,,z,1,0.8287,,,,,,,,-0.283854167,-0.498697917,0,0,0,,0,124,124,147,1,ZOLES,C,old,z,./images/ZOLES.png,,,,,,,,,,,,,,,,,,,,,,,,,,,,,,,,,,,,
,,,,,,,,,,,,,,,,,5fce736898fa590803b3b0d8,24,2022-02-12_13h26.07.160,lexical_decision_task_DD,2021.2.3,Win32,59.7335882,,,,,,,,,,,0.8216,1,,,,,,,,,,,,,,m,1,0.8216,,,,,,,,-0.117199391,-0.398021309,1,0,0,,0,125,125,73,1,SNACK,HB,old,m,./images/SNACKHB.png,,break_done_button,,,,,,,,,,,,,,,,,,,,,,,,,,,,,,,,,,
,,,,,,,,,,,,,,,,,5fce736898fa590803b3b0d8,24,2022-02-12_13h26.07.160,lexical_decision_task_DD,2021.2.3,Win32,59.7335882,,,,,,,,,,,0.851,1,,,,,,,,,,,,,,z,1,0.851,,,,,,,,-0.426179604,-0.332572298,0,0,0,,0,126,126,98,1,BAMPS,LB,old,z,./images/BAMPSLB.png,,,,,,,,,,,,,,,,,,,,,,,,,,,,,,,,,,,,
,,,,,,,,,,,,,,,,,5fce736898fa590803b3b0d8,24,2022-02-12_13h26.07.160,lexical_decision_task_DD,2021.2.3,Win32,59.7335882,,,,,,,,,,,0.8436,1,,,,,,,,,,,,,,z,1,0.8436,,,,,,,,-0.426179604,-0.332572298,0,0,0,,0,127,127,85,1,CHULK,HB,old,z,./images/CHULKHB.png,,,,,,,,,,,,,,,,,,,,,,,,,,,,,,,,,,,,
,,,,,,,,,,,,,,,,,5fce736898fa590803b3b0d8,24,2022-02-12_13h26.07.160,lexical_decision_task_DD,2021.2.3,Win32,59.7335882,,,,,,,,,,,0.9631,1,,,,,,,,,,,,,,m,1,0.9631,,,,,,,,-0.426179604,-0.332572298,0,0,0,,0,128,128,18,1,JAGUAR,C,old,m,./images/JAGUAR.png,,,,,,,,,,,,,,,,,,,,,,,,,,,,,,,,,,,,
,,,,,,,,,,,,,,,,,5fce736898fa590803b3b0d8,24,2022-02-12_13h26.07.160,lexical_decision_task_DD,2021.2.3,Win32,59.7335882,,,,,,,,,,,0.785200001,1,,,,,,,,,,,,,,z,1,0.785200001,,,,,,,,-0.426179604,-0.332572298,0,0,0,,0,129,129,149,1,VEASE,LB,old,z,./images/VEASELB.png,,,,,,,,,,,,,,,,,,,,,,,,,,,,,,,,,,,,
,,,,,,,,,,,,,,,,,5fce736898fa590803b3b0d8,24,2022-02-12_13h26.07.160,lexical_decision_task_DD,2021.2.3,Win32,59.7335882,,,,,,,,,,,0.851599999,1,,,,,,,,,,,,,,z,1,0.851599999,,,,,,,,-0.426179604,-0.332572298,0,0,0,,0,130,130,139,1,BLEAR,HB,old,z,./images/BLEARHB.png,,,,,,,,,,,,,,,,,,,,,,,,,,,,,,,,,,,,
,,,,,,,,,,,,,,,,,5fce736898fa590803b3b0d8,24,2022-02-12_13h26.07.160,lexical_decision_task_DD,2021.2.3,Win32,59.7335882,,,,,,,,,,,0.8315,1,,,,,,,,,,,,,,m,1,0.8315,,,,,,,,-0.426179604,-0.332572298,0,0,0,,0,131,131,35,1,PEACH,LB,old,m,./images/PEACHLB.png,,,,,,,,,,,,,,,,,,,,,,,,,,,,,,,,,,,,
,,,,,,,,,,,,,,,,,5fce736898fa590803b3b0d8,24,2022-02-12_13h26.07.160,lexical_decision_task_DD,2021.2.3,Win32,59.7335882,,,,,,,,,,,0.662099999,1,,,,,,,,,,,,,,m,1,0.662099999,,,,,,,,-0.426179604,-0.332572298,0,0,0,,0,132,132,64,1,JELLY,HB,old,m,./images/JELLYHB.png,,,,,,,,,,,,,,,,,,,,,,,,,,,,,,,,,,,,
,,,,,,,,,,,,,,,,,5fce736898fa590803b3b0d8,24,2022-02-12_13h26.07.160,lexical_decision_task_DD,2021.2.3,Win32,59.7335882,,,,,,,,,,,1.0055,1,,,,,,,,,,,,,,z,1,1.0055,,,,,,,,-0.426179604,-0.332572298,0,0,0,,0,133,133,115,1,MAWNS,HB,old,z,./images/MAWNSHB.png,,,,,,,,,,,,,,,,,,,,,,,,,,,,,,,,,,,,
,,,,,,,,,,,,,,,,,5fce736898fa590803b3b0d8,24,2022-02-12_13h26.07.160,lexical_decision_task_DD,2021.2.3,Win32,59.7335882,,,,,,,,,,,0.871400001,1,,,,,,,,,,,,,,m,1,0.871400001,,,,,,,,-0.426179604,-0.332572298,0,0,0,,0,134,134,22,1,MELON,HB,old,m,./images/MELONHB.png,,,,,,,,,,,,,,,,,,,,,,,,,,,,,,,,,,,,
,,,,,,,,,,,,,,,,,5fce736898fa590803b3b0d8,24,2022-02-12_13h26.07.160,lexical_decision_task_DD,2021.2.3,Win32,59.7335882,,,,,,,,,,,0.685900001,1,,,,,,,,,,,,,,m,1,0.685900001,,,,,,,,-0.426179604,-0.332572298,0,0,0,,0,135,135,65,1,FARMER,LB,old,m,./images/FARMERLB.png,,,,,,,,,,,,,,,,,,,,,,,,,,,,,,,,,,,,
,,,,,,,,,,,,,,,,,5fce736898fa590803b3b0d8,24,2022-02-12_13h26.07.160,lexical_decision_task_DD,2021.2.3,Win32,59.7335882,,,,,,,,,,,0.6501,1,,,,,,,,,,,,,,m,1,0.6501,,,,,,,,-0.426179604,-0.332572298,0,0,0,,0,136,136,48,1,SPORT,C,old,m,./images/SPORT.png,,,,,,,,,,,,,,,,,,,,,,,,,,,,,,,,,,,,
,,,,,,,,,,,,,,,,,5fce736898fa590803b3b0d8,24,2022-02-12_13h26.07.160,lexical_decision_task_DD,2021.2.3,Win32,59.7335882,,,,,,,,,,,0.7489,1,,,,,,,,,,,,,,z,1,0.7489,,,,,,,,-0.426179604,-0.332572298,0,0,0,,0,137,137,110,1,CRUNK,LB,old,z,./images/CRUNKLB.png,,,,,,,,,,,,,,,,,,,,,,,,,,,,,,,,,,,,
,,,,,,,,,,,,,,,,,5fce736898fa590803b3b0d8,24,2022-02-12_13h26.07.160,lexical_decision_task_DD,2021.2.3,Win32,59.7335882,,,,,,,,,,,1.278799999,1,,,,,,,,,,,,,,z,1,1.278799999,,,,,,,,-0.426179604,-0.332572298,0,0,0,,0,138,138,97,1,CHIDS,HB,old,z,./images/CHIDSHB.png,,,,,,,,,,,,,,,,,,,,,,,,,,,,,,,,,,,,
,,,,,,,,,,,,,,,,,5fce736898fa590803b3b0d8,24,2022-02-12_13h26.07.160,lexical_decision_task_DD,2021.2.3,Win32,59.7335882,,,,,,,,,,,0.7641,1,,,,,,,,,,,,,,z,1,0.7641,,,,,,,,-0.426179604,-0.332572298,0,0,0,,0,139,139,105,1,MOKER,C,old,z,./images/MOKER.png,,,,,,,,,,,,,,,,,,,,,,,,,,,,,,,,,,,,
,,,,,,,,,,,,,,,,,5fce736898fa590803b3b0d8,24,2022-02-12_13h26.07.160,lexical_decision_task_DD,2021.2.3,Win32,59.7335882,,,,,,,,,,,1.658700001,1,,,,,,,,,,,,,,m,1,1.658700001,,,,,,,,-0.426179604,-0.332572298,0,0,0,,0,140,140,1,1,PLANK,HB,old,m,./images/PLANKHB.png,,,,,,,,,,,,,,,,,,,,,,,,,,,,,,,,,,,,
,,,,,,,,,,,,,,,,,5fce736898fa590803b3b0d8,24,2022-02-12_13h26.07.160,lexical_decision_task_DD,2021.2.3,Win32,59.7335882,,,,,,,,,,,1.163099999,1,,,,,,,,,,,,,,m,1,1.163099999,,,,,,,,-0.426179604,-0.332572298,0,0,0,,0,141,141,12,1,SHORE,C,old,m,./images/SHORE.png,,,,,,,,,,,,,,,,,,,,,,,,,,,,,,,,,,,,
,,,,,,,,,,,,,,,,,5fce736898fa590803b3b0d8,24,2022-02-12_13h26.07.160,lexical_decision_task_DD,2021.2.3,Win32,59.7335882,,,,,,,,,,,0.6455,1,,,,,,,,,,,,,,z,1,0.6455,,,,,,,,-0.426179604,-0.332572298,0,0,0,,0,142,142,132,1,SCIFF,C,old,z,./images/SCIFF.png,,,,,,,,,,,,,,,,,,,,,,,,,,,,,,,,,,,,
,,,,,,,,,,,,,,,,,5fce736898fa590803b3b0d8,24,2022-02-12_13h26.07.160,lexical_decision_task_DD,2021.2.3,Win32,59.7335882,,,,,,,,,,,0.999599999,1,,,,,,,,,,,,,,z,1,0.999599999,,,,,,,,-0.426179604,-0.332572298,0,0,0,,0,143,143,133,1,POWDY,HB,old,z,./images/POWDYHB.png,,,,,,,,,,,,,,,,,,,,,,,,,,,,,,,,,,,,
,,,,,,,,,,,,,,,,,5fce736898fa590803b3b0d8,24,2022-02-12_13h26.07.160,lexical_decision_task_DD,2021.2.3,Win32,59.7335882,,,,,,,,,,,1.2211,1,,,,,,,,,,,,,,z,1,1.2211,,,,,,,,-0.426179604,-0.332572298,0,0,0,,0,144,144,152,1,FRAIN,LB,old,z,./images/FRAINLB.png,,,,,,,,,,,,,,,,,,,,,,,,,,,,,,,,,,,,
,,,,,,,,,,,,,,,,,5fce736898fa590803b3b0d8,24,2022-02-12_13h26.07.160,lexical_decision_task_DD,2021.2.3,Win32,59.7335882,,,,,,,,,,,1.1148,1,,,,,,,,,,,,,,z,1,1.1148,,,,,,,,-0.426179604,-0.332572298,0,0,0,,0,145,145,165,1,TROWN,C,old,z,./images/TROWN.png,,,,,,,,,,,,,,,,,,,,,,,,,,,,,,,,,,,,
,,,,,,,,,,,,,,,,,5fce736898fa590803b3b0d8,24,2022-02-12_13h26.07.160,lexical_decision_task_DD,2021.2.3,Win32,59.7335882,,,,,,,,,,,1.3646,1,,,,,,,,,,,,,,z,1,1.3646,,,,,,,,-0.426179604,-0.332572298,0,0,0,,0,146,146,90,1,NEAST,C,old,z,./images/NEAST.png,,,,,,,,,,,,,,,,,,,,,,,,,,,,,,,,,,,,
,,,,,,,,,,,,,,,,,5fce736898fa590803b3b0d8,24,2022-02-12_13h26.07.160,lexical_decision_task_DD,2021.2.3,Win32,59.7335882,,,,,,,,,,,0.7813,1,,,,,,,,,,,,,,m,1,0.7813,,,,,,,,-0.426179604,-0.332572298,0,0,0,,0,147,147,4,1,MUSCLE,HB,old,m,./images/MUSCLEHB.png,,,,,,,,,,,,,,,,,,,,,,,,,,,,,,,,,,,,
,,,,,,,,,,,,,,,,,5fce736898fa590803b3b0d8,24,2022-02-12_13h26.07.160,lexical_decision_task_DD,2021.2.3,Win32,59.7335882,,,,,,,,,,,1.3877,1,,,,,,,,,,,,,,z,1,1.3877,,,,,,,,-0.426179604,-0.332572298,0,0,0,,0,148,148,151,1,TINKY,HB,old,z,./images/TINKYHB.png,,,,,,,,,,,,,,,,,,,,,,,,,,,,,,,,,,,,
,,,,,,,,,,,,,,,,,5fce736898fa590803b3b0d8,24,2022-02-12_13h26.07.160,lexical_decision_task_DD,2021.2.3,Win32,59.7335882,,,,,,,,,,,0.895400001,1,,,,,,,,,,,,,,z,1,0.895400001,,,,,,,,-0.426179604,-0.332572298,0,0,0,,0,149,149,143,1,MONGS,LB,old,z,./images/MONGSLB.png,,,,,,,,,,,,,,,,,,,,,,,,,,,,,,,,,,,,
,,,,,,,,,,,,,,,,,5fce736898fa590803b3b0d8,24,2022-02-12_13h26.07.160,lexical_decision_task_DD,2021.2.3,Win32,59.7335882,,,,,,,,,,,0.7309,1,,,,,,,,,,,,,,m,1,0.7309,,,,,,,,-0.426179604,-0.332572298,0,0,0,,0,150,150,53,1,CARPET,LB,old,m,./images/CARPETLB.png,,,,,,,,,,,,,,,,,,,,,,,,,,,,,,,,,,,,
,,,,,,,,,,,,,,,,,5fce736898fa590803b3b0d8,24,2022-02-12_13h26.07.160,lexical_decision_task_DD,2021.2.3,Win32,59.7335882,,,,,,,,,,,0.7407,1,,,,,,,,,,,,,,z,1,0.7407,,,,,,,,-0.426179604,-0.332572298,0,0,0,,0,151,151,130,1,CRILL,HB,old,z,./images/CRILLHB.png,,,,,,,,,,,,,,,,,,,,,,,,,,,,,,,,,,,,
,,,,,,,,,,,,,,,,,5fce736898fa590803b3b0d8,24,2022-02-12_13h26.07.160,lexical_decision_task_DD,2021.2.3,Win32,59.7335882,,,,,,,,,,,0.5807,1,,,,,,,,,,,,,,z,1,0.5807,,,,,,,,-0.426179604,-0.332572298,0,0,0,,0,152,152,162,1,LEICH,C,old,z,./images/LEICH.png,,,,,,,,,,,,,,,,,,,,,,,,,,,,,,,,,,,,
,,,,,,,,,,,,,,,,,5fce736898fa590803b3b0d8,24,2022-02-12_13h26.07.160,lexical_decision_task_DD,2021.2.3,Win32,59.7335882,,,,,,,,,,,0.6883,1,,,,,,,,,,,,,,z,1,0.6883,,,,,,,,-0.426179604,-0.332572298,0,0,0,,0,153,153,153,1,CLUPS,C,old,z,./images/CLUPS.png,,,,,,,,,,,,,,,,,,,,,,,,,,,,,,,,,,,,
,,,,,,,,,,,,,,,,,5fce736898fa590803b3b0d8,24,2022-02-12_13h26.07.160,lexical_decision_task_DD,2021.2.3,Win32,59.7335882,,,,,,,,,,,1.0962,1,,,,,,,,,,,,,,z,1,1.0962,,,,,,,,-0.426179604,-0.332572298,0,0,0,,0,154,154,112,1,MYING,HB,old,z,./images/MYINGHB.png,,,,,,,,,,,,,,,,,,,,,,,,,,,,,,,,,,,,
,,,,,,,,,,,,,,,,,5fce736898fa590803b3b0d8,24,2022-02-12_13h26.07.160,lexical_decision_task_DD,2021.2.3,Win32,59.7335882,,,,,,,,,,,0.632099999,1,,,,,,,,,,,,,,z,1,0.632099999,,,,,,,,-0.426179604,-0.332572298,0,0,0,,0,155,155,116,1,BALGY,LB,old,z,./images/BALGYLB.png,,,,,,,,,,,,,,,,,,,,,,,,,,,,,,,,,,,,
,,,,,,,,,,,,,,,,,5fce736898fa590803b3b0d8,24,2022-02-12_13h26.07.160,lexical_decision_task_DD,2021.2.3,Win32,59.7335882,,,,,,,,,,,1.6851,0,,,,,,,,,,,,,,z,0,1.6851,,,,,,,,-0.426179604,-0.332572298,0,0,0,,0,156,156,31,1,QUILL,HB,old,m,./images/QUILLHB.png,,,,,,,,,,,,,,,,,,,,,,,,,,,,,,,,,,,,
,,,,,,,,,,,,,,,,,5fce736898fa590803b3b0d8,24,2022-02-12_13h26.07.160,lexical_decision_task_DD,2021.2.3,Win32,59.7335882,,,,,,,,,,,0.6985,1,,,,,,,,,,,,,,m,1,0.6985,,,,,,,,-0.426179604,-0.332572298,0,0,0,,0,157,157,56,1,PACKET,LB,old,m,./images/PACKETLB.png,,,,,,,,,,,,,,,,,,,,,,,,,,,,,,,,,,,,
,,,,,,,,,,,,,,,,,5fce736898fa590803b3b0d8,24,2022-02-12_13h26.07.160,lexical_decision_task_DD,2021.2.3,Win32,59.7335882,,,,,,,,,,,0.959700001,1,,,,,,,,,,,,,,z,1,0.959700001,,,,,,,,-0.426179604,-0.332572298,0,0,0,,0,158,158,103,1,FLORT,HB,old,z,./images/FLORTHB.png,,,,,,,,,,,,,,,,,,,,,,,,,,,,,,,,,,,,
,,,,,,,,,,,,,,,,,5fce736898fa590803b3b0d8,24,2022-02-12_13h26.07.160,lexical_decision_task_DD,2021.2.3,Win32,59.7335882,,,,,,,,,,,0.7145,1,,,,,,,,,,,,,,m,1,0.7145,,,,,,,,-0.426179604,-0.332572298,0,0,0,,0,159,159,42,1,FOLDER,C,old,m,./images/FOLDER.png,,,,,,,,,,,,,,,,,,,,,,,,,,,,,,,,,,,,
,,,,,,,,,,,,,,,,,5fce736898fa590803b3b0d8,24,2022-02-12_13h26.07.160,lexical_decision_task_DD,2021.2.3,Win32,59.7335882,,,,,,,,,,,1.172799999,1,,,,,,,,,,,,,,z,1,1.172799999,,,,,,,,-0.426179604,-0.332572298,0,0,0,,0,160,160,104,1,GITTY,LB,old,z,./images/GITTYLB.png,,,,,,,,,,,,,,,,,,,,,,,,,,,,,,,,,,,,
,,,,,,,,,,,,,,,,,5fce736898fa590803b3b0d8,24,2022-02-12_13h26.07.160,lexical_decision_task_DD,2021.2.3,Win32,59.7335882,,,,,,,,,,,0.8208,1,,,,,,,,,,,,,,m,1,0.8208,,,,,,,,-0.426179604,-0.332572298,0,0,0,,0,161,161,19,1,DOUGH,HB,old,m,./images/DOUGHHB.png,,,,,,,,,,,,,,,,,,,,,,,,,,,,,,,,,,,,
,,,,,,,,,,,,,,,,,5fce736898fa590803b3b0d8,24,2022-02-12_13h26.07.160,lexical_decision_task_DD,2021.2.3,Win32,59.7335882,,,,,,,,,,,0.8115,1,,,,,,,,,,,,,,z,1,0.8115,,,,,,,,-0.426179604,-0.332572298,0,0,0,,0,162,162,144,1,NAIRY,C,old,z,./images/NAIRY.png,,,,,,,,,,,,,,,,,,,,,,,,,,,,,,,,,,,,
,,,,,,,,,,,,,,,,,5fce736898fa590803b3b0d8,24,2022-02-12_13h26.07.160,lexical_decision_task_DD,2021.2.3,Win32,59.7335882,,,,,,,,,,,0.7703,1,,,,,,,,,,,,,,m,1,0.7703,,,,,,,,-0.426179604,-0.332572298,0,0,0,,0,163,163,41,1,STRING,LB,old,m,./images/STRINGLB.png,,,,,,,,,,,,,,,,,,,,,,,,,,,,,,,,,,,,
,,,,,,,,,,,,,,,,,5fce736898fa590803b3b0d8,24,2022-02-12_13h26.07.160,lexical_decision_task_DD,2021.2.3,Win32,59.7335882,,,,,,,,,,,1.022,1,,,,,,,,,,,,,,m,1,1.022,,,,,,,,-0.426179604,-0.332572298,0,0,0,,0,164,164,67,1,SAILOR,HB,old,m,./images/SAILORHB.png,,,,,,,,,,,,,,,,,,,,,,,,,,,,,,,,,,,,
,,,,,,,,,,,,,,,,,5fce736898fa590803b3b0d8,24,2022-02-12_13h26.07.160,lexical_decision_task_DD,2021.2.3,Win32,59.7335882,,,,,,,,,,,0.6963,1,,,,,,,,,,,,,,z,1,0.6963,,,,,,,,-0.426179604,-0.332572298,0,0,0,,0,165,165,93,1,SMONE,C,old,z,./images/SMONE.png,,,,,,,,,,,,,,,,,,,,,,,,,,,,,,,,,,,,
,,,,,,,,,,,,,,,,,5fce736898fa590803b3b0d8,24,2022-02-12_13h26.07.160,lexical_decision_task_DD,2021.2.3,Win32,59.7335882,,,,,,,,,,,1.1519,1,,,,,,,,,,,,,,m,1,1.1519,,,,,,,,-0.426179604,-0.332572298,0,0,0,,0,166,166,17,1,SKIING,LB,old,m,./images/SKIINGLB.png,,,,,,,,,,,,,,,,,,,,,,,,,,,,,,,,,,,,
,,,,,,,,,,,,,,,,,5fce736898fa590803b3b0d8,24,2022-02-12_13h26.07.160,lexical_decision_task_DD,2021.2.3,Win32,59.7335882,,,,,,,,,,,0.980599999,1,,,,,,,,,,,,,,z,1,0.980599999,,,,,,,,-0.426179604,-0.332572298,0,0,0,,0,167,167,114,1,RIKES,C,old,z,./images/RIKES.png,,,,,,,,,,,,,,,,,,,,,,,,,,,,,,,,,,,,
,,,,,,,,,,,,,,,,,5fce736898fa590803b3b0d8,24,2022-02-12_13h26.07.160,lexical_decision_task_DD,2021.2.3,Win32,59.7335882,,,,,,,,,,,,,,,,,,,,,,,,,,,,,,,,,,,,,,,,,,,,,,,,How likely will it be that you will recognize the words presented very blurred on a scale of 0 (not likely) to 100 (most likely)?,,,,,,-0.00456621,-0.382800609,1,0,0,jol_adv,5,17.5231,0,0,0,2,1,,,,,,,,,,,,,,,,,,,,,
,,,,,,,,,,,,,,,,,5fce736898fa590803b3b0d8,24,2022-02-12_13h26.07.160,lexical_decision_task_DD,2021.2.3,Win32,59.7335882,,,,,,,,,,,,,,,,,,,,,,,,,,,,,,,,,,,,,,,,,,,,,,,,How likely will it be that you will recognize the words presented slighly blurred on a scale of 0 (not likely) to 100 (most likely)?,,,,,,,,,,,,6,6.5518,0,1,1,1,1,,,,,,,,,,,,,,,,,,,,,
,,,,,,,,,,,,,,,,,5fce736898fa590803b3b0d8,24,2022-02-12_13h26.07.160,lexical_decision_task_DD,2021.2.3,Win32,59.7335882,,,,,,,,,,,,,,,,,,,,,,,,,,,,,,,,,,,,,,,,,,,,,,,,How likely will it be that you will recognize the words presented clearly on a scale of 0 (not likely) to 100 (most likely)?,,,,,,,,,,,,6,2.624099999,0,2,2,0,1,,,,,,,,,,,,,,,,,,,,,
space,0.213089802,0.006849315,0,0,0,,,,,,,1,test,"In the next phase you will be presented with the words from the the first phase. Your job is to decide whether you remember seeing the word or not. If you remember seeing the word press ""old"" or type ""m"". If you do not remember seeing the word press ""new"" or type ""z"". Please press the space bar or click on continue to begin. ",,,5fce736898fa590803b3b0d8,24,2022-02-12_13h26.07.160,lexical_decision_task_DD,2021.2.3,Win32,59.7335882,,,,,,,,,,,,,,,,,,,,,,,,,,,,,,,,,,,,,,,,,,,,,,,,,,,,,,,,,,,,,,,,,,,24.7367,0,0,0,0,1,,,,,,,,,,,,,,,
space,0.144596651,-0.026636225,0,0,0,,,,,,,1,test,"In the next phase you will be presented with the words from the the first phase. Your job is to decide whether you remember seeing the word or not. If you remember seeing the word press ""old"" or type ""m"". If you do not remember seeing the word press ""new"" or type ""z"". Please press the space bar or click on continue to begin. ",,,5fce736898fa590803b3b0d8,24,2022-02-12_13h26.07.160,lexical_decision_task_DD,2021.2.3,Win32,59.7335882,,,,,,,,,,,,,,,,,,,,,,,,,,,,,,,,,,,,,,,,,,,,,,,,,,,,,,,,,,,,,,,,,,,2.9756,1,0,1,0,1,,,,,,,,,,,,,,,
,0.111111111,-0.439117199,1,0,0,instr_done_button,,,,,,1,test,"In the next phase you will be presented with the words from the the first phase. Your job is to decide whether you remember seeing the word or not. If you remember seeing the word press ""old"" or type ""m"". If you do not remember seeing the word press ""new"" or type ""z"". Please press the space bar or click on continue to begin. ",,,5fce736898fa590803b3b0d8,24,2022-02-12_13h26.07.160,lexical_decision_task_DD,2021.2.3,Win32,59.7335882,,,,,,,,,,,,,,,,,,,,,,,,,,,,,,,,,,,,,,,,,,,,,,,,,,,,,,,,,,,,,,,,,,,,2,0,2,0,1,,,,,,,,,,,,,,,
,0.109589041,-0.437595129,1,0,0,instr_done_button,,,,,,1,test,"In the next phase you will be presented with the words from the the first phase. Your job is to decide whether you remember seeing the word or not. If you remember seeing the word press ""old"" or type ""m"". If you do not remember seeing the word press ""new"" or type ""z"". Please press the space bar or click on continue to begin. ",,,5fce736898fa590803b3b0d8,24,2022-02-12_13h26.07.160,lexical_decision_task_DD,2021.2.3,Win32,59.7335882,,,,,,,,,,,,,,,,,,,,,,,,,,,,,,,,,,,,,,,,,,,,,,,,,,,,,,,,,,,,,,,,,,,,3,0,3,0,1,,,,,,,,,,,,,,,
,0.109589041,-0.437595129,1,0,0,instr_done_button,,,,,,1,test,"In the next phase you will be presented with the words from the the first phase. Your job is to decide whether you remember seeing the word or not. If you remember seeing the word press ""old"" or type ""m"". If you do not remember seeing the word press ""new"" or type ""z"". Please press the space bar or click on continue to begin. ",,,5fce736898fa590803b3b0d8,24,2022-02-12_13h26.07.160,lexical_decision_task_DD,2021.2.3,Win32,59.7335882,,,,,,,,,,,,,,,,,,,,,,,,,,,,,,,,,,,,,,,,,,,,,,,,,,,,,,,,,,,,,,,,,,,,4,0,4,0,1,,,,,,,,,,,,,,,
,,,,,,,,,,,,,,,,,5fce736898fa590803b3b0d8,24,2022-02-12_13h26.07.160,lexical_decision_task_DD,2021.2.3,Win32,59.7335882,,,,,,,,,,,2.619799999,1,,,,,,,,,,,,,,,,,,,,,,,,0.499238965,0.049467275,0,0,0,,,,,,,CHAIN,C,z,m,./images/CHAIN.png,,,,,,,,,,,,,,,,,,,,,,z,1,2.619799999,,,,,,,,0,0,0,126,1
,,,,,,,,,,,,,,,,,5fce736898fa590803b3b0d8,24,2022-02-12_13h26.07.160,lexical_decision_task_DD,2021.2.3,Win32,59.7335882,,,,,,,,,,,1.674,1,,,,,,,,,,,,,,,,,,,,,,,,0.499238965,0.049467275,0,0,0,,,,,,,CLOTH,LB,z,m,./images/CLOTHLB.png,,,,,,,,,,,,,,,,,,,,,,z,1,1.674,,,,,,,,0,1,1,107,1
,,,,,,,,,,,,,,,,,5fce736898fa590803b3b0d8,24,2022-02-12_13h26.07.160,lexical_decision_task_DD,2021.2.3,Win32,59.7335882,,,,,,,,,,,1.4167,1,,,,,,,,,,,,,,,,,,,,,,,,0.499238965,0.049467275,0,0,0,,,,,,,PISTOL,LB,z,m,./images/PISTOLLB.png,,,,,,,,,,,,,,,,,,,,,,z,1,1.4167,,,,,,,,0,2,2,113,1
,,,,,,,,,,,,,,,,,5fce736898fa590803b3b0d8,24,2022-02-12_13h26.07.160,lexical_decision_task_DD,2021.2.3,Win32,59.7335882,,,,,,,,,,,0.8914,1,,,,,,,,,,,,,,,,,,,,,,,,0.499238965,0.049467275,0,0,0,,,,,,,SHIELD,C,z,m,./images/SHIELD.png,,,,,,,,,,,,,,,,,,,,,,z,1,0.8914,,,,,,,,0,3,3,132,1
,,,,,,,,,,,,,,,,,5fce736898fa590803b3b0d8,24,2022-02-12_13h26.07.160,lexical_decision_task_DD,2021.2.3,Win32,59.7335882,,,,,,,,,,,0.9869,1,,,,,,,,,,,,,,,,,,,,,,,,0.499238965,0.049467275,0,0,0,,,,,,,PASTA,LB,m,m,./images/PASTALB.png,,,,,,,,,,,,,,,,,,,,,,m,1,0.9869,,,,,,,,0,4,4,5,1
,,,,,,,,,,,,,,,,,5fce736898fa590803b3b0d8,24,2022-02-12_13h26.07.160,lexical_decision_task_DD,2021.2.3,Win32,59.7335882,,,,,,,,,,,0.8355,1,,,,,,,,,,,,,,,,,,,,,,,,0.499238965,0.049467275,0,0,0,,,,,,,SQUARE,C,m,m,./images/SQUARE.png,,,,,,,,,,,,,,,,,,,,,,m,1,0.8355,,,,,,,,0,5,5,6,1
,,,,,,,,,,,,,,,,,5fce736898fa590803b3b0d8,24,2022-02-12_13h26.07.160,lexical_decision_task_DD,2021.2.3,Win32,59.7335882,,,,,,,,,,,0.8074,1,,,,,,,,,,,,,,,,,,,,,,,,0.499238965,0.049467275,0,0,0,,,,,,,PILOT,LB,z,m,./images/PILOTLB.png,,,,,,,,,,,,,,,,,,,,,,z,1,0.8074,,,,,,,,0,6,6,134,1
,,,,,,,,,,,,,,,,,5fce736898fa590803b3b0d8,24,2022-02-12_13h26.07.160,lexical_decision_task_DD,2021.2.3,Win32,59.7335882,,,,,,,,,,,0.9019,0,,,,,,,,,,,,,,,,,,,,,,,,0.499238965,0.049467275,0,0,0,,,,,,,BANNER,HB,m,m,./images/BANNERHB.png,,,,,,,,,,,,,,,,,,,,,,z,0,0.9019,,,,,,,,0,7,7,52,1
,,,,,,,,,,,,,,,,,5fce736898fa590803b3b0d8,24,2022-02-12_13h26.07.160,lexical_decision_task_DD,2021.2.3,Win32,59.7335882,,,,,,,,,,,0.7591,1,,,,,,,,,,,,,,,,,,,,,,,,0.499238965,0.049467275,0,0,0,,,,,,,MOOSE,C,m,m,./images/MOOSE.png,,,,,,,,,,,,,,,,,,,,,,m,1,0.7591,,,,,,,,0,8,8,57,1
,,,,,,,,,,,,,,,,,5fce736898fa590803b3b0d8,24,2022-02-12_13h26.07.160,lexical_decision_task_DD,2021.2.3,Win32,59.7335882,,,,,,,,,,,0.7369,1,,,,,,,,,,,,,,,,,,,,,,,,0.499238965,0.049467275,0,0,0,,,,,,,WALNUT,C,z,m,./images/WALNUT.png,,,,,,,,,,,,,,,,,,,,,,z,1,0.7369,,,,,,,,0,9,9,84,1
,,,,,,,,,,,,,,,,,5fce736898fa590803b3b0d8,24,2022-02-12_13h26.07.160,lexical_decision_task_DD,2021.2.3,Win32,59.7335882,,,,,,,,,,,0.6962,1,,,,,,,,,,,,,,,,,,,,,,,,0.499238965,0.049467275,0,0,0,,,,,,,GREASE,C,m,m,./images/GREASE.png,,,,,,,,,,,,,,,,,,,,,,m,1,0.6962,,,,,,,,0,10,10,15,1
,,,,,,,,,,,,,,,,,5fce736898fa590803b3b0d8,24,2022-02-12_13h26.07.160,lexical_decision_task_DD,2021.2.3,Win32,59.7335882,,,,,,,,,,,0.8393,1,,,,,,,,,,,,,,,,,,,,,,,,0.499238965,0.049467275,0,0,0,,,,,,,ARTIST,HB,z,m,./images/ARTISTHB.png,,,,,,,,,,,,,,,,,,,,,,z,1,0.8393,,,,,,,,0,11,11,145,1
,,,,,,,,,,,,,,,,,5fce736898fa590803b3b0d8,24,2022-02-12_13h26.07.160,lexical_decision_task_DD,2021.2.3,Win32,59.7335882,,,,,,,,,,,0.635799999,1,,,,,,,,,,,,,,,,,,,,,,,,0.499238965,0.049467275,0,0,0,,,,,,,CANYON,HB,m,m,./images/CANYONHB.png,,,,,,,,,,,,,,,,,,,,,,m,1,0.635799999,,,,,,,,0,12,12,34,1
,,,,,,,,,,,,,,,,,5fce736898fa590803b3b0d8,24,2022-02-12_13h26.07.160,lexical_decision_task_DD,2021.2.3,Win32,59.7335882,,,,,,,,,,,0.673299999,1,,,,,,,,,,,,,,,,,,,,,,,,0.499238965,0.049467275,0,0,0,,,,,,,BABOON,HB,m,m,./images/BABOONHB.png,,,,,,,,,,,,,,,,,,,,,,m,1,0.673299999,,,,,,,,0,13,13,58,1
,,,,,,,,,,,,,,,,,5fce736898fa590803b3b0d8,24,2022-02-12_13h26.07.160,lexical_decision_task_DD,2021.2.3,Win32,59.7335882,,,,,,,,,,,0.7701,1,,,,,,,,,,,,,,,,,,,,,,,,0.499238965,0.049467275,0,0,0,,,,,,,DANCER,C,z,m,./images/DANCER.png,,,,,,,,,,,,,,,,,,,,,,z,1,0.7701,,,,,,,,0,14,14,105,1
,,,,,,,,,,,,,,,,,5fce736898fa590803b3b0d8,24,2022-02-12_13h26.07.160,lexical_decision_task_DD,2021.2.3,Win32,59.7335882,,,,,,,,,,,1.075900001,1,,,,,,,,,,,,,,,,,,,,,,,,0.499238965,0.049467275,0,0,0,,,,,,,POSTER,LB,z,m,./images/POSTERLB.png,,,,,,,,,,,,,,,,,,,,,,z,1,1.075900001,,,,,,,,0,15,15,137,1
,,,,,,,,,,,,,,,,,5fce736898fa590803b3b0d8,24,2022-02-12_13h26.07.160,lexical_decision_task_DD,2021.2.3,Win32,59.7335882,,,,,,,,,,,0.9037,1,,,,,,,,,,,,,,,,,,,,,,,,0.499238965,0.049467275,0,0,0,,,,,,,WALRUS,LB,m,m,./images/WALRUSLB.png,,,,,,,,,,,,,,,,,,,,,,m,1,0.9037,,,,,,,,0,16,16,23,1
,,,,,,,,,,,,,,,,,5fce736898fa590803b3b0d8,24,2022-02-12_13h26.07.160,lexical_decision_task_DD,2021.2.3,Win32,59.7335882,,,,,,,,,,,0.751099999,1,,,,,,,,,,,,,,,,,,,,,,,,0.499238965,0.049467275,0,0,0,,,,,,,WHISKY,LB,z,m,./images/WHISKYLB.png,,,,,,,,,,,,,,,,,,,,,,z,1,0.751099999,,,,,,,,0,17,17,167,1
,,,,,,,,,,,,,,,,,5fce736898fa590803b3b0d8,24,2022-02-12_13h26.07.160,lexical_decision_task_DD,2021.2.3,Win32,59.7335882,,,,,,,,,,,1.172099999,1,,,,,,,,,,,,,,,,,,,,,,,,0.499238965,0.049467275,0,0,0,,,,,,,COLLAR,C,z,m,./images/COLLAR.png,,,,,,,,,,,,,,,,,,,,,,z,1,1.172099999,,,,,,,,0,18,18,99,1
,,,,,,,,,,,,,,,,,5fce736898fa590803b3b0d8,24,2022-02-12_13h26.07.160,lexical_decision_task_DD,2021.2.3,Win32,59.7335882,,,,,,,,,,,1.2405,1,,,,,,,,,,,,,,,,,,,,,,,,0.499238965,0.049467275,0,0,0,,,,,,,WHEEL,LB,z,m,./images/WHEELLB.png,,,,,,,,,,,,,,,,,,,,,,z,1,1.2405,,,,,,,,0,19,19,161,1
,,,,,,,,,,,,,,,,,5fce736898fa590803b3b0d8,24,2022-02-12_13h26.07.160,lexical_decision_task_DD,2021.2.3,Win32,59.7335882,,,,,,,,,,,0.8272,1,,,,,,,,,,,,,,,,,,,,,,,,0.499238965,0.049467275,0,0,0,,,,,,,TWINS,C,m,m,./images/TWINS.png,,,,,,,,,,,,,,,,,,,,,,m,1,0.8272,,,,,,,,0,20,20,60,1
,,,,,,,,,,,,,,,,,5fce736898fa590803b3b0d8,24,2022-02-12_13h26.07.160,lexical_decision_task_DD,2021.2.3,Win32,59.7335882,,,,,,,,,,,0.9383,1,,,,,,,,,,,,,,,,,,,,,,,,0.499238965,0.049467275,0,0,0,,,,,,,GLOVE,HB,z,m,./images/GLOVEHB.png,,,,,,,,,,,,,,,,,,,,,,z,1,0.9383,,,,,,,,0,21,21,157,1
,,,,,,,,,,,,,,,,,5fce736898fa590803b3b0d8,24,2022-02-12_13h26.07.160,lexical_decision_task_DD,2021.2.3,Win32,59.7335882,,,,,,,,,,,0.668700001,1,,,,,,,,,,,,,,,,,,,,,,,,0.499238965,0.049467275,0,0,0,,,,,,,PICKLE,LB,m,m,./images/PICKLELB.png,,,,,,,,,,,,,,,,,,,,,,m,1,0.668700001,,,,,,,,0,22,22,14,1
,,,,,,,,,,,,,,,,,5fce736898fa590803b3b0d8,24,2022-02-12_13h26.07.160,lexical_decision_task_DD,2021.2.3,Win32,59.7335882,,,,,,,,,,,1.7922,1,,,,,,,,,,,,,,,,,,,,,,,,0.499238965,0.049467275,0,0,0,,,,,,,CLOUD,LB,z,m,./images/CLOUDLB.png,,,,,,,,,,,,,,,,,,,,,,z,1,1.7922,,,,,,,,0,23,23,110,1
,,,,,,,,,,,,,,,,,5fce736898fa590803b3b0d8,24,2022-02-12_13h26.07.160,lexical_decision_task_DD,2021.2.3,Win32,59.7335882,,,,,,,,,,,1.9931,0,,,,,,,,,,,,,,,,,,,,,,,,0.499238965,0.049467275,0,0,0,,,,,,,COUCH,LB,m,m,./images/COUCHLB.png,,,,,,,,,,,,,,,,,,,,,,z,0,1.9931,,,,,,,,0,24,24,77,1
,,,,,,,,,,,,,,,,,5fce736898fa590803b3b0d8,24,2022-02-12_13h26.07.160,lexical_decision_task_DD,2021.2.3,Win32,59.7335882,,,,,,,,,,,1.374900001,1,,,,,,,,,,,,,,,,,,,,,,,,0.499238965,0.049467275,0,0,0,,,,,,,BAMBOO,LB,z,m,./images/BAMBOOLB.png,,,,,,,,,,,,,,,,,,,,,,z,1,1.374900001,,,,,,,,0,25,25,89,1
,,,,,,,,,,,,,,,,,5fce736898fa590803b3b0d8,24,2022-02-12_13h26.07.160,lexical_decision_task_DD,2021.2.3,Win32,59.7335882,,,,,,,,,,,0.797900001,1,,,,,,,,,,,,,,,,,,,,,,,,0.499238965,0.049467275,0,0,0,,,,,,,HOCKEY,LB,z,m,./images/HOCKEYLB.png,,,,,,,,,,,,,,,,,,,,,,z,1,0.797900001,,,,,,,,0,26,26,116,1
,,,,,,,,,,,,,,,,,5fce736898fa590803b3b0d8,24,2022-02-12_13h26.07.160,lexical_decision_task_DD,2021.2.3,Win32,59.7335882,,,,,,,,,,,1.7275,1,,,,,,,,,,,,,,,,,,,,,,,,0.499238965,0.049467275,0,0,0,,,,,,,BLOKE,C,z,m,./images/BLOKE.png,,,,,,,,,,,,,,,,,,,,,,z,1,1.7275,,,,,,,,0,27,27,96,1
,,,,,,,,,,,,,,,,,5fce736898fa590803b3b0d8,24,2022-02-12_13h26.07.160,lexical_decision_task_DD,2021.2.3,Win32,59.7335882,,,,,,,,,,,1.0596,1,,,,,,,,,,,,,,,,,,,,,,,,0.499238965,0.049467275,0,0,0,,,,,,,PLANK,HB,m,m,./images/PLANKHB.png,,,,,,,,,,,,,,,,,,,,,,m,1,1.0596,,,,,,,,0,28,28,1,1
,,,,,,,,,,,,,,,,,5fce736898fa590803b3b0d8,24,2022-02-12_13h26.07.160,lexical_decision_task_DD,2021.2.3,Win32,59.7335882,,,,,,,,,,,0.776299999,1,,,,,,,,,,,,,,,,,,,,,,,,0.499238965,0.049467275,0,0,0,,,,,,,PIMPLE,LB,m,m,./images/PIMPLELB.png,,,,,,,,,,,,,,,,,,,,,,m,1,0.776299999,,,,,,,,0,29,29,71,1
,,,,,,,,,,,,,,,,,5fce736898fa590803b3b0d8,24,2022-02-12_13h26.07.160,lexical_decision_task_DD,2021.2.3,Win32,59.7335882,,,,,,,,,,,1.2055,1,,,,,,,,,,,,,,,,,,,,,,,,0.499238965,0.049467275,0,0,0,,,,,,,BAKER,C,z,m,./images/BAKER.png,,,,,,,,,,,,,,,,,,,,,,z,1,1.2055,,,,,,,,0,30,30,147,1
,,,,,,,,,,,,,,,,,5fce736898fa590803b3b0d8,24,2022-02-12_13h26.07.160,lexical_decision_task_DD,2021.2.3,Win32,59.7335882,,,,,,,,,,,0.9382,1,,,,,,,,,,,,,,,,,,,,,,,,0.499238965,0.049467275,0,0,0,,,,,,,PENCE,HB,m,m,./images/PENCEHB.png,,,,,,,,,,,,,,,,,,,,,,m,1,0.9382,,,,,,,,0,31,31,16,1
,,,,,,,,,,,,,,,,,5fce736898fa590803b3b0d8,24,2022-02-12_13h26.07.160,lexical_decision_task_DD,2021.2.3,Win32,59.7335882,,,,,,,,,,,3.659299999,0,,,,,,,,,,,,,,,,,,,,,,,,0.499238965,0.049467275,0,0,0,,,,,,,CHALK,HB,z,m,./images/CHALKHB.png,,,,,,,,,,,,,,,,,,,,,,m,0,3.659299999,,,,,,,,0,32,32,109,1
,,,,,,,,,,,,,,,,,5fce736898fa590803b3b0d8,24,2022-02-12_13h26.07.160,lexical_decision_task_DD,2021.2.3,Win32,59.7335882,,,,,,,,,,,0.759900001,0,,,,,,,,,,,,,,,,,,,,,,,,0.499238965,0.049467275,0,0,0,,,,,,,INFANT,HB,m,m,./images/INFANTHB.png,,,,,,,,,,,,,,,,,,,,,,z,0,0.759900001,,,,,,,,0,33,33,76,1
,,,,,,,,,,,,,,,,,5fce736898fa590803b3b0d8,24,2022-02-12_13h26.07.160,lexical_decision_task_DD,2021.2.3,Win32,59.7335882,,,,,,,,,,,1.496799999,0,,,,,,,,,,,,,,,,,,,,,,,,0.499238965,0.049467275,0,0,0,,,,,,,MOSQUE,HB,m,m,./images/MOSQUEHB.png,,,,,,,,,,,,,,,,,,,,,,z,0,1.496799999,,,,,,,,0,34,34,43,1
,,,,,,,,,,,,,,,,,5fce736898fa590803b3b0d8,24,2022-02-12_13h26.07.160,lexical_decision_task_DD,2021.2.3,Win32,59.7335882,,,,,,,,,,,1.2624,1,,,,,,,,,,,,,,,,,,,,,,,,0.499238965,0.049467275,0,0,0,,,,,,,FOLDER,C,m,m,./images/FOLDER.png,,,,,,,,,,,,,,,,,,,,,,m,1,1.2624,,,,,,,,0,35,35,42,1
,,,,,,,,,,,,,,,,,5fce736898fa590803b3b0d8,24,2022-02-12_13h26.07.160,lexical_decision_task_DD,2021.2.3,Win32,59.7335882,,,,,,,,,,,0.7364,1,,,,,,,,,,,,,,,,,,,,,,,,0.499238965,0.049467275,0,0,0,,,,,,,PURSE,LB,m,m,./images/PURSELB.png,,,,,,,,,,,,,,,,,,,,,,m,1,0.7364,,,,,,,,0,36,36,62,1
,,,,,,,,,,,,,,,,,5fce736898fa590803b3b0d8,24,2022-02-12_13h26.07.160,lexical_decision_task_DD,2021.2.3,Win32,59.7335882,,,,,,,,,,,1.6485,1,,,,,,,,,,,,,,,,,,,,,,,,0.499238965,0.049467275,0,0,0,,,,,,,ATTIC,C,m,m,./images/ATTIC.png,,,,,,,,,,,,,,,,,,,,,,m,1,1.6485,,,,,,,,0,37,37,27,1
,,,,,,,,,,,,,,,,,5fce736898fa590803b3b0d8,24,2022-02-12_13h26.07.160,lexical_decision_task_DD,2021.2.3,Win32,59.7335882,,,,,,,,,,,0.7702,1,,,,,,,,,,,,,,,,,,,,,,,,0.499238965,0.049467275,0,0,0,,,,,,,DESERT,HB,z,m,./images/DESERTHB.png,,,,,,,,,,,,,,,,,,,,,,z,1,0.7702,,,,,,,,0,38,38,136,1
,,,,,,,,,,,,,,,,,5fce736898fa590803b3b0d8,24,2022-02-12_13h26.07.160,lexical_decision_task_DD,2021.2.3,Win32,59.7335882,,,,,,,,,,,1.391,1,,,,,,,,,,,,,,,,,,,,,,,,0.499238965,0.049467275,0,0,0,,,,,,,NOOSE,C,m,m,./images/NOOSE.png,,,,,,,,,,,,,,,,,,,,,,m,1,1.391,,,,,,,,0,39,39,72,1
,,,,,,,,,,,,,,,,,5fce736898fa590803b3b0d8,24,2022-02-12_13h26.07.160,lexical_decision_task_DD,2021.2.3,Win32,59.7335882,,,,,,,,,,,0.991900001,1,,,,,,,,,,,,,,,,,,,,,,,,0.499238965,0.049467275,0,0,0,,,,,,,MEDAL,LB,z,m,./images/MEDALLB.png,,,,,,,,,,,,,,,,,,,,,,z,1,0.991900001,,,,,,,,0,40,40,95,1
,,,,,,,,,,,,,,,,,5fce736898fa590803b3b0d8,24,2022-02-12_13h26.07.160,lexical_decision_task_DD,2021.2.3,Win32,59.7335882,,,,,,,,,,,0.904,1,,,,,,,,,,,,,,,,,,,,,,,,0.499238965,0.049467275,0,0,0,space,,,,,,SPINE,LB,z,m,./images/SPINELB.png,8.333,,,,,,,,,,,,,,,,,,,,,z,1,0.904,,,,,,,,0,41,41,149,1
,,,,,,,,,,,,,,,,,5fce736898fa590803b3b0d8,24,2022-02-12_13h26.07.160,lexical_decision_task_DD,2021.2.3,Win32,59.7335882,,,,,,,,,,,0.9208,1,,,,,,,,,,,,,,,,,,,,,,,,0.499238965,0.049467275,0,0,0,,,,,,,SKIING,LB,m,m,./images/SKIINGLB.png,,,,,,,,,,,,,,,,,,,,,,m,1,0.9208,,,,,,,,0,42,42,17,1
,,,,,,,,,,,,,,,,,5fce736898fa590803b3b0d8,24,2022-02-12_13h26.07.160,lexical_decision_task_DD,2021.2.3,Win32,59.7335882,,,,,,,,,,,0.9378,1,,,,,,,,,,,,,,,,,,,,,,,,0.499238965,0.049467275,0,0,0,,,,,,,WEASEL,LB,m,m,./images/WEASELLB.png,,,,,,,,,,,,,,,,,,,,,,m,1,0.9378,,,,,,,,0,43,43,80,1
,,,,,,,,,,,,,,,,,5fce736898fa590803b3b0d8,24,2022-02-12_13h26.07.160,lexical_decision_task_DD,2021.2.3,Win32,59.7335882,,,,,,,,,,,0.6544,1,,,,,,,,,,,,,,,,,,,,,,,,0.499238965,0.049467275,0,0,0,,,,,,,WRIST,HB,m,m,./images/WRISTHB.png,,,,,,,,,,,,,,,,,,,,,,m,1,0.6544,,,,,,,,0,44,44,25,1
,,,,,,,,,,,,,,,,,5fce736898fa590803b3b0d8,24,2022-02-12_13h26.07.160,lexical_decision_task_DD,2021.2.3,Win32,59.7335882,,,,,,,,,,,1.509599999,0,,,,,,,,,,,,,,,,,,,,,,,,0.499238965,0.049467275,0,0,0,,,,,,,BARREL,LB,m,m,./images/BARRELLB.png,,,,,,,,,,,,,,,,,,,,,,z,0,1.509599999,,,,,,,,0,45,45,32,1
,,,,,,,,,,,,,,,,,5fce736898fa590803b3b0d8,24,2022-02-12_13h26.07.160,lexical_decision_task_DD,2021.2.3,Win32,59.7335882,,,,,,,,,,,0.86,1,,,,,,,,,,,,,,,,,,,,,,,,0.499238965,0.049467275,0,0,0,,,,,,,BUBBLE,LB,z,m,./images/BUBBLELB.png,,,,,,,,,,,,,,,,,,,,,,z,1,0.86,,,,,,,,0,46,46,155,1
,,,,,,,,,,,,,,,,,5fce736898fa590803b3b0d8,24,2022-02-12_13h26.07.160,lexical_decision_task_DD,2021.2.3,Win32,59.7335882,,,,,,,,,,,0.91,1,,,,,,,,,,,,,,,,,,,,,,,,0.499238965,0.049467275,0,0,0,,,,,,,GRANNY,LB,z,m,./images/GRANNYLB.png,,,,,,,,,,,,,,,,,,,,,,z,1,0.91,,,,,,,,0,47,47,104,1
,,,,,,,,,,,,,,,,,5fce736898fa590803b3b0d8,24,2022-02-12_13h26.07.160,lexical_decision_task_DD,2021.2.3,Win32,59.7335882,,,,,,,,,,,1.021099999,1,,,,,,,,,,,,,,,,,,,,,,,,0.499238965,0.049467275,0,0,0,,,,,,,MELON,HB,m,m,./images/MELONHB.png,,,,,,,,,,,,,,,,,,,,,,m,1,1.021099999,,,,,,,,0,48,48,22,1
,,,,,,,,,,,,,,,,,5fce736898fa590803b3b0d8,24,2022-02-12_13h26.07.160,lexical_decision_task_DD,2021.2.3,Win32,59.7335882,,,,,,,,,,,1.6208,1,,,,,,,,,,,,,,,,,,,,,,,,0.499238965,0.049467275,0,0,0,,,,,,,JUMPER,LB,z,m,./images/JUMPERLB.png,,,,,,,,,,,,,,,,,,,,,,z,1,1.6208,,,,,,,,0,49,49,158,1
,,,,,,,,,,,,,,,,,5fce736898fa590803b3b0d8,24,2022-02-12_13h26.07.160,lexical_decision_task_DD,2021.2.3,Win32,59.7335882,,,,,,,,,,,2.796,0,,,,,,,,,,,,,,,,,,,,,,,,0.499238965,0.049467275,0,0,0,,,,,,,ONION,C,m,m,./images/ONION.png,,,,,,,,,,,,,,,,,,,,,,z,0,2.796,,,,,,,,0,50,50,51,1
,,,,,,,,,,,,,,,,,5fce736898fa590803b3b0d8,24,2022-02-12_13h26.07.160,lexical_decision_task_DD,2021.2.3,Win32,59.7335882,,,,,,,,,,,0.827,1,,,,,,,,,,,,,,,,,,,,,,,,0.499238965,0.049467275,0,0,0,,,,,,,TIGER,HB,z,m,./images/TIGERHB.png,,,,,,,,,,,,,,,,,,,,,,z,1,0.827,,,,,,,,0,51,51,121,1
,,,,,,,,,,,,,,,,,5fce736898fa590803b3b0d8,24,2022-02-12_13h26.07.160,lexical_decision_task_DD,2021.2.3,Win32,59.7335882,,,,,,,,,,,0.8088,1,,,,,,,,,,,,,,,,,,,,,,,,0.499238965,0.049467275,0,0,0,,,,,,,BISHOP,HB,z,m,./images/BISHOPHB.png,,,,,,,,,,,,,,,,,,,,,,z,1,0.8088,,,,,,,,0,52,52,133,1
,,,,,,,,,,,,,,,,,5fce736898fa590803b3b0d8,24,2022-02-12_13h26.07.160,lexical_decision_task_DD,2021.2.3,Win32,59.7335882,,,,,,,,,,,0.8553,1,,,,,,,,,,,,,,,,,,,,,,,,0.499238965,0.049467275,0,0,0,,,,,,,MAGGOT,C,m,m,./images/MAGGOT.png,,,,,,,,,,,,,,,,,,,,,,m,1,0.8553,,,,,,,,0,53,53,33,1
,,,,,,,,,,,,,,,,,5fce736898fa590803b3b0d8,24,2022-02-12_13h26.07.160,lexical_decision_task_DD,2021.2.3,Win32,59.7335882,,,,,,,,,,,0.7545,1,,,,,,,,,,,,,,,,,,,,,,,,0.499238965,0.049467275,0,0,0,,,,,,,BUNNY,HB,z,m,./images/BUNNYHB.png,,,,,,,,,,,,,,,,,,,,,,z,1,0.7545,,,,,,,,0,54,54,97,1
,,,,,,,,,,,,,,,,,5fce736898fa590803b3b0d8,24,2022-02-12_13h26.07.160,lexical_decision_task_DD,2021.2.3,Win32,59.7335882,,,,,,,,,,,0.754700001,1,,,,,,,,,,,,,,,,,,,,,,,,0.499238965,0.049467275,0,0,0,,,,,,,BANANA,HB,z,m,./images/BANANAHB.png,,,,,,,,,,,,,,,,,,,,,,z,1,0.754700001,,,,,,,,0,55,55,154,1
,,,,,,,,,,,,,,,,,5fce736898fa590803b3b0d8,24,2022-02-12_13h26.07.160,lexical_decision_task_DD,2021.2.3,Win32,59.7335882,,,,,,,,,,,0.8386,0,,,,,,,,,,,,,,,,,,,,,,,,0.499238965,0.049467275,0,0,0,,,,,,,BIRTH,HB,m,m,./images/BIRTHHB.png,,,,,,,,,,,,,,,,,,,,,,z,0,0.8386,,,,,,,,0,56,56,37,1
,,,,,,,,,,,,,,,,,5fce736898fa590803b3b0d8,24,2022-02-12_13h26.07.160,lexical_decision_task_DD,2021.2.3,Win32,59.7335882,,,,,,,,,,,1.023200001,0,,,,,,,,,,,,,,,,,,,,,,,,0.499238965,0.049467275,0,0,0,,,,,,,MOTOR,HB,m,m,./images/MOTORHB.png,,,,,,,,,,,,,,,,,,,,,,z,0,1.023200001,,,,,,,,0,57,57,13,1
,,,,,,,,,,,,,,,,,5fce736898fa590803b3b0d8,24,2022-02-12_13h26.07.160,lexical_decision_task_DD,2021.2.3,Win32,59.7335882,,,,,,,,,,,1.5424,1,,,,,,,,,,,,,,,,,,,,,,,,0.499238965,0.049467275,0,0,0,,,,,,,PAINT,HB,m,m,./images/PAINTHB.png,,,,,,,,,,,,,,,,,,,,,,m,1,1.5424,,,,,,,,0,58,58,7,1
,,,,,,,,,,,,,,,,,5fce736898fa590803b3b0d8,24,2022-02-12_13h26.07.160,lexical_decision_task_DD,2021.2.3,Win32,59.7335882,,,,,,,,,,,0.7378,1,,,,,,,,,,,,,,,,,,,,,,,,0.499238965,0.049467275,0,0,0,,,,,,,LADDER,LB,m,m,./images/LADDERLB.png,,,,,,,,,,,,,,,,,,,,,,m,1,0.7378,,,,,,,,0,59,59,38,1
,,,,,,,,,,,,,,,,,5fce736898fa590803b3b0d8,24,2022-02-12_13h26.07.160,lexical_decision_task_DD,2021.2.3,Win32,59.7335882,,,,,,,,,,,0.7555,1,,,,,,,,,,,,,,,,,,,,,,,,0.499238965,0.049467275,0,0,0,,,,,,,SAUCE,C,z,m,./images/SAUCE.png,,,,,,,,,,,,,,,,,,,,,,z,1,0.7555,,,,,,,,0,60,60,135,1
,,,,,,,,,,,,,,,,,5fce736898fa590803b3b0d8,24,2022-02-12_13h26.07.160,lexical_decision_task_DD,2021.2.3,Win32,59.7335882,,,,,,,,,,,0.704200001,1,,,,,,,,,,,,,,,,,,,,,,,,0.499238965,0.049467275,0,0,0,,,,,,,MUSCLE,HB,m,m,./images/MUSCLEHB.png,,,,,,,,,,,,,,,,,,,,,,m,1,0.704200001,,,,,,,,0,61,61,4,1
,,,,,,,,,,,,,,,,,5fce736898fa590803b3b0d8,24,2022-02-12_13h26.07.160,lexical_decision_task_DD,2021.2.3,Win32,59.7335882,,,,,,,,,,,0.6207,1,,,,,,,,,,,,,,,,,,,,,,,,0.499238965,0.049467275,0,0,0,,,,,,,LLAMA,LB,z,m,./images/LLAMALB.png,,,,,,,,,,,,,,,,,,,,,,z,1,0.6207,,,,,,,,0,62,62,119,1
,,,,,,,,,,,,,,,,,5fce736898fa590803b3b0d8,24,2022-02-12_13h26.07.160,lexical_decision_task_DD,2021.2.3,Win32,59.7335882,,,,,,,,,,,0.7884,1,,,,,,,,,,,,,,,,,,,,,,,,0.499238965,0.049467275,0,0,0,,,,,,,PEARL,HB,m,m,./images/PEARLHB.png,,,,,,,,,,,,,,,,,,,,,,m,1,0.7884,,,,,,,,0,63,63,46,1
,,,,,,,,,,,,,,,,,5fce736898fa590803b3b0d8,24,2022-02-12_13h26.07.160,lexical_decision_task_DD,2021.2.3,Win32,59.7335882,,,,,,,,,,,1.0226,1,,,,,,,,,,,,,,,,,,,,,,,,0.499238965,0.049467275,0,0,0,,,,,,,BRUSH,LB,z,m,./images/BRUSHLB.png,,,,,,,,,,,,,,,,,,,,,,z,1,1.0226,,,,,,,,0,64,64,143,1
,,,,,,,,,,,,,,,,,5fce736898fa590803b3b0d8,24,2022-02-12_13h26.07.160,lexical_decision_task_DD,2021.2.3,Win32,59.7335882,,,,,,,,,,,0.756400001,1,,,,,,,,,,,,,,,,,,,,,,,,0.499238965,0.049467275,0,0,0,,,,,,,DOUGH,HB,m,m,./images/DOUGHHB.png,,,,,,,,,,,,,,,,,,,,,,m,1,0.756400001,,,,,,,,0,65,65,19,1
,,,,,,,,,,,,,,,,,5fce736898fa590803b3b0d8,24,2022-02-12_13h26.07.160,lexical_decision_task_DD,2021.2.3,Win32,59.7335882,,,,,,,,,,,1.0229,0,,,,,,,,,,,,,,,,,,,,,,,,0.499238965,0.049467275,0,0,0,,,,,,,TORCH,LB,m,m,./images/TORCHLB.png,,,,,,,,,,,,,,,,,,,,,,z,0,1.0229,,,,,,,,0,66,66,68,1
,,,,,,,,,,,,,,,,,5fce736898fa590803b3b0d8,24,2022-02-12_13h26.07.160,lexical_decision_task_DD,2021.2.3,Win32,59.7335882,,,,,,,,,,,0.8049,1,,,,,,,,,,,,,,,,,,,,,,,,0.499238965,0.049467275,0,0,0,,,,,,,FERRY,C,z,m,./images/FERRY.png,,,,,,,,,,,,,,,,,,,,,,z,1,0.8049,,,,,,,,0,67,67,141,1
,,,,,,,,,,,,,,,,,5fce736898fa590803b3b0d8,24,2022-02-12_13h26.07.160,lexical_decision_task_DD,2021.2.3,Win32,59.7335882,,,,,,,,,,,0.855200001,1,,,,,,,,,,,,,,,,,,,,,,,,0.499238965,0.049467275,0,0,0,,,,,,,DRILL,C,z,m,./images/DRILL.png,,,,,,,,,,,,,,,,,,,,,,z,1,0.855200001,,,,,,,,0,68,68,165,1
,,,,,,,,,,,,,,,,,5fce736898fa590803b3b0d8,24,2022-02-12_13h26.07.160,lexical_decision_task_DD,2021.2.3,Win32,59.7335882,,,,,,,,,,,1.8946,1,,,,,,,,,,,,,,,,,,,,,,,,0.499238965,0.049467275,0,0,0,,,,,,,BOILER,C,z,m,./images/BOILER.png,,,,,,,,,,,,,,,,,,,,,,z,1,1.8946,,,,,,,,0,69,69,120,1
,,,,,,,,,,,,,,,,,5fce736898fa590803b3b0d8,24,2022-02-12_13h26.07.160,lexical_decision_task_DD,2021.2.3,Win32,59.7335882,,,,,,,,,,,1.6162,1,,,,,,,,,,,,,,,,,,,,,,,,0.499238965,0.049467275,0,0,0,,,,,,,STRING,LB,m,m,./images/STRINGLB.png,,,,,,,,,,,,,,,,,,,,,,m,1,1.6162,,,,,,,,0,70,70,41,1
,,,,,,,,,,,,,,,,,5fce736898fa590803b3b0d8,24,2022-02-12_13h26.07.160,lexical_decision_task_DD,2021.2.3,Win32,59.7335882,,,,,,,,,,,1.0669,1,,,,,,,,,,,,,,,,,,,,,,,,0.499238965,0.049467275,0,0,0,,,,,,,CANOE,HB,z,m,./images/CANOEHB.png,,,,,,,,,,,,,,,,,,,,,,z,1,1.0669,,,,,,,,0,71,71,142,1
,,,,,,,,,,,,,,,,,5fce736898fa590803b3b0d8,24,2022-02-12_13h26.07.160,lexical_decision_task_DD,2021.2.3,Win32,59.7335882,,,,,,,,,,,1.883,1,,,,,,,,,,,,,,,,,,,,,,,,0.499238965,0.049467275,0,0,0,,,,,,,STEAK,HB,z,m,./images/STEAKHB.png,,,,,,,,,,,,,,,,,,,,,,z,1,1.883,,,,,,,,0,72,72,115,1
,,,,,,,,,,,,,,,,,5fce736898fa590803b3b0d8,24,2022-02-12_13h26.07.160,lexical_decision_task_DD,2021.2.3,Win32,59.7335882,,,,,,,,,,,1.1559,1,,,,,,,,,,,,,,,,,,,,,,,,0.499238965,0.049467275,0,0,0,,,,,,,TOMATO,C,m,m,./images/TOMATO.png,,,,,,,,,,,,,,,,,,,,,,m,1,1.1559,,,,,,,,0,73,73,0,1
,,,,,,,,,,,,,,,,,5fce736898fa590803b3b0d8,24,2022-02-12_13h26.07.160,lexical_decision_task_DD,2021.2.3,Win32,59.7335882,,,,,,,,,,,0.8864,1,,,,,,,,,,,,,,,,,,,,,,,,0.499238965,0.049467275,0,0,0,,,,,,,URINE,HB,m,m,./images/URINEHB.png,,,,,,,,,,,,,,,,,,,,,,m,1,0.8864,,,,,,,,0,74,74,70,1
,,,,,,,,,,,,,,,,,5fce736898fa590803b3b0d8,24,2022-02-12_13h26.07.160,lexical_decision_task_DD,2021.2.3,Win32,59.7335882,,,,,,,,,,,0.814,1,,,,,,,,,,,,,,,,,,,,,,,,0.499238965,0.049467275,0,0,0,,,,,,,STATUE,C,z,m,./images/STATUE.png,,,,,,,,,,,,,,,,,,,,,,z,1,0.814,,,,,,,,0,75,75,150,1
,,,,,,,,,,,,,,,,,5fce736898fa590803b3b0d8,24,2022-02-12_13h26.07.160,lexical_decision_task_DD,2021.2.3,Win32,59.7335882,,,,,,,,,,,1.4277,1,,,,,,,,,,,,,,,,,,,,,,,,0.499238965,0.049467275,0,0,0,,,,,,,LITTER,C,m,m,./images/LITTER.png,,,,,,,,,,,,,,,,,,,,,,m,1,1.4277,,,,,,,,0,76,76,78,1
,,,,,,,,,,,,,,,,,5fce736898fa590803b3b0d8,24,2022-02-12_13h26.07.160,lexical_decision_task_DD,2021.2.3,Win32,59.7335882,,,,,,,,,,,0.8305,1,,,,,,,,,,,,,,,,,,,,,,,,0.499238965,0.049467275,0,0,0,,,,,,,RHINO,C,m,m,./images/RHINO.png,,,,,,,,,,,,,,,,,,,,,,m,1,0.8305,,,,,,,,0,77,77,9,1
,,,,,,,,,,,,,,,,,5fce736898fa590803b3b0d8,24,2022-02-12_13h26.07.160,lexical_decision_task_DD,2021.2.3,Win32,59.7335882,,,,,,,,,,,1.161,1,,,,,,,,,,,,,,,,,,,,,,,,0.499238965,0.049467275,0,0,0,,,,,,,POKER,HB,z,m,./images/POKERHB.png,,,,,,,,,,,,,,,,,,,,,,z,1,1.161,,,,,,,,0,78,78,151,1
,,,,,,,,,,,,,,,,,5fce736898fa590803b3b0d8,24,2022-02-12_13h26.07.160,lexical_decision_task_DD,2021.2.3,Win32,59.7335882,,,,,,,,,,,0.7527,1,,,,,,,,,,,,,,,,,,,,,,,,0.499238965,0.049467275,0,0,0,,,,,,,GRAPE,HB,z,m,./images/GRAPEHB.png,,,,,,,,,,,,,,,,,,,,,,z,1,0.7527,,,,,,,,0,79,79,100,1
,,,,,,,,,,,,,,,,,5fce736898fa590803b3b0d8,24,2022-02-12_13h26.07.160,lexical_decision_task_DD,2021.2.3,Win32,59.7335882,,,,,,,,,,,0.7875,1,,,,,,,,,,,,,,,,,,,,,,,,0.499238965,0.049467275,0,0,0,,,,,,,WAGON,HB,z,m,./images/WAGONHB.png,,,,,,,,,,,,,,,,,,,,,,z,1,0.7875,,,,,,,,0,80,80,91,1
,,,,,,,,,,,,,,,,,5fce736898fa590803b3b0d8,24,2022-02-12_13h26.07.160,lexical_decision_task_DD,2021.2.3,Win32,59.7335882,,,,,,,,,,,0.9045,1,,,,,,,,,,,,,,,,,,,,,,,,0.499238965,0.049467275,0,0,0,,,,,,,CANDLE,HB,m,m,./images/CANDLEHB.png,,,,,,,,,,,,,,,,,,,,,,m,1,0.9045,,,,,,,,0,81,81,61,1
,,,,,,,,,,,,,,,,,5fce736898fa590803b3b0d8,24,2022-02-12_13h26.07.160,lexical_decision_task_DD,2021.2.3,Win32,59.7335882,,,,,,,,,,,0.753099999,1,,,,,,,,,,,,,,,,,,,,,,,,0.499238965,0.049467275,0,0,0,,,,,,,PARCEL,C,z,m,./images/PARCEL.png,,,,,,,,,,,,,,,,,,,,,,z,1,0.753099999,,,,,,,,0,82,82,102,1
,,,,,,,,,,,,,,,,,5fce736898fa590803b3b0d8,24,2022-02-12_13h26.07.160,lexical_decision_task_DD,2021.2.3,Win32,59.7335882,,,,,,,,,,,0.753900001,1,,,,,,,,,,,,,,,,,,,,,,,,0.499238965,0.049467275,0,0,0,space,,,,,,CARPET,LB,m,m,./images/CARPETLB.png,3.3186,,,,,,,,,,,,,,,,,,,,,m,1,0.753900001,,,,,,,,0,83,83,53,1
,,,,,,,,,,,,,,,,,5fce736898fa590803b3b0d8,24,2022-02-12_13h26.07.160,lexical_decision_task_DD,2021.2.3,Win32,59.7335882,,,,,,,,,,,1.0554,1,,,,,,,,,,,,,,,,,,,,,,,,0.499238965,0.049467275,0,0,0,,,,,,,ARROW,C,z,m,./images/ARROW.png,,,,,,,,,,,,,,,,,,,,,,z,1,1.0554,,,,,,,,0,84,84,153,1
,,,,,,,,,,,,,,,,,5fce736898fa590803b3b0d8,24,2022-02-12_13h26.07.160,lexical_decision_task_DD,2021.2.3,Win32,59.7335882,,,,,,,,,,,0.8873,1,,,,,,,,,,,,,,,,,,,,,,,,0.499238965,0.049467275,0,0,0,,,,,,,DIVER,C,z,m,./images/DIVER.png,,,,,,,,,,,,,,,,,,,,,,z,1,0.8873,,,,,,,,0,85,85,93,1
,,,,,,,,,,,,,,,,,5fce736898fa590803b3b0d8,24,2022-02-12_13h26.07.160,lexical_decision_task_DD,2021.2.3,Win32,59.7335882,,,,,,,,,,,0.7667,1,,,,,,,,,,,,,,,,,,,,,,,,0.499238965,0.049467275,0,0,0,,,,,,,KIDNEY,C,m,m,./images/KIDNEY.png,,,,,,,,,,,,,,,,,,,,,,m,1,0.7667,,,,,,,,0,86,86,21,1
,,,,,,,,,,,,,,,,,5fce736898fa590803b3b0d8,24,2022-02-12_13h26.07.160,lexical_decision_task_DD,2021.2.3,Win32,59.7335882,,,,,,,,,,,0.829599999,1,,,,,,,,,,,,,,,,,,,,,,,,0.499238965,0.049467275,0,0,0,,,,,,,PACKET,LB,m,m,./images/PACKETLB.png,,,,,,,,,,,,,,,,,,,,,,m,1,0.829599999,,,,,,,,0,87,87,56,1
,,,,,,,,,,,,,,,,,5fce736898fa590803b3b0d8,24,2022-02-12_13h26.07.160,lexical_decision_task_DD,2021.2.3,Win32,59.7335882,,,,,,,,,,,0.805400001,1,,,,,,,,,,,,,,,,,,,,,,,,0.499238965,0.049467275,0,0,0,,,,,,,MUMMY,HB,z,m,./images/MUMMYHB.png,,,,,,,,,,,,,,,,,,,,,,z,1,0.805400001,,,,,,,,0,88,88,130,1
,,,,,,,,,,,,,,,,,5fce736898fa590803b3b0d8,24,2022-02-12_13h26.07.160,lexical_decision_task_DD,2021.2.3,Win32,59.7335882,,,,,,,,,,,2.7323,1,,,,,,,,,,,,,,,,,,,,,,,,0.499238965,0.049467275,0,0,0,,,,,,,MAMMAL,LB,z,m,./images/MAMMALLB.png,,,,,,,,,,,,,,,,,,,,,,z,1,2.7323,,,,,,,,0,89,89,146,1
,,,,,,,,,,,,,,,,,5fce736898fa590803b3b0d8,24,2022-02-12_13h26.07.160,lexical_decision_task_DD,2021.2.3,Win32,59.7335882,,,,,,,,,,,0.704599999,1,,,,,,,,,,,,,,,,,,,,,,,,0.499238965,0.049467275,0,0,0,,,,,,,SWEAT,C,m,m,./images/SWEAT.png,,,,,,,,,,,,,,,,,,,,,,m,1,0.704599999,,,,,,,,0,90,90,66,1
,,,,,,,,,,,,,,,,,5fce736898fa590803b3b0d8,24,2022-02-12_13h26.07.160,lexical_decision_task_DD,2021.2.3,Win32,59.7335882,,,,,,,,,,,1.5592,0,,,,,,,,,,,,,,,,,,,,,,,,0.499238965,0.049467275,0,0,0,,,,,,,POODLE,C,m,m,./images/POODLE.png,,,,,,,,,,,,,,,,,,,,,,z,0,1.5592,,,,,,,,0,91,91,81,1
,,,,,,,,,,,,,,,,,5fce736898fa590803b3b0d8,24,2022-02-12_13h26.07.160,lexical_decision_task_DD,2021.2.3,Win32,59.7335882,,,,,,,,,,,0.6717,1,,,,,,,,,,,,,,,,,,,,,,,,0.499238965,0.049467275,0,0,0,,,,,,,BASKET,LB,z,m,./images/BASKETLB.png,,,,,,,,,,,,,,,,,,,,,,z,1,0.6717,,,,,,,,0,92,92,128,1
,,,,,,,,,,,,,,,,,5fce736898fa590803b3b0d8,24,2022-02-12_13h26.07.160,lexical_decision_task_DD,2021.2.3,Win32,59.7335882,,,,,,,,,,,1.8275,0,,,,,,,,,,,,,,,,,,,,,,,,0.499238965,0.049467275,0,0,0,,,,,,,CANDY,C,z,m,./images/CANDY.png,,,,,,,,,,,,,,,,,,,,,,m,0,1.8275,,,,,,,,0,93,93,123,1
,,,,,,,,,,,,,,,,,5fce736898fa590803b3b0d8,24,2022-02-12_13h26.07.160,lexical_decision_task_DD,2021.2.3,Win32,59.7335882,,,,,,,,,,,2.229599999,1,,,,,,,,,,,,,,,,,,,,,,,,0.499238965,0.049467275,0,0,0,,,,,,,MALLET,LB,m,m,./images/MALLETLB.png,,,,,,,,,,,,,,,,,,,,,,m,1,2.229599999,,,,,,,,0,94,94,50,1
,,,,,,,,,,,,,,,,,5fce736898fa590803b3b0d8,24,2022-02-12_13h26.07.160,lexical_decision_task_DD,2021.2.3,Win32,59.7335882,,,,,,,,,,,0.855400001,1,,,,,,,,,,,,,,,,,,,,,,,,0.499238965,0.049467275,0,0,0,,,,,,,HEATER,LB,z,m,./images/HEATERLB.png,,,,,,,,,,,,,,,,,,,,,,z,1,0.855400001,,,,,,,,0,95,95,140,1
,,,,,,,,,,,,,,,,,5fce736898fa590803b3b0d8,24,2022-02-12_13h26.07.160,lexical_decision_task_DD,2021.2.3,Win32,59.7335882,,,,,,,,,,,1.7945,0,,,,,,,,,,,,,,,,,,,,,,,,0.499238965,0.049467275,0,0,0,,,,,,,DRUMS,HB,m,m,./images/DRUMSHB.png,,,,,,,,,,,,,,,,,,,,,,z,0,1.7945,,,,,,,,0,96,96,49,1
,,,,,,,,,,,,,,,,,5fce736898fa590803b3b0d8,24,2022-02-12_13h26.07.160,lexical_decision_task_DD,2021.2.3,Win32,59.7335882,,,,,,,,,,,2.2469,1,,,,,,,,,,,,,,,,,,,,,,,,0.499238965,0.049467275,0,0,0,,,,,,,BELLY,HB,m,m,./images/BELLYHB.png,,,,,,,,,,,,,,,,,,,,,,m,1,2.2469,,,,,,,,0,97,97,10,1
,,,,,,,,,,,,,,,,,5fce736898fa590803b3b0d8,24,2022-02-12_13h26.07.160,lexical_decision_task_DD,2021.2.3,Win32,59.7335882,,,,,,,,,,,2.4475,0,,,,,,,,,,,,,,,,,,,,,,,,0.499238965,0.049467275,0,0,0,,,,,,,CRUMB,LB,m,m,./images/CRUMBLB.png,,,,,,,,,,,,,,,,,,,,,,z,0,2.4475,,,,,,,,0,98,98,29,1
,,,,,,,,,,,,,,,,,5fce736898fa590803b3b0d8,24,2022-02-12_13h26.07.160,lexical_decision_task_DD,2021.2.3,Win32,59.7335882,,,,,,,,,,,0.8721,0,,,,,,,,,,,,,,,,,,,,,,,,0.499238965,0.049467275,0,0,0,,,,,,,COOKER,C,m,m,./images/COOKER.png,,,,,,,,,,,,,,,,,,,,,,z,0,0.8721,,,,,,,,0,99,99,69,1
,,,,,,,,,,,,,,,,,5fce736898fa590803b3b0d8,24,2022-02-12_13h26.07.160,lexical_decision_task_DD,2021.2.3,Win32,59.7335882,,,,,,,,,,,1.0232,1,,,,,,,,,,,,,,,,,,,,,,,,0.499238965,0.049467275,0,0,0,,,,,,,STREAM,LB,z,m,./images/STREAMLB.png,,,,,,,,,,,,,,,,,,,,,,z,1,1.0232,,,,,,,,0,100,100,125,1
,,,,,,,,,,,,,,,,,5fce736898fa590803b3b0d8,24,2022-02-12_13h26.07.160,lexical_decision_task_DD,2021.2.3,Win32,59.7335882,,,,,,,,,,,0.8382,1,,,,,,,,,,,,,,,,,,,,,,,,0.499238965,0.049467275,0,0,0,,,,,,,STAIN,C,z,m,./images/STAIN.png,,,,,,,,,,,,,,,,,,,,,,z,1,0.8382,,,,,,,,0,101,101,90,1
,,,,,,,,,,,,,,,,,5fce736898fa590803b3b0d8,24,2022-02-12_13h26.07.160,lexical_decision_task_DD,2021.2.3,Win32,59.7335882,,,,,,,,,,,0.872,1,,,,,,,,,,,,,,,,,,,,,,,,0.499238965,0.049467275,0,0,0,,,,,,,VALLEY,LB,z,m,./images/VALLEYLB.png,,,,,,,,,,,,,,,,,,,,,,z,1,0.872,,,,,,,,0,102,102,152,1
,,,,,,,,,,,,,,,,,5fce736898fa590803b3b0d8,24,2022-02-12_13h26.07.160,lexical_decision_task_DD,2021.2.3,Win32,59.7335882,,,,,,,,,,,0.8553,1,,,,,,,,,,,,,,,,,,,,,,,,0.499238965,0.049467275,0,0,0,,,,,,,JUNGLE,LB,m,m,./images/JUNGLELB.png,,,,,,,,,,,,,,,,,,,,,,m,1,0.8553,,,,,,,,0,103,103,83,1
,,,,,,,,,,,,,,,,,5fce736898fa590803b3b0d8,24,2022-02-12_13h26.07.160,lexical_decision_task_DD,2021.2.3,Win32,59.7335882,,,,,,,,,,,0.7544,1,,,,,,,,,,,,,,,,,,,,,,,,0.499238965,0.049467275,0,0,0,,,,,,,LIZARD,LB,m,m,./images/LIZARDLB.png,,,,,,,,,,,,,,,,,,,,,,m,1,0.7544,,,,,,,,0,104,104,44,1
,,,,,,,,,,,,,,,,,5fce736898fa590803b3b0d8,24,2022-02-12_13h26.07.160,lexical_decision_task_DD,2021.2.3,Win32,59.7335882,,,,,,,,,,,0.9725,1,,,,,,,,,,,,,,,,,,,,,,,,0.499238965,0.049467275,0,0,0,,,,,,,JELLY,HB,m,m,./images/JELLYHB.png,,,,,,,,,,,,,,,,,,,,,,m,1,0.9725,,,,,,,,0,105,105,64,1
,,,,,,,,,,,,,,,,,5fce736898fa590803b3b0d8,24,2022-02-12_13h26.07.160,lexical_decision_task_DD,2021.2.3,Win32,59.7335882,,,,,,,,,,,0.6294,1,,,,,,,,,,,,,,,,,,,,,,,,0.499238965,0.049467275,0,0,0,,,,,,,RULER,HB,z,m,./images/RULERHB.png,,,,,,,,,,,,,,,,,,,,,,z,1,0.6294,,,,,,,,0,106,106,163,1
,,,,,,,,,,,,,,,,,5fce736898fa590803b3b0d8,24,2022-02-12_13h26.07.160,lexical_decision_task_DD,2021.2.3,Win32,59.7335882,,,,,,,,,,,1.431700001,0,,,,,,,,,,,,,,,,,,,,,,,,0.499238965,0.049467275,0,0,0,,,,,,,SHELF,C,m,m,./images/SHELF.png,,,,,,,,,,,,,,,,,,,,,,z,0,1.431700001,,,,,,,,0,107,107,39,1
,,,,,,,,,,,,,,,,,5fce736898fa590803b3b0d8,24,2022-02-12_13h26.07.160,lexical_decision_task_DD,2021.2.3,Win32,59.7335882,,,,,,,,,,,1.021099999,1,,,,,,,,,,,,,,,,,,,,,,,,0.499238965,0.049467275,0,0,0,,,,,,,LAGOON,LB,z,m,./images/LAGOONLB.png,,,,,,,,,,,,,,,,,,,,,,z,1,1.021099999,,,,,,,,0,108,108,131,1
,,,,,,,,,,,,,,,,,5fce736898fa590803b3b0d8,24,2022-02-12_13h26.07.160,lexical_decision_task_DD,2021.2.3,Win32,59.7335882,,,,,,,,,,,0.7872,1,,,,,,,,,,,,,,,,,,,,,,,,0.499238965,0.049467275,0,0,0,,,,,,,CLOWN,HB,z,m,./images/CLOWNHB.png,,,,,,,,,,,,,,,,,,,,,,z,1,0.7872,,,,,,,,0,109,109,106,1
,,,,,,,,,,,,,,,,,5fce736898fa590803b3b0d8,24,2022-02-12_13h26.07.160,lexical_decision_task_DD,2021.2.3,Win32,59.7335882,,,,,,,,,,,0.938099999,1,,,,,,,,,,,,,,,,,,,,,,,,0.499238965,0.049467275,0,0,0,,,,,,,MONKEY,C,z,m,./images/MONKEY.png,,,,,,,,,,,,,,,,,,,,,,z,1,0.938099999,,,,,,,,0,110,110,129,1
,,,,,,,,,,,,,,,,,5fce736898fa590803b3b0d8,24,2022-02-12_13h26.07.160,lexical_decision_task_DD,2021.2.3,Win32,59.7335882,,,,,,,,,,,0.8603,1,,,,,,,,,,,,,,,,,,,,,,,,0.499238965,0.049467275,0,0,0,,,,,,,SNAKE,HB,z,m,./images/SNAKEHB.png,,,,,,,,,,,,,,,,,,,,,,z,1,0.8603,,,,,,,,0,111,111,124,1
,,,,,,,,,,,,,,,,,5fce736898fa590803b3b0d8,24,2022-02-12_13h26.07.160,lexical_decision_task_DD,2021.2.3,Win32,59.7335882,,,,,,,,,,,1.011,0,,,,,,,,,,,,,,,,,,,,,,,,0.499238965,0.049467275,0,0,0,,,,,,,BEARD,LB,m,m,./images/BEARDLB.png,,,,,,,,,,,,,,,,,,,,,,z,0,1.011,,,,,,,,0,112,112,2,1
,,,,,,,,,,,,,,,,,5fce736898fa590803b3b0d8,24,2022-02-12_13h26.07.160,lexical_decision_task_DD,2021.2.3,Win32,59.7335882,,,,,,,,,,,0.8598,1,,,,,,,,,,,,,,,,,,,,,,,,0.499238965,0.049467275,0,0,0,,,,,,,CEMENT,LB,m,m,./images/CEMENTLB.png,,,,,,,,,,,,,,,,,,,,,,m,1,0.8598,,,,,,,,0,113,113,74,1
,,,,,,,,,,,,,,,,,5fce736898fa590803b3b0d8,24,2022-02-12_13h26.07.160,lexical_decision_task_DD,2021.2.3,Win32,59.7335882,,,,,,,,,,,0.6855,1,,,,,,,,,,,,,,,,,,,,,,,,0.499238965,0.049467275,0,0,0,,,,,,,FLASK,C,z,m,./images/FLASK.png,,,,,,,,,,,,,,,,,,,,,,z,1,0.6855,,,,,,,,0,114,114,156,1
,,,,,,,,,,,,,,,,,5fce736898fa590803b3b0d8,24,2022-02-12_13h26.07.160,lexical_decision_task_DD,2021.2.3,Win32,59.7335882,,,,,,,,,,,0.837099999,1,,,,,,,,,,,,,,,,,,,,,,,,0.499238965,0.049467275,0,0,0,,,,,,,STOOL,HB,z,m,./images/STOOLHB.png,,,,,,,,,,,,,,,,,,,,,,z,1,0.837099999,,,,,,,,0,115,115,127,1
,,,,,,,,,,,,,,,,,5fce736898fa590803b3b0d8,24,2022-02-12_13h26.07.160,lexical_decision_task_DD,2021.2.3,Win32,59.7335882,,,,,,,,,,,0.972299999,1,,,,,,,,,,,,,,,,,,,,,,,,0.499238965,0.049467275,0,0,0,,,,,,,CURRY,C,z,m,./images/CURRY.png,,,,,,,,,,,,,,,,,,,,,,z,1,0.972299999,,,,,,,,0,116,116,144,1
,,,,,,,,,,,,,,,,,5fce736898fa590803b3b0d8,24,2022-02-12_13h26.07.160,lexical_decision_task_DD,2021.2.3,Win32,59.7335882,,,,,,,,,,,1.0272,1,,,,,,,,,,,,,,,,,,,,,,,,0.499238965,0.049467275,0,0,0,,,,,,,GARDEN,HB,z,m,./images/GARDENHB.png,,,,,,,,,,,,,,,,,,,,,,z,1,1.0272,,,,,,,,0,117,117,94,1
,,,,,,,,,,,,,,,,,5fce736898fa590803b3b0d8,24,2022-02-12_13h26.07.160,lexical_decision_task_DD,2021.2.3,Win32,59.7335882,,,,,,,,,,,0.892099999,1,,,,,,,,,,,,,,,,,,,,,,,,0.499238965,0.049467275,0,0,0,,,,,,,THROAT,C,m,m,./images/THROAT.png,,,,,,,,,,,,,,,,,,,,,,m,1,0.892099999,,,,,,,,0,118,118,36,1
,,,,,,,,,,,,,,,,,5fce736898fa590803b3b0d8,24,2022-02-12_13h26.07.160,lexical_decision_task_DD,2021.2.3,Win32,59.7335882,,,,,,,,,,,0.69,1,,,,,,,,,,,,,,,,,,,,,,,,0.499238965,0.049467275,0,0,0,,,,,,,HAMMER,C,z,m,./images/HAMMER.png,,,,,,,,,,,,,,,,,,,,,,z,1,0.69,,,,,,,,0,119,119,159,1
,,,,,,,,,,,,,,,,,5fce736898fa590803b3b0d8,24,2022-02-12_13h26.07.160,lexical_decision_task_DD,2021.2.3,Win32,59.7335882,,,,,,,,,,,0.6695,1,,,,,,,,,,,,,,,,,,,,,,,,0.499238965,0.049467275,0,0,0,,,,,,,BRIDE,HB,z,m,./images/BRIDEHB.png,,,,,,,,,,,,,,,,,,,,,,z,1,0.6695,,,,,,,,0,120,120,148,1
,,,,,,,,,,,,,,,,,5fce736898fa590803b3b0d8,24,2022-02-12_13h26.07.160,lexical_decision_task_DD,2021.2.3,Win32,59.7335882,,,,,,,,,,,0.9063,1,,,,,,,,,,,,,,,,,,,,,,,,0.499238965,0.049467275,0,0,0,,,,,,,GRAIN,C,m,m,./images/GRAIN.png,,,,,,,,,,,,,,,,,,,,,,m,1,0.9063,,,,,,,,0,121,121,75,1
,,,,,,,,,,,,,,,,,5fce736898fa590803b3b0d8,24,2022-02-12_13h26.07.160,lexical_decision_task_DD,2021.2.3,Win32,59.7335882,,,,,,,,,,,1.005799999,0,,,,,,,,,,,,,,,,,,,,,,,,0.499238965,0.049467275,0,0,0,,,,,,,KITTEN,C,m,m,./images/KITTEN.png,,,,,,,,,,,,,,,,,,,,,,z,0,1.005799999,,,,,,,,0,122,122,45,1
,,,,,,,,,,,,,,,,,5fce736898fa590803b3b0d8,24,2022-02-12_13h26.07.160,lexical_decision_task_DD,2021.2.3,Win32,59.7335882,,,,,,,,,,,0.6209,1,,,,,,,,,,,,,,,,,,,,,,,,0.499238965,0.049467275,0,0,0,,,,,,,FLESH,C,z,m,./images/FLESH.png,,,,,,,,,,,,,,,,,,,,,,z,1,0.6209,,,,,,,,0,123,123,108,1
,,,,,,,,,,,,,,,,,5fce736898fa590803b3b0d8,24,2022-02-12_13h26.07.160,lexical_decision_task_DD,2021.2.3,Win32,59.7335882,,,,,,,,,,,0.6705,1,,,,,,,,,,,,,,,,,,,,,,,,0.499238965,0.049467275,0,0,0,,,,,,,STOVE,LB,z,m,./images/STOVELB.png,,,,,,,,,,,,,,,,,,,,,,z,1,0.6705,,,,,,,,0,124,124,86,1
,,,,,,,,,,,,,,,,,5fce736898fa590803b3b0d8,24,2022-02-12_13h26.07.160,lexical_decision_task_DD,2021.2.3,Win32,59.7335882,,,,,,,,,,,0.803400001,1,,,,,,,,,,,,,,,,,,,,,,,,0.499238965,0.049467275,0,0,0,space,,,,,,SWING,HB,m,m,./images/SWINGHB.png,16.7439,,,,,,,,,,,,,,,,,,,,,m,1,0.803400001,,,,,,,,0,125,125,40,1
,,,,,,,,,,,,,,,,,5fce736898fa590803b3b0d8,24,2022-02-12_13h26.07.160,lexical_decision_task_DD,2021.2.3,Win32,59.7335882,,,,,,,,,,,1.7096,1,,,,,,,,,,,,,,,,,,,,,,,,0.499238965,0.049467275,0,0,0,,,,,,,CRATER,C,z,m,./images/CRATER.png,,,,,,,,,,,,,,,,,,,,,,z,1,1.7096,,,,,,,,0,126,126,87,1
,,,,,,,,,,,,,,,,,5fce736898fa590803b3b0d8,24,2022-02-12_13h26.07.160,lexical_decision_task_DD,2021.2.3,Win32,59.7335882,,,,,,,,,,,1.9452,1,,,,,,,,,,,,,,,,,,,,,,,,0.499238965,0.049467275,0,0,0,,,,,,,TRIPOD,C,m,m,./images/TRIPOD.png,,,,,,,,,,,,,,,,,,,,,,m,1,1.9452,,,,,,,,0,127,127,54,1
,,,,,,,,,,,,,,,,,5fce736898fa590803b3b0d8,24,2022-02-12_13h26.07.160,lexical_decision_task_DD,2021.2.3,Win32,59.7335882,,,,,,,,,,,0.7381,1,,,,,,,,,,,,,,,,,,,,,,,,0.499238965,0.049467275,0,0,0,,,,,,,CASINO,HB,z,m,./images/CASINOHB.png,,,,,,,,,,,,,,,,,,,,,,z,1,0.7381,,,,,,,,0,128,128,112,1
,,,,,,,,,,,,,,,,,5fce736898fa590803b3b0d8,24,2022-02-12_13h26.07.160,lexical_decision_task_DD,2021.2.3,Win32,59.7335882,,,,,,,,,,,1.2072,1,,,,,,,,,,,,,,,,,,,,,,,,0.499238965,0.049467275,0,0,0,,,,,,,CRUST,HB,m,m,./images/CRUSTHB.png,,,,,,,,,,,,,,,,,,,,,,m,1,1.2072,,,,,,,,0,129,129,79,1
,,,,,,,,,,,,,,,,,5fce736898fa590803b3b0d8,24,2022-02-12_13h26.07.160,lexical_decision_task_DD,2021.2.3,Win32,59.7335882,,,,,,,,,,,0.7053,1,,,,,,,,,,,,,,,,,,,,,,,,0.499238965,0.049467275,0,0,0,,,,,,,SMOKER,LB,m,m,./images/SMOKERLB.png,,,,,,,,,,,,,,,,,,,,,,m,1,0.7053,,,,,,,,0,130,130,26,1
,,,,,,,,,,,,,,,,,5fce736898fa590803b3b0d8,24,2022-02-12_13h26.07.160,lexical_decision_task_DD,2021.2.3,Win32,59.7335882,,,,,,,,,,,0.6191,1,,,,,,,,,,,,,,,,,,,,,,,,0.499238965,0.049467275,0,0,0,,,,,,,PEBBLE,HB,z,m,./images/PEBBLEHB.png,,,,,,,,,,,,,,,,,,,,,,z,1,0.6191,,,,,,,,0,131,131,166,1
