key_resp.keys,instr_done_touch.x,instr_done_touch.y,instr_done_touch.leftButton,instr_done_touch.midButton,instr_done_touch.rightButton,instr_done_touch.clicked_name,instruction_pages.thisRepN,instruction_pages.thisTrialN,instruction_pages.thisN,instruction_pages.thisIndex,instruction_pages.ran,pageN,phase,instruct_text,has_image,instruct_image,participant,age,date,expName,psychopyVersion,OS,frameRate,response.keys,response.corr,touch_resp.x,touch_resp.y,touch_resp.leftButton,touch_resp.midButton,touch_resp.rightButton,touch_resp.time,touch_resp.clicked_name,rt,corr,practrials.thisRepN,practrials.thisTrialN,practrials.thisN,practrials.thisIndex,practrials.ran,TrialID,Target,corrAns,end_of_practice_trials_pages.thisRepN,end_of_practice_trials_pages.thisTrialN,end_of_practice_trials_pages.thisN,end_of_practice_trials_pages.thisIndex,end_of_practice_trials_pages.ran,key_resp_2.keys,key_resp_2.corr,targ_click.x,targ_click.y,targ_click.leftButton,targ_click.midButton,targ_click.rightButton,targ_click.time,targ_click.clicked_name,break_done_touch.x,break_done_touch.y,break_done_touch.leftButton,break_done_touch.midButton,break_done_touch.rightButton,break_done_keyboard.keys,maintrials.thisRepN,maintrials.thisTrialN,maintrials.thisN,maintrials.thisIndex,maintrials.ran,string,blur,study,lex,stim_path,break_done_touch.clicked_name,mouse_2.x,mouse_2.y,mouse_2.leftButton,mouse_2.midButton,mouse_2.rightButton,mouse_2.clicked_name,slider.response,slider.rt,trials.thisRepN,trials.thisTrialN,trials.thisN,trials.thisIndex,trials.ran,test_instructions.thisRepN,test_instructions.thisTrialN,test_instructions.thisN,test_instructions.thisIndex,test_instructions.ran,key_resp_3.keys,key_resp_3.corr,test_click.x,test_click.y,test_click.leftButton,test_click.midButton,test_click.rightButton,test_click.time,test_click.clicked_name,test_phase.thisRepN,test_phase.thisTrialN,test_phase.thisN,test_phase.thisIndex,test_phase.ran
,-0.090816327,-0.365816327,1,0,0,instr_done_button,0,0,0,0,1,1,instructions,"INSTRUCTIONS
At the start of each trial, look at the plus sign  (+) in the center of the screen.  This tells you that a trial is about to begin and where to look. Second, the plus sign will disappear and a string of letters will appear. Your task is to determine if the string of letters is a word or not. If the item is a word press the M key (on keyboard)  or touch the word button (phone/tablet).  If the item is not a word,  press the  Z key (on keyboard)  or touch the nonword button (on phone/tablet). 
Press the space bar or touch  continue.",0,,607fb8465341fd553409b92b,41,2022-02-12_12h35.23.529,lexical_decision_task_DD,2021.2.3,iPhone,30.3030303,,,,,,,,,,,,,,,,,,,,,,,,,,,,,,,,,,,,,,,,,,,,,,,,,,,,,,,,,,,,,,,,,,,,,,,,,,,,,,,,,,
,-0.113265306,-0.412755102,1,0,0,instr_done_button,0,1,1,1,1,2,instructions,"If your device has a keyboard, press the 'Z' key for nonwords and the 'M' key for words.





Press the space bar or touch the button below to continue.",0,keyboard-example.gif,607fb8465341fd553409b92b,41,2022-02-12_12h35.23.529,lexical_decision_task_DD,2021.2.3,iPhone,30.3030303,,,,,,,,,,,,,,,,,,,,,,,,,,,,,,,,,,,,,,,,,,,,,,,,,,,,,,,,,,,,,,,,,,,,,,,,,,,,,,,,,,
,-0.12244898,-0.414795918,1,0,0,instr_done_button,0,2,2,2,1,3,instructions,"If you are using a touchscreen only device, use the buttons on the screen. Do not use the mouse.





Press the space bar or touch the button below to continue.",0,touchscreen-example.gif,607fb8465341fd553409b92b,41,2022-02-12_12h35.23.529,lexical_decision_task_DD,2021.2.3,iPhone,30.3030303,,,,,,,,,,,,,,,,,,,,,,,,,,,,,,,,,,,,,,,,,,,,,,,,,,,,,,,,,,,,,,,,,,,,,,,,,,,,,,,,,,
,-0.119387755,-0.417857143,1,0,0,instr_done_button,0,3,3,3,1,4,instructions,"It is very important that you respond as quickly and accurately as possible, as each letter string will only be on the screen for two seconds. If you do not respond within this time, the message 'Too slow!' will be displayed and the experiment will progress to the next letter string. The first 20 trials will be practice trials and you will receive feedback on your answers. 

Press the space bar or touch the button below to start the practice trials.",0,,607fb8465341fd553409b92b,41,2022-02-12_12h35.23.529,lexical_decision_task_DD,2021.2.3,iPhone,30.3030303,,,,,,,,,,,,,,,,,,,,,,,,,,,,,,,,,,,,,,,,,,,,,,,,,,,,,,,,,,,,,,,,,,,,,,,,,,,,,,,,,,
,,,,,,,,,,,,,,,,,607fb8465341fd553409b92b,41,2022-02-12_12h35.23.529,lexical_decision_task_DD,2021.2.3,iPhone,30.3030303,,0,-0.358163265,-0.555612245,1,0,0,1.369,button_left,1.369,1,0,0,0,10,1,1001,INLADE,z,,,,,,,,,,,,,,,,,,,,,,,,,,,,,,,,,,,,,,,,,,,,,,,,,,,,,,,,,,,,,,,
,,,,,,,,,,,,,,,,,607fb8465341fd553409b92b,41,2022-02-12_12h35.23.529,lexical_decision_task_DD,2021.2.3,iPhone,30.3030303,,0,0.384693878,-0.291326531,1,0,0,1.367,button_right,1.367,1,0,1,1,1,1,1001,ADJUST,m,,,,,,,,,,,,,,,,,,,,,,,,,,,,,,,,,,,,,,,,,,,,,,,,,,,,,,,,,,,,,,,
,,,,,,,,,,,,,,,,,607fb8465341fd553409b92b,41,2022-02-12_12h35.23.529,lexical_decision_task_DD,2021.2.3,iPhone,30.3030303,,0,0.382653061,-0.291326531,1,0,0,1.601,button_right,1.601,1,0,2,2,2,1,1001,ALMOND,m,,,,,,,,,,,,,,,,,,,,,,,,,,,,,,,,,,,,,,,,,,,,,,,,,,,,,,,,,,,,,,,
,,,,,,,,,,,,,,,,,607fb8465341fd553409b92b,41,2022-02-12_12h35.23.529,lexical_decision_task_DD,2021.2.3,iPhone,30.3030303,,0,0.356122449,-0.271938776,1,0,0,1.233,button_right,1.233,1,0,3,3,5,1,1001,OBTAIN,m,,,,,,,,,,,,,,,,,,,,,,,,,,,,,,,,,,,,,,,,,,,,,,,,,,,,,,,,,,,,,,,
,,,,,,,,,,,,,,,,,607fb8465341fd553409b92b,41,2022-02-12_12h35.23.529,lexical_decision_task_DD,2021.2.3,iPhone,30.3030303,,0,-0.328571429,-0.289285714,1,0,0,1.566,button_left,1.566,1,0,4,4,11,1,1001,RASHET,z,,,,,,,,,,,,,,,,,,,,,,,,,,,,,,,,,,,,,,,,,,,,,,,,,,,,,,,,,,,,,,,
,,,,,,,,,,,,,,,,,607fb8465341fd553409b92b,41,2022-02-12_12h35.23.529,lexical_decision_task_DD,2021.2.3,iPhone,30.3030303,,0,0.406122449,-0.308673469,1,0,0,1.802,button_right,1.802,1,0,5,5,0,1,1001,UTOPIA,m,,,,,,,,,,,,,,,,,,,,,,,,,,,,,,,,,,,,,,,,,,,,,,,,,,,,,,,,,,,,,,,
,,,,,,,,,,,,,,,,,607fb8465341fd553409b92b,41,2022-02-12_12h35.23.529,lexical_decision_task_DD,2021.2.3,iPhone,30.3030303,,0,0.392857143,-0.265816327,1,0,0,1.178,button_right,1.178,1,0,6,6,3,1,1001,MATRIX,m,,,,,,,,,,,,,,,,,,,,,,,,,,,,,,,,,,,,,,,,,,,,,,,,,,,,,,,,,,,,,,,
,,,,,,,,,,,,,,,,,607fb8465341fd553409b92b,41,2022-02-12_12h35.23.529,lexical_decision_task_DD,2021.2.3,iPhone,30.3030303,,0,-0.279591837,-0.331122449,1,0,0,1.165,button_left,1.165,1,0,7,7,14,1,1001,THRALE,z,,,,,,,,,,,,,,,,,,,,,,,,,,,,,,,,,,,,,,,,,,,,,,,,,,,,,,,,,,,,,,,
,,,,,,,,,,,,,,,,,607fb8465341fd553409b92b,41,2022-02-12_12h35.23.529,lexical_decision_task_DD,2021.2.3,iPhone,30.3030303,,0,-0.289795918,-0.329081633,1,0,0,1.48,button_left,1.48,1,0,8,8,8,1,1001,ASLERT,z,,,,,,,,,,,,,,,,,,,,,,,,,,,,,,,,,,,,,,,,,,,,,,,,,,,,,,,,,,,,,,,
,,,,,,,,,,,,,,,,,607fb8465341fd553409b92b,41,2022-02-12_12h35.23.529,lexical_decision_task_DD,2021.2.3,iPhone,30.3030303,,0,0.405102041,-0.296428571,1,0,0,1.111,button_right,1.111,1,0,9,9,6,1,1001,ZOMBIE,m,,,,,,,,,,,,,,,,,,,,,,,,,,,,,,,,,,,,,,,,,,,,,,,,,,,,,,,,,,,,,,,
,,,,,,,,,,,,,,,,,607fb8465341fd553409b92b,41,2022-02-12_12h35.23.529,lexical_decision_task_DD,2021.2.3,iPhone,30.3030303,,0,-0.31122449,-0.331122449,1,0,0,1.233,button_left,1.233,1,0,10,10,9,1,1001,FARINY,z,,,,,,,,,,,,,,,,,,,,,,,,,,,,,,,,,,,,,,,,,,,,,,,,,,,,,,,,,,,,,,,
,,,,,,,,,,,,,,,,,607fb8465341fd553409b92b,41,2022-02-12_12h35.23.529,lexical_decision_task_DD,2021.2.3,iPhone,30.3030303,,0,-0.284693878,-0.301530612,1,0,0,1.177,button_left,1.177,1,0,11,11,12,1,1001,SPRINY,z,,,,,,,,,,,,,,,,,,,,,,,,,,,,,,,,,,,,,,,,,,,,,,,,,,,,,,,,,,,,,,,
,,,,,,,,,,,,,,,,,607fb8465341fd553409b92b,41,2022-02-12_12h35.23.529,lexical_decision_task_DD,2021.2.3,iPhone,30.3030303,,0,-0.293877551,-0.311734694,1,0,0,1.077,button_left,1.077,1,0,12,12,13,1,1001,ROUPET,z,,,,,,,,,,,,,,,,,,,,,,,,,,,,,,,,,,,,,,,,,,,,,,,,,,,,,,,,,,,,,,,
,,,,,,,,,,,,,,,,,607fb8465341fd553409b92b,41,2022-02-12_12h35.23.529,lexical_decision_task_DD,2021.2.3,iPhone,30.3030303,,0,-0.301020408,-0.305612245,1,0,0,1.065,button_left,1.065,1,0,13,13,15,1,1001,WHAISE,z,,,,,,,,,,,,,,,,,,,,,,,,,,,,,,,,,,,,,,,,,,,,,,,,,,,,,,,,,,,,,,,
,,,,,,,,,,,,,,,,,607fb8465341fd553409b92b,41,2022-02-12_12h35.23.529,lexical_decision_task_DD,2021.2.3,iPhone,30.3030303,,0,0.409183673,-0.29744898,1,0,0,1.011,button_right,1.011,1,0,14,14,7,1,1001,VOLUME,m,,,,,,,,,,,,,,,,,,,,,,,,,,,,,,,,,,,,,,,,,,,,,,,,,,,,,,,,,,,,,,,
,,,,,,,,,,,,,,,,,607fb8465341fd553409b92b,41,2022-02-12_12h35.23.529,lexical_decision_task_DD,2021.2.3,iPhone,30.3030303,,0,0.390816327,-0.294387755,1,0,0,1.381,button_right,1.381,1,0,15,15,4,1,1001,SQUEAK,m,,,,,,,,,,,,,,,,,,,,,,,,,,,,,,,,,,,,,,,,,,,,,,,,,,,,,,,,,,,,,,,
,0.063265306,-0.430102041,1,0,0,instr_done_button,,,,,,1,end_of_practice,"You have completed the practice trials. During the experimental trials, you will not receive feedback. 
Before you begin, please ensure that you are in a comfortable and quiet location and will not be disturbed for about 15 minutes, as we cannot use your data if you do not complete all the trials. 
 When you are ready to start the experimental trials, please press space or touch the button below.",,,607fb8465341fd553409b92b,41,2022-02-12_12h35.23.529,lexical_decision_task_DD,2021.2.3,iPhone,30.3030303,,,,,,,,,,,,,,,,,,,,0,0,0,0,1,,,,,,,,,,,,,,,,,,,,,,,,,,,,,,,,,,,,,,,,,,,,,,,,,,,,,,,,,,
,,,,,,,,,,,,,,,,,607fb8465341fd553409b92b,41,2022-02-12_12h35.23.529,lexical_decision_task_DD,2021.2.3,iPhone,30.3030303,,,,,,,,,,1.406,1,,,,,,,,,,,,,,,0,-0.279591837,-0.296428571,1,0,0,1.406,button_left_main,-0.279591837,-0.296428571,1,0,0,,0,0,0,160,1,VEETS,HB,old,z,./images/VEETSHB.png,,,,,,,,,,,,,,,,,,,,,,,,,,,,,,,,,
,,,,,,,,,,,,,,,,,607fb8465341fd553409b92b,41,2022-02-12_12h35.23.529,lexical_decision_task_DD,2021.2.3,iPhone,30.3030303,,,,,,,,,,1.066,1,,,,,,,,,,,,,,,0,-0.307142857,-0.299489796,1,0,0,1.066,button_left_main,-0.307142857,-0.299489796,1,0,0,,0,1,1,153,1,CLUPS,C,old,z,./images/CLUPS.png,,,,,,,,,,,,,,,,,,,,,,,,,,,,,,,,,
,,,,,,,,,,,,,,,,,607fb8465341fd553409b92b,41,2022-02-12_12h35.23.529,lexical_decision_task_DD,2021.2.3,iPhone,30.3030303,,,,,,,,,,1.112,1,,,,,,,,,,,,,,,0,0.412244898,-0.276020408,1,0,0,1.112,button_right_main,0.412244898,-0.276020408,1,0,0,,0,2,2,33,1,MAGGOT,C,old,m,./images/MAGGOT.png,,,,,,,,,,,,,,,,,,,,,,,,,,,,,,,,,
,,,,,,,,,,,,,,,,,607fb8465341fd553409b92b,41,2022-02-12_12h35.23.529,lexical_decision_task_DD,2021.2.3,iPhone,30.3030303,,,,,,,,,,2.447,1,,,,,,,,,,,,,,,0,0.373469388,-0.295408163,1,0,0,2.447,button_right_main,0.373469388,-0.295408163,1,0,0,,0,3,3,37,1,BIRTH,HB,old,m,./images/BIRTHHB.png,,,,,,,,,,,,,,,,,,,,,,,,,,,,,,,,,
,,,,,,,,,,,,,,,,,607fb8465341fd553409b92b,41,2022-02-12_12h35.23.529,lexical_decision_task_DD,2021.2.3,iPhone,30.3030303,,,,,,,,,,1.867,1,,,,,,,,,,,,,,,0,-0.310204082,-0.328061224,1,0,0,1.867,button_left_main,-0.310204082,-0.328061224,1,0,0,,0,4,4,136,1,WERVE,HB,old,z,./images/WERVEHB.png,,,,,,,,,,,,,,,,,,,,,,,,,,,,,,,,,
,,,,,,,,,,,,,,,,,607fb8465341fd553409b92b,41,2022-02-12_12h35.23.529,lexical_decision_task_DD,2021.2.3,iPhone,30.3030303,,,,,,,,,,1.312,1,,,,,,,,,,,,,,,0,-0.294897959,-0.332142857,1,0,0,1.312,button_left_main,-0.294897959,-0.332142857,1,0,0,,0,5,5,122,1,BLOOT,LB,old,z,./images/BLOOTLB.png,,,,,,,,,,,,,,,,,,,,,,,,,,,,,,,,,
,,,,,,,,,,,,,,,,,607fb8465341fd553409b92b,41,2022-02-12_12h35.23.529,lexical_decision_task_DD,2021.2.3,iPhone,30.3030303,,,,,,,,,,1.168,1,,,,,,,,,,,,,,,0,-0.294897959,-0.307653061,1,0,0,1.168,button_left_main,-0.294897959,-0.307653061,1,0,0,,0,6,6,151,1,TINKY,HB,old,z,./images/TINKYHB.png,,,,,,,,,,,,,,,,,,,,,,,,,,,,,,,,,
,,,,,,,,,,,,,,,,,607fb8465341fd553409b92b,41,2022-02-12_12h35.23.529,lexical_decision_task_DD,2021.2.3,iPhone,30.3030303,,,,,,,,,,1.099,1,,,,,,,,,,,,,,,0,-0.337755102,-0.333163265,1,0,0,1.099,button_left_main,-0.337755102,-0.333163265,1,0,0,,0,7,7,117,1,STEEG,C,old,z,./images/STEEG.png,,,,,,,,,,,,,,,,,,,,,,,,,,,,,,,,,
,,,,,,,,,,,,,,,,,607fb8465341fd553409b92b,41,2022-02-12_12h35.23.529,lexical_decision_task_DD,2021.2.3,iPhone,30.3030303,,,,,,,,,,1,1,,,,,,,,,,,,,,,0,0.385714286,-0.298469388,1,0,0,1,button_right_main,0.385714286,-0.298469388,1,0,0,,0,8,8,53,1,CARPET,LB,old,m,./images/CARPETLB.png,,,,,,,,,,,,,,,,,,,,,,,,,,,,,,,,,
,,,,,,,,,,,,,,,,,607fb8465341fd553409b92b,41,2022-02-12_12h35.23.529,lexical_decision_task_DD,2021.2.3,iPhone,30.3030303,,,,,,,,,,1.233,1,,,,,,,,,,,,,,,0,-0.292857143,-0.317857143,1,0,0,1.233,button_left_main,-0.292857143,-0.317857143,1,0,0,,0,9,9,133,1,POWDY,HB,old,z,./images/POWDYHB.png,,,,,,,,,,,,,,,,,,,,,,,,,,,,,,,,,
,,,,,,,,,,,,,,,,,607fb8465341fd553409b92b,41,2022-02-12_12h35.23.529,lexical_decision_task_DD,2021.2.3,iPhone,30.3030303,,,,,,,,,,0.977,1,,,,,,,,,,,,,,,0,-0.307142857,-0.328061224,1,0,0,0.977,button_left_main,-0.307142857,-0.328061224,1,0,0,,0,10,10,101,1,GLEET,LB,old,z,./images/GLEETLB.png,,,,,,,,,,,,,,,,,,,,,,,,,,,,,,,,,
,,,,,,,,,,,,,,,,,607fb8465341fd553409b92b,41,2022-02-12_12h35.23.529,lexical_decision_task_DD,2021.2.3,iPhone,30.3030303,,,,,,,,,,1.267,1,,,,,,,,,,,,,,,0,-0.318367347,-0.333163265,1,0,0,1.267,button_left_main,-0.318367347,-0.333163265,1,0,0,,0,11,11,94,1,BLANS,HB,old,z,./images/BLANSHB.png,,,,,,,,,,,,,,,,,,,,,,,,,,,,,,,,,
,,,,,,,,,,,,,,,,,607fb8465341fd553409b92b,41,2022-02-12_12h35.23.529,lexical_decision_task_DD,2021.2.3,iPhone,30.3030303,,,,,,,,,,2.404,0,,,,,,,,,,,,,,,0,0.426530612,-0.290306122,1,0,0,2.404,button_right_main,0.426530612,-0.290306122,1,0,0,,0,12,12,128,1,GRIFT,LB,old,z,./images/GRIFTLB.png,,,,,,,,,,,,,,,,,,,,,,,,,,,,,,,,,
,,,,,,,,,,,,,,,,,607fb8465341fd553409b92b,41,2022-02-12_12h35.23.529,lexical_decision_task_DD,2021.2.3,iPhone,30.3030303,,,,,,,,,,1.435,1,,,,,,,,,,,,,,,0,0.424489796,-0.292346939,1,0,0,1.435,button_right_main,0.424489796,-0.292346939,1,0,0,,0,13,13,40,1,SWING,HB,old,m,./images/SWINGHB.png,,,,,,,,,,,,,,,,,,,,,,,,,,,,,,,,,
,,,,,,,,,,,,,,,,,607fb8465341fd553409b92b,41,2022-02-12_12h35.23.529,lexical_decision_task_DD,2021.2.3,iPhone,30.3030303,,,,,,,,,,1.067,1,,,,,,,,,,,,,,,0,0.408163265,-0.296428571,1,0,0,1.067,button_right_main,0.408163265,-0.296428571,1,0,0,,0,14,14,77,1,COUCH,LB,old,m,./images/COUCHLB.png,,,,,,,,,,,,,,,,,,,,,,,,,,,,,,,,,
,,,,,,,,,,,,,,,,,607fb8465341fd553409b92b,41,2022-02-12_12h35.23.529,lexical_decision_task_DD,2021.2.3,iPhone,30.3030303,,,,,,,,,,1.047,1,,,,,,,,,,,,,,,0,-0.307142857,-0.322959184,1,0,0,1.047,button_left_main,-0.307142857,-0.322959184,1,0,0,,0,15,15,102,1,DULLE,C,old,z,./images/DULLE.png,,,,,,,,,,,,,,,,,,,,,,,,,,,,,,,,,
,,,,,,,,,,,,,,,,,607fb8465341fd553409b92b,41,2022-02-12_12h35.23.529,lexical_decision_task_DD,2021.2.3,iPhone,30.3030303,,,,,,,,,,1.601,1,,,,,,,,,,,,,,,0,0.430612245,-0.273979592,1,0,0,1.601,button_right_main,0.430612245,-0.273979592,1,0,0,,0,16,16,70,1,URINE,HB,old,m,./images/URINEHB.png,,,,,,,,,,,,,,,,,,,,,,,,,,,,,,,,,
,,,,,,,,,,,,,,,,,607fb8465341fd553409b92b,41,2022-02-12_12h35.23.529,lexical_decision_task_DD,2021.2.3,iPhone,30.3030303,,,,,,,,,,1.279,1,,,,,,,,,,,,,,,0,-0.313265306,-0.345408163,1,0,0,1.279,button_left_main,-0.313265306,-0.345408163,1,0,0,,0,17,17,148,1,JOMS,HB,old,z,./images/JOMSHB.png,,,,,,,,,,,,,,,,,,,,,,,,,,,,,,,,,
,,,,,,,,,,,,,,,,,607fb8465341fd553409b92b,41,2022-02-12_12h35.23.529,lexical_decision_task_DD,2021.2.3,iPhone,30.3030303,,,,,,,,,,1.568,0,,,,,,,,,,,,,,,0,-0.3,-0.304591837,1,0,0,1.568,button_left_main,-0.3,-0.304591837,1,0,0,,0,18,18,31,1,QUILL,HB,old,m,./images/QUILLHB.png,,,,,,,,,,,,,,,,,,,,,,,,,,,,,,,,,
,,,,,,,,,,,,,,,,,607fb8465341fd553409b92b,41,2022-02-12_12h35.23.529,lexical_decision_task_DD,2021.2.3,iPhone,30.3030303,,,,,,,,,,3.909,1,,,,,,,,,,,,,,,0,0.433673469,-0.294387755,1,0,0,3.909,button_right_main,0.433673469,-0.294387755,1,0,0,,0,19,19,43,1,MOSQUE,HB,old,m,./images/MOSQUEHB.png,,,,,,,,,,,,,,,,,,,,,,,,,,,,,,,,,
,,,,,,,,,,,,,,,,,607fb8465341fd553409b92b,41,2022-02-12_12h35.23.529,lexical_decision_task_DD,2021.2.3,iPhone,30.3030303,,,,,,,,,,1.38,1,,,,,,,,,,,,,,,0,0.367346939,-0.25255102,1,0,0,1.38,button_right_main,0.367346939,-0.25255102,1,0,0,,0,20,20,54,1,TRIPOD,C,old,m,./images/TRIPOD.png,,,,,,,,,,,,,,,,,,,,,,,,,,,,,,,,,
,,,,,,,,,,,,,,,,,607fb8465341fd553409b92b,41,2022-02-12_12h35.23.529,lexical_decision_task_DD,2021.2.3,iPhone,30.3030303,,,,,,,,,,0.946,1,,,,,,,,,,,,,,,0,0.424489796,-0.295408163,1,0,0,0.946,button_right_main,0.424489796,-0.295408163,1,0,0,,0,21,21,51,1,ONION,C,old,m,./images/ONION.png,,,,,,,,,,,,,,,,,,,,,,,,,,,,,,,,,
,,,,,,,,,,,,,,,,,607fb8465341fd553409b92b,41,2022-02-12_12h35.23.529,lexical_decision_task_DD,2021.2.3,iPhone,30.3030303,,,,,,,,,,1.167,1,,,,,,,,,,,,,,,0,0.431632653,-0.279081633,1,0,0,1.167,button_right_main,0.431632653,-0.279081633,1,0,0,,0,22,22,74,1,CEMENT,LB,old,m,./images/CEMENTLB.png,,,,,,,,,,,,,,,,,,,,,,,,,,,,,,,,,
,,,,,,,,,,,,,,,,,607fb8465341fd553409b92b,41,2022-02-12_12h35.23.529,lexical_decision_task_DD,2021.2.3,iPhone,30.3030303,,,,,,,,,,0.915,1,,,,,,,,,,,,,,,0,-0.304081633,-0.344387755,1,0,0,0.915,button_left_main,-0.304081633,-0.344387755,1,0,0,,0,23,23,147,1,ZOLES,C,old,z,./images/ZOLES.png,,,,,,,,,,,,,,,,,,,,,,,,,,,,,,,,,
,,,,,,,,,,,,,,,,,607fb8465341fd553409b92b,41,2022-02-12_12h35.23.529,lexical_decision_task_DD,2021.2.3,iPhone,30.3030303,,,,,,,,,,0.948,1,,,,,,,,,,,,,,,0,0.395918367,-0.301530612,1,0,0,0.948,button_right_main,0.395918367,-0.301530612,1,0,0,,0,24,24,21,1,KIDNEY,C,old,m,./images/KIDNEY.png,,,,,,,,,,,,,,,,,,,,,,,,,,,,,,,,,
,,,,,,,,,,,,,,,,,607fb8465341fd553409b92b,41,2022-02-12_12h35.23.529,lexical_decision_task_DD,2021.2.3,iPhone,30.3030303,,,,,,,,,,0.981,1,,,,,,,,,,,,,,,0,-0.310204082,-0.311734694,1,0,0,0.981,button_left_main,-0.310204082,-0.311734694,1,0,0,,0,25,25,134,1,TROSS,LB,old,z,./images/TROSSLB.png,,,,,,,,,,,,,,,,,,,,,,,,,,,,,,,,,
,,,,,,,,,,,,,,,,,607fb8465341fd553409b92b,41,2022-02-12_12h35.23.529,lexical_decision_task_DD,2021.2.3,iPhone,30.3030303,,,,,,,,,,1.148,1,,,,,,,,,,,,,,,0,0.369387755,-0.298469388,1,0,0,1.148,button_right_main,0.369387755,-0.298469388,1,0,0,,0,26,26,10,1,BELLY,HB,old,m,./images/BELLYHB.png,,,,,,,,,,,,,,,,,,,,,,,,,,,,,,,,,
,,,,,,,,,,,,,,,,,607fb8465341fd553409b92b,41,2022-02-12_12h35.23.529,lexical_decision_task_DD,2021.2.3,iPhone,30.3030303,,,,,,,,,,1.368,1,,,,,,,,,,,,,,,0,-0.337755102,-0.314795918,1,0,0,1.368,button_left_main,-0.337755102,-0.314795918,1,0,0,,0,27,27,144,1,NAIRY,C,old,z,./images/NAIRY.png,,,,,,,,,,,,,,,,,,,,,,,,,,,,,,,,,
,,,,,,,,,,,,,,,,,607fb8465341fd553409b92b,41,2022-02-12_12h35.23.529,lexical_decision_task_DD,2021.2.3,iPhone,30.3030303,,,,,,,,,,2.484,1,,,,,,,,,,,,,,,0,0.330612245,-0.301530612,1,0,0,2.484,button_right_main,0.330612245,-0.301530612,1,0,0,,0,28,28,11,1,BONNET,LB,old,m,./images/BONNETLB.png,,,,,,,,,,,,,,,,,,,,,,,,,,,,,,,,,
,,,,,,,,,,,,,,,,,607fb8465341fd553409b92b,41,2022-02-12_12h35.23.529,lexical_decision_task_DD,2021.2.3,iPhone,30.3030303,,,,,,,,,,1.635,0,,,,,,,,,,,,,,,0,-0.401020408,-0.288265306,1,0,0,1.635,button_left_main,-0.401020408,-0.288265306,1,0,0,,0,29,29,69,1,COOKER,C,old,m,./images/COOKER.png,,,,,,,,,,,,,,,,,,,,,,,,,,,,,,,,,
,,,,,,,,,,,,,,,,,607fb8465341fd553409b92b,41,2022-02-12_12h35.23.529,lexical_decision_task_DD,2021.2.3,iPhone,30.3030303,,,,,,,,,,0.866,1,,,,,,,,,,,,,,,0,-0.384693878,-0.288265306,1,0,0,0.866,button_left_main,-0.384693878,-0.288265306,1,0,0,,0,30,30,90,1,NEAST,C,old,z,./images/NEAST.png,,,,,,,,,,,,,,,,,,,,,,,,,,,,,,,,,
,,,,,,,,,,,,,,,,,607fb8465341fd553409b92b,41,2022-02-12_12h35.23.529,lexical_decision_task_DD,2021.2.3,iPhone,30.3030303,,,,,,,,,,0.913,1,,,,,,,,,,,,,,,0,0.457142857,-0.282142857,1,0,0,0.913,button_right_main,0.457142857,-0.282142857,1,0,0,,0,31,31,29,1,CRUMB,LB,old,m,./images/CRUMBLB.png,,,,,,,,,,,,,,,,,,,,,,,,,,,,,,,,,
,,,,,,,,,,,,,,,,,607fb8465341fd553409b92b,41,2022-02-12_12h35.23.529,lexical_decision_task_DD,2021.2.3,iPhone,30.3030303,,,,,,,,,,1.67,1,,,,,,,,,,,,,,,0,-0.38877551,-0.311734694,1,0,0,1.67,button_left_main,-0.38877551,-0.311734694,1,0,0,,0,32,32,162,1,LEICH,C,old,z,./images/LEICH.png,,,,,,,,,,,,,,,,,,,,,,,,,,,,,,,,,
,,,,,,,,,,,,,,,,,607fb8465341fd553409b92b,41,2022-02-12_12h35.23.529,lexical_decision_task_DD,2021.2.3,iPhone,30.3030303,,,,,,,,,,0.967,1,,,,,,,,,,,,,,,0,0.403061224,-0.292346939,1,0,0,0.967,button_right_main,0.403061224,-0.292346939,1,0,0,,0,33,33,34,1,CANYON,HB,old,m,./images/CANYONHB.png,,,,,,,,,,,,,,,,,,,,,,,,,,,,,,,,,
,,,,,,,,,,,,,,,,,607fb8465341fd553409b92b,41,2022-02-12_12h35.23.529,lexical_decision_task_DD,2021.2.3,iPhone,30.3030303,,,,,,,,,,1.112,1,,,,,,,,,,,,,,,0,0.432653061,-0.291326531,1,0,0,1.112,button_right_main,0.432653061,-0.291326531,1,0,0,,0,34,34,1,1,PLANK,HB,old,m,./images/PLANKHB.png,,,,,,,,,,,,,,,,,,,,,,,,,,,,,,,,,
,,,,,,,,,,,,,,,,,607fb8465341fd553409b92b,41,2022-02-12_12h35.23.529,lexical_decision_task_DD,2021.2.3,iPhone,30.3030303,,,,,,,,,,1.303,1,,,,,,,,,,,,,,,0,0.383673469,-0.290306122,1,0,0,1.303,button_right_main,0.383673469,-0.290306122,1,0,0,,0,35,35,61,1,CANDLE,HB,old,m,./images/CANDLEHB.png,,,,,,,,,,,,,,,,,,,,,,,,,,,,,,,,,
,,,,,,,,,,,,,,,,,607fb8465341fd553409b92b,41,2022-02-12_12h35.23.529,lexical_decision_task_DD,2021.2.3,iPhone,30.3030303,,,,,,,,,,1.001,1,,,,,,,,,,,,,,,0,-0.406122449,-0.273979592,1,0,0,1.001,button_left_main,-0.406122449,-0.273979592,1,0,0,,0,36,36,152,1,FRAIN,LB,old,z,./images/FRAINLB.png,,,,,,,,,,,,,,,,,,,,,,,,,,,,,,,,,
,,,,,,,,,,,,,,,,,607fb8465341fd553409b92b,41,2022-02-12_12h35.23.529,lexical_decision_task_DD,2021.2.3,iPhone,30.3030303,,,,,,,,,,0.767,1,,,,,,,,,,,,,,,0,0.389795918,-0.293367347,1,0,0,0.767,button_right_main,0.389795918,-0.293367347,1,0,0,,0,37,37,41,1,STRING,LB,old,m,./images/STRINGLB.png,,,,,,,,,,,,,,,,,,,,,,,,,,,,,,,,,
,,,,,,,,,,,,,,,,,607fb8465341fd553409b92b,41,2022-02-12_12h35.23.529,lexical_decision_task_DD,2021.2.3,iPhone,30.3030303,,,,,,,,,,2.504,1,,,,,,,,,,,,,,,0,-0.374489796,-0.282142857,1,0,0,2.504,button_left_main,-0.374489796,-0.282142857,1,0,0,,0,38,38,166,1,SHORY,HB,old,z,./images/SHORYHB.png,,,,,,,,,,,,,,,,,,,,,,,,,,,,,,,,,
,,,,,,,,,,,,,,,,,607fb8465341fd553409b92b,41,2022-02-12_12h35.23.529,lexical_decision_task_DD,2021.2.3,iPhone,30.3030303,,,,,,,,,,1.348,1,,,,,,,,,,,,,,,0,-0.31122449,-0.294387755,1,0,0,1.348,button_left_main,-0.31122449,-0.294387755,1,0,0,,0,39,39,142,1,PLASK,HB,old,z,./images/PLASKHB.png,,,,,,,,,,,,,,,,,,,,,,,,,,,,,,,,,
,,,,,,,,,,,,,,,,,607fb8465341fd553409b92b,41,2022-02-12_12h35.23.529,lexical_decision_task_DD,2021.2.3,iPhone,30.3030303,,,,,,,,,,1.779,1,,,,,,,,,,,,,,,0,-0.284693878,-0.284183673,1,0,0,1.779,button_left_main,-0.284693878,-0.284183673,1,0,0,,0,40,40,91,1,SHENS,HB,old,z,./images/SHENSHB.png,,,,,,,,,,,,,,,,,,,,,,,,,,,,,,,,,
,,,,,,,,,,,,,,,,,607fb8465341fd553409b92b,41,2022-02-12_12h35.23.529,lexical_decision_task_DD,2021.2.3,iPhone,30.3030303,,,,,,,,,,1.234,1,,,,,,,,,,,,,,,0,0.406122449,-0.310714286,1,0,0,1.234,button_right_main,0.06122449,-0.403571429,1,0,0,,0,41,41,80,1,WEASEL,LB,old,m,./images/WEASELLB.png,break_done_button,,,,,,,,,,,,,,,,,,,,,,,,,,,,,,,,
,,,,,,,,,,,,,,,,,607fb8465341fd553409b92b,41,2022-02-12_12h35.23.529,lexical_decision_task_DD,2021.2.3,iPhone,30.3030303,,,,,,,,,,1.313,1,,,,,,,,,,,,,,,0,0.412244898,-0.28622449,1,0,0,1.313,button_right_main,0.412244898,-0.28622449,1,0,0,,0,42,42,76,1,INFANT,HB,old,m,./images/INFANTHB.png,,,,,,,,,,,,,,,,,,,,,,,,,,,,,,,,,
,,,,,,,,,,,,,,,,,607fb8465341fd553409b92b,41,2022-02-12_12h35.23.529,lexical_decision_task_DD,2021.2.3,iPhone,30.3030303,,,,,,,,,,1.146,1,,,,,,,,,,,,,,,0,0.442857143,-0.288265306,1,0,0,1.146,button_right_main,0.442857143,-0.288265306,1,0,0,,0,43,43,7,1,PAINT,HB,old,m,./images/PAINTHB.png,,,,,,,,,,,,,,,,,,,,,,,,,,,,,,,,,
,,,,,,,,,,,,,,,,,607fb8465341fd553409b92b,41,2022-02-12_12h35.23.529,lexical_decision_task_DD,2021.2.3,iPhone,30.3030303,,,,,,,,,,1.18,1,,,,,,,,,,,,,,,0,-0.295918367,-0.305612245,1,0,0,1.18,button_left_main,-0.295918367,-0.305612245,1,0,0,,0,44,44,130,1,CRILL,HB,old,z,./images/CRILLHB.png,,,,,,,,,,,,,,,,,,,,,,,,,,,,,,,,,
,,,,,,,,,,,,,,,,,607fb8465341fd553409b92b,41,2022-02-12_12h35.23.529,lexical_decision_task_DD,2021.2.3,iPhone,30.3030303,,,,,,,,,,1.015,1,,,,,,,,,,,,,,,0,-0.383673469,-0.264795918,1,0,0,1.015,button_left_main,-0.383673469,-0.264795918,1,0,0,,0,45,45,164,1,SGREW,LB,old,z,./images/SGREWLB.png,,,,,,,,,,,,,,,,,,,,,,,,,,,,,,,,,
,,,,,,,,,,,,,,,,,607fb8465341fd553409b92b,41,2022-02-12_12h35.23.529,lexical_decision_task_DD,2021.2.3,iPhone,30.3030303,,,,,,,,,,1.132,1,,,,,,,,,,,,,,,0,0.373469388,-0.282142857,1,0,0,1.132,button_right_main,0.373469388,-0.282142857,1,0,0,,0,46,46,19,1,DOUGH,HB,old,m,./images/DOUGHHB.png,,,,,,,,,,,,,,,,,,,,,,,,,,,,,,,,,
,,,,,,,,,,,,,,,,,607fb8465341fd553409b92b,41,2022-02-12_12h35.23.529,lexical_decision_task_DD,2021.2.3,iPhone,30.3030303,,,,,,,,,,1.113,1,,,,,,,,,,,,,,,0,0.412244898,-0.280102041,1,0,0,1.113,button_right_main,0.412244898,-0.280102041,1,0,0,,0,47,47,18,1,JAGUAR,C,old,m,./images/JAGUAR.png,,,,,,,,,,,,,,,,,,,,,,,,,,,,,,,,,
,,,,,,,,,,,,,,,,,607fb8465341fd553409b92b,41,2022-02-12_12h35.23.529,lexical_decision_task_DD,2021.2.3,iPhone,30.3030303,,,,,,,,,,1.014,1,,,,,,,,,,,,,,,0,-0.358163265,-0.283163265,1,0,0,1.014,button_left_main,-0.358163265,-0.283163265,1,0,0,,0,48,48,150,1,NOOLS,C,old,z,./images/NOOLS.png,,,,,,,,,,,,,,,,,,,,,,,,,,,,,,,,,
,,,,,,,,,,,,,,,,,607fb8465341fd553409b92b,41,2022-02-12_12h35.23.529,lexical_decision_task_DD,2021.2.3,iPhone,30.3030303,,,,,,,,,,1.067,1,,,,,,,,,,,,,,,0,-0.367346939,-0.292346939,1,0,0,1.067,button_left_main,-0.367346939,-0.292346939,1,0,0,,0,49,49,143,1,MONGS,LB,old,z,./images/MONGSLB.png,,,,,,,,,,,,,,,,,,,,,,,,,,,,,,,,,
,,,,,,,,,,,,,,,,,607fb8465341fd553409b92b,41,2022-02-12_12h35.23.529,lexical_decision_task_DD,2021.2.3,iPhone,30.3030303,,,,,,,,,,1.101,1,,,,,,,,,,,,,,,0,0.395918367,-0.275,1,0,0,1.101,button_right_main,0.395918367,-0.275,1,0,0,,0,50,50,0,1,TOMATO,C,old,m,./images/TOMATO.png,,,,,,,,,,,,,,,,,,,,,,,,,,,,,,,,,
,,,,,,,,,,,,,,,,,607fb8465341fd553409b92b,41,2022-02-12_12h35.23.529,lexical_decision_task_DD,2021.2.3,iPhone,30.3030303,,,,,,,,,,0.999,1,,,,,,,,,,,,,,,0,0.430612245,-0.275,1,0,0,0.999,button_right_main,0.430612245,-0.275,1,0,0,,0,51,51,64,1,JELLY,HB,old,m,./images/JELLYHB.png,,,,,,,,,,,,,,,,,,,,,,,,,,,,,,,,,
,,,,,,,,,,,,,,,,,607fb8465341fd553409b92b,41,2022-02-12_12h35.23.529,lexical_decision_task_DD,2021.2.3,iPhone,30.3030303,,,,,,,,,,1.169,1,,,,,,,,,,,,,,,0,0.468367347,-0.277040816,1,0,0,1.169,button_right_main,0.468367347,-0.277040816,1,0,0,,0,52,52,58,1,BABOON,HB,old,m,./images/BABOONHB.png,,,,,,,,,,,,,,,,,,,,,,,,,,,,,,,,,
,,,,,,,,,,,,,,,,,607fb8465341fd553409b92b,41,2022-02-12_12h35.23.529,lexical_decision_task_DD,2021.2.3,iPhone,30.3030303,,,,,,,,,,0.899,0,,,,,,,,,,,,,,,0,-0.42244898,-0.275,1,0,0,0.899,button_left_main,-0.42244898,-0.275,1,0,0,,0,53,53,67,1,SAILOR,HB,old,m,./images/SAILORHB.png,,,,,,,,,,,,,,,,,,,,,,,,,,,,,,,,,
,,,,,,,,,,,,,,,,,607fb8465341fd553409b92b,41,2022-02-12_12h35.23.529,lexical_decision_task_DD,2021.2.3,iPhone,30.3030303,,,,,,,,,,1.38,1,,,,,,,,,,,,,,,0,-0.423469388,-0.293367347,1,0,0,1.38,button_left_main,-0.423469388,-0.293367347,1,0,0,,0,54,54,161,1,BLAPS,LB,old,z,./images/BLAPSLB.png,,,,,,,,,,,,,,,,,,,,,,,,,,,,,,,,,
,,,,,,,,,,,,,,,,,607fb8465341fd553409b92b,41,2022-02-12_12h35.23.529,lexical_decision_task_DD,2021.2.3,iPhone,30.3030303,,,,,,,,,,0.899,1,,,,,,,,,,,,,,,0,-0.356122449,-0.244387755,1,0,0,0.899,button_left_main,-0.356122449,-0.244387755,1,0,0,,0,55,55,95,1,HANTY,LB,old,z,./images/HANTYLB.png,,,,,,,,,,,,,,,,,,,,,,,,,,,,,,,,,
,,,,,,,,,,,,,,,,,607fb8465341fd553409b92b,41,2022-02-12_12h35.23.529,lexical_decision_task_DD,2021.2.3,iPhone,30.3030303,,,,,,,,,,0.834,1,,,,,,,,,,,,,,,0,-0.418367347,-0.296428571,1,0,0,0.834,button_left_main,-0.418367347,-0.296428571,1,0,0,,0,56,56,104,1,GITTY,LB,old,z,./images/GITTYLB.png,,,,,,,,,,,,,,,,,,,,,,,,,,,,,,,,,
,,,,,,,,,,,,,,,,,607fb8465341fd553409b92b,41,2022-02-12_12h35.23.529,lexical_decision_task_DD,2021.2.3,iPhone,30.3030303,,,,,,,,,,0.836,1,,,,,,,,,,,,,,,0,0.431632653,-0.287244898,1,0,0,0.836,button_right_main,0.431632653,-0.287244898,1,0,0,,0,57,57,78,1,LITTER,C,old,m,./images/LITTER.png,,,,,,,,,,,,,,,,,,,,,,,,,,,,,,,,,
,,,,,,,,,,,,,,,,,607fb8465341fd553409b92b,41,2022-02-12_12h35.23.529,lexical_decision_task_DD,2021.2.3,iPhone,30.3030303,,,,,,,,,,1.033,1,,,,,,,,,,,,,,,0,-0.430612245,-0.283163265,1,0,0,1.033,button_left_main,-0.430612245,-0.283163265,1,0,0,,0,58,58,99,1,BACKY,C,old,z,./images/BACKY.png,,,,,,,,,,,,,,,,,,,,,,,,,,,,,,,,,
,,,,,,,,,,,,,,,,,607fb8465341fd553409b92b,41,2022-02-12_12h35.23.529,lexical_decision_task_DD,2021.2.3,iPhone,30.3030303,,,,,,,,,,0.9,1,,,,,,,,,,,,,,,0,0.4,-0.289285714,1,0,0,0.9,button_right_main,0.4,-0.289285714,1,0,0,,0,59,59,48,1,SPORT,C,old,m,./images/SPORT.png,,,,,,,,,,,,,,,,,,,,,,,,,,,,,,,,,
,,,,,,,,,,,,,,,,,607fb8465341fd553409b92b,41,2022-02-12_12h35.23.529,lexical_decision_task_DD,2021.2.3,iPhone,30.3030303,,,,,,,,,,1.414,0,,,,,,,,,,,,,,,0,-0.386734694,-0.301530612,1,0,0,1.414,button_left_main,-0.386734694,-0.301530612,1,0,0,,0,60,60,16,1,PENCE,HB,old,m,./images/PENCEHB.png,,,,,,,,,,,,,,,,,,,,,,,,,,,,,,,,,
,,,,,,,,,,,,,,,,,607fb8465341fd553409b92b,41,2022-02-12_12h35.23.529,lexical_decision_task_DD,2021.2.3,iPhone,30.3030303,,,,,,,,,,1,1,,,,,,,,,,,,,,,0,-0.326530612,-0.323979592,1,0,0,1,button_left_main,-0.326530612,-0.323979592,1,0,0,,0,61,61,132,1,SCIFF,C,old,z,./images/SCIFF.png,,,,,,,,,,,,,,,,,,,,,,,,,,,,,,,,,
,,,,,,,,,,,,,,,,,607fb8465341fd553409b92b,41,2022-02-12_12h35.23.529,lexical_decision_task_DD,2021.2.3,iPhone,30.3030303,,,,,,,,,,0.802,1,,,,,,,,,,,,,,,0,0.363265306,-0.260714286,1,0,0,0.802,button_right_main,0.363265306,-0.260714286,1,0,0,,0,62,62,71,1,PIMPLE,LB,old,m,./images/PIMPLELB.png,,,,,,,,,,,,,,,,,,,,,,,,,,,,,,,,,
,,,,,,,,,,,,,,,,,607fb8465341fd553409b92b,41,2022-02-12_12h35.23.529,lexical_decision_task_DD,2021.2.3,iPhone,30.3030303,,,,,,,,,,0.98,1,,,,,,,,,,,,,,,0,-0.318367347,-0.321938776,1,0,0,0.98,button_left_main,-0.318367347,-0.321938776,1,0,0,,0,63,63,93,1,SMONE,C,old,z,./images/SMONE.png,,,,,,,,,,,,,,,,,,,,,,,,,,,,,,,,,
,,,,,,,,,,,,,,,,,607fb8465341fd553409b92b,41,2022-02-12_12h35.23.529,lexical_decision_task_DD,2021.2.3,iPhone,30.3030303,,,,,,,,,,1.412,1,,,,,,,,,,,,,,,0,-0.298979592,-0.311734694,1,0,0,1.412,button_left_main,-0.298979592,-0.311734694,1,0,0,,0,64,64,111,1,HOSSE,C,old,z,./images/HOSSE.png,,,,,,,,,,,,,,,,,,,,,,,,,,,,,,,,,
,,,,,,,,,,,,,,,,,607fb8465341fd553409b92b,41,2022-02-12_12h35.23.529,lexical_decision_task_DD,2021.2.3,iPhone,30.3030303,,,,,,,,,,1.433,1,,,,,,,,,,,,,,,0,0.415306122,-0.276020408,1,0,0,1.433,button_right_main,0.415306122,-0.276020408,1,0,0,,0,65,65,32,1,BARREL,LB,old,m,./images/BARRELLB.png,,,,,,,,,,,,,,,,,,,,,,,,,,,,,,,,,
,,,,,,,,,,,,,,,,,607fb8465341fd553409b92b,41,2022-02-12_12h35.23.529,lexical_decision_task_DD,2021.2.3,iPhone,30.3030303,,,,,,,,,,0.847,1,,,,,,,,,,,,,,,0,0.418367347,-0.278061224,1,0,0,0.847,button_right_main,0.418367347,-0.278061224,1,0,0,,0,66,66,8,1,TULIP,LB,old,m,./images/TULIPLB.png,,,,,,,,,,,,,,,,,,,,,,,,,,,,,,,,,
,,,,,,,,,,,,,,,,,607fb8465341fd553409b92b,41,2022-02-12_12h35.23.529,lexical_decision_task_DD,2021.2.3,iPhone,30.3030303,,,,,,,,,,0.834,1,,,,,,,,,,,,,,,0,-0.339795918,-0.341326531,1,0,0,0.834,button_left_main,-0.339795918,-0.341326531,1,0,0,,0,67,67,89,1,DRIEK,LB,old,z,./images/DRIEKLB.png,,,,,,,,,,,,,,,,,,,,,,,,,,,,,,,,,
,,,,,,,,,,,,,,,,,607fb8465341fd553409b92b,41,2022-02-12_12h35.23.529,lexical_decision_task_DD,2021.2.3,iPhone,30.3030303,,,,,,,,,,1.513,1,,,,,,,,,,,,,,,0,-0.326530612,-0.321938776,1,0,0,1.513,button_left_main,-0.326530612,-0.321938776,1,0,0,,0,68,68,108,1,GRUET,C,old,z,./images/GRUET.png,,,,,,,,,,,,,,,,,,,,,,,,,,,,,,,,,
,,,,,,,,,,,,,,,,,607fb8465341fd553409b92b,41,2022-02-12_12h35.23.529,lexical_decision_task_DD,2021.2.3,iPhone,30.3030303,,,,,,,,,,1.014,1,,,,,,,,,,,,,,,0,-0.337755102,-0.316836735,1,0,0,1.014,button_left_main,-0.337755102,-0.316836735,1,0,0,,0,69,69,158,1,EGECT,LB,old,z,./images/EGECTLB.png,,,,,,,,,,,,,,,,,,,,,,,,,,,,,,,,,
,,,,,,,,,,,,,,,,,607fb8465341fd553409b92b,41,2022-02-12_12h35.23.529,lexical_decision_task_DD,2021.2.3,iPhone,30.3030303,,,,,,,,,,0.748,1,,,,,,,,,,,,,,,0,-0.324489796,-0.341326531,1,0,0,0.748,button_left_main,-0.324489796,-0.341326531,1,0,0,,0,70,70,86,1,AIFED,LB,old,z,./images/AIFEDLB.png,,,,,,,,,,,,,,,,,,,,,,,,,,,,,,,,,
,,,,,,,,,,,,,,,,,607fb8465341fd553409b92b,41,2022-02-12_12h35.23.529,lexical_decision_task_DD,2021.2.3,iPhone,30.3030303,,,,,,,,,,0.966,1,,,,,,,,,,,,,,,0,0.336734694,-0.283163265,1,0,0,0.966,button_right_main,0.336734694,-0.283163265,1,0,0,,0,71,71,52,1,BANNER,HB,old,m,./images/BANNERHB.png,,,,,,,,,,,,,,,,,,,,,,,,,,,,,,,,,
,,,,,,,,,,,,,,,,,607fb8465341fd553409b92b,41,2022-02-12_12h35.23.529,lexical_decision_task_DD,2021.2.3,iPhone,30.3030303,,,,,,,,,,1.134,1,,,,,,,,,,,,,,,0,0.315306122,-0.276020408,1,0,0,1.134,button_right_main,0.315306122,-0.276020408,1,0,0,,0,72,72,55,1,MUFFIN,HB,old,m,./images/MUFFINHB.png,,,,,,,,,,,,,,,,,,,,,,,,,,,,,,,,,
,,,,,,,,,,,,,,,,,607fb8465341fd553409b92b,41,2022-02-12_12h35.23.529,lexical_decision_task_DD,2021.2.3,iPhone,30.3030303,,,,,,,,,,0.732,1,,,,,,,,,,,,,,,0,0.341836735,-0.282142857,1,0,0,0.732,button_right_main,0.341836735,-0.282142857,1,0,0,,0,73,73,62,1,PURSE,LB,old,m,./images/PURSELB.png,,,,,,,,,,,,,,,,,,,,,,,,,,,,,,,,,
,,,,,,,,,,,,,,,,,607fb8465341fd553409b92b,41,2022-02-12_12h35.23.529,lexical_decision_task_DD,2021.2.3,iPhone,30.3030303,,,,,,,,,,0.73,1,,,,,,,,,,,,,,,0,-0.329591837,-0.34744898,1,0,0,0.73,button_left_main,-0.329591837,-0.34744898,1,0,0,,0,74,74,137,1,JOOST,LB,old,z,./images/JOOSTLB.png,,,,,,,,,,,,,,,,,,,,,,,,,,,,,,,,,
,,,,,,,,,,,,,,,,,607fb8465341fd553409b92b,41,2022-02-12_12h35.23.529,lexical_decision_task_DD,2021.2.3,iPhone,30.3030303,,,,,,,,,,1.134,1,,,,,,,,,,,,,,,0,-0.283673469,-0.301530612,1,0,0,1.134,button_left_main,-0.283673469,-0.301530612,1,0,0,,0,75,75,109,1,BURGE,HB,old,z,./images/BURGEHB.png,,,,,,,,,,,,,,,,,,,,,,,,,,,,,,,,,
,,,,,,,,,,,,,,,,,607fb8465341fd553409b92b,41,2022-02-12_12h35.23.529,lexical_decision_task_DD,2021.2.3,iPhone,30.3030303,,,,,,,,,,0.699,1,,,,,,,,,,,,,,,0,-0.335714286,-0.346428571,1,0,0,0.699,button_left_main,-0.335714286,-0.346428571,1,0,0,,0,76,76,125,1,MOOKY,LB,old,z,./images/MOOKYLB.png,,,,,,,,,,,,,,,,,,,,,,,,,,,,,,,,,
,,,,,,,,,,,,,,,,,607fb8465341fd553409b92b,41,2022-02-12_12h35.23.529,lexical_decision_task_DD,2021.2.3,iPhone,30.3030303,,,,,,,,,,0.913,1,,,,,,,,,,,,,,,0,0.33877551,-0.287244898,1,0,0,0.913,button_right_main,0.33877551,-0.287244898,1,0,0,,0,77,77,12,1,SHORE,C,old,m,./images/SHORE.png,,,,,,,,,,,,,,,,,,,,,,,,,,,,,,,,,
,,,,,,,,,,,,,,,,,607fb8465341fd553409b92b,41,2022-02-12_12h35.23.529,lexical_decision_task_DD,2021.2.3,iPhone,30.3030303,,,,,,,,,,0.78,1,,,,,,,,,,,,,,,0,0.309183673,-0.306632653,1,0,0,0.78,button_right_main,0.309183673,-0.306632653,1,0,0,,0,78,78,38,1,LADDER,LB,old,m,./images/LADDERLB.png,,,,,,,,,,,,,,,,,,,,,,,,,,,,,,,,,
,,,,,,,,,,,,,,,,,607fb8465341fd553409b92b,41,2022-02-12_12h35.23.529,lexical_decision_task_DD,2021.2.3,iPhone,30.3030303,,,,,,,,,,0.735,1,,,,,,,,,,,,,,,0,-0.325510204,-0.330102041,1,0,0,0.735,button_left_main,-0.325510204,-0.330102041,1,0,0,,0,79,79,123,1,SEDGE,C,old,z,./images/SEDGE.png,,,,,,,,,,,,,,,,,,,,,,,,,,,,,,,,,
,,,,,,,,,,,,,,,,,607fb8465341fd553409b92b,41,2022-02-12_12h35.23.529,lexical_decision_task_DD,2021.2.3,iPhone,30.3030303,,,,,,,,,,0.764,1,,,,,,,,,,,,,,,0,0.357142857,-0.291326531,1,0,0,0.764,button_right_main,0.357142857,-0.291326531,1,0,0,,0,80,80,35,1,PEACH,LB,old,m,./images/PEACHLB.png,,,,,,,,,,,,,,,,,,,,,,,,,,,,,,,,,
,,,,,,,,,,,,,,,,,607fb8465341fd553409b92b,41,2022-02-12_12h35.23.529,lexical_decision_task_DD,2021.2.3,iPhone,30.3030303,,,,,,,,,,0.902,1,,,,,,,,,,,,,,,0,0.319387755,-0.295408163,1,0,0,0.902,button_right_main,0.319387755,-0.295408163,1,0,0,,0,81,81,45,1,KITTEN,C,old,m,./images/KITTEN.png,,,,,,,,,,,,,,,,,,,,,,,,,,,,,,,,,
,,,,,,,,,,,,,,,,,607fb8465341fd553409b92b,41,2022-02-12_12h35.23.529,lexical_decision_task_DD,2021.2.3,iPhone,30.3030303,,,,,,,,,,1.281,1,,,,,,,,,,,,,,,0,0.342857143,-0.280102041,1,0,0,1.281,button_right_main,0.342857143,-0.280102041,1,0,0,,0,82,82,49,1,DRUMS,HB,old,m,./images/DRUMSHB.png,,,,,,,,,,,,,,,,,,,,,,,,,,,,,,,,,
,,,,,,,,,,,,,,,,,607fb8465341fd553409b92b,41,2022-02-12_12h35.23.529,lexical_decision_task_DD,2021.2.3,iPhone,30.3030303,,,,,,,,,,0.966,1,,,,,,,,,,,,,,,0,-0.324489796,-0.316836735,1,0,0,0.966,button_left_main,0.065306122,-0.398469388,1,0,0,,0,83,83,129,1,PRANS,C,old,z,./images/PRANS.png,break_done_button,,,,,,,,,,,,,,,,,,,,,,,,,,,,,,,,
,,,,,,,,,,,,,,,,,607fb8465341fd553409b92b,41,2022-02-12_12h35.23.529,lexical_decision_task_DD,2021.2.3,iPhone,30.3030303,,,,,,,,,,0.712,1,,,,,,,,,,,,,,,0,0.45,-0.273979592,1,0,0,0.712,button_right_main,0.45,-0.273979592,1,0,0,,0,84,84,5,1,PASTA,LB,old,m,./images/PASTALB.png,,,,,,,,,,,,,,,,,,,,,,,,,,,,,,,,,
,,,,,,,,,,,,,,,,,607fb8465341fd553409b92b,41,2022-02-12_12h35.23.529,lexical_decision_task_DD,2021.2.3,iPhone,30.3030303,,,,,,,,,,1.702,1,,,,,,,,,,,,,,,0,-0.28877551,-0.273979592,1,0,0,1.702,button_left_main,-0.28877551,-0.273979592,1,0,0,,0,85,85,118,1,BAVEL,HB,old,z,./images/BAVELHB.png,,,,,,,,,,,,,,,,,,,,,,,,,,,,,,,,,
,,,,,,,,,,,,,,,,,607fb8465341fd553409b92b,41,2022-02-12_12h35.23.529,lexical_decision_task_DD,2021.2.3,iPhone,30.3030303,,,,,,,,,,2.549,1,,,,,,,,,,,,,,,0,-0.295918367,-0.323979592,1,0,0,2.549,button_left_main,-0.295918367,-0.323979592,1,0,0,,0,86,86,110,1,CRUNK,LB,old,z,./images/CRUNKLB.png,,,,,,,,,,,,,,,,,,,,,,,,,,,,,,,,,
,,,,,,,,,,,,,,,,,607fb8465341fd553409b92b,41,2022-02-12_12h35.23.529,lexical_decision_task_DD,2021.2.3,iPhone,30.3030303,,,,,,,,,,1.18,1,,,,,,,,,,,,,,,0,0.373469388,-0.272959184,1,0,0,1.18,button_right_main,0.373469388,-0.272959184,1,0,0,,0,87,87,59,1,BURIAL,LB,old,m,./images/BURIALLB.png,,,,,,,,,,,,,,,,,,,,,,,,,,,,,,,,,
,,,,,,,,,,,,,,,,,607fb8465341fd553409b92b,41,2022-02-12_12h35.23.529,lexical_decision_task_DD,2021.2.3,iPhone,30.3030303,,,,,,,,,,1.234,1,,,,,,,,,,,,,,,0,-0.323469388,-0.322959184,1,0,0,1.234,button_left_main,-0.323469388,-0.322959184,1,0,0,,0,88,88,157,1,INLER,HB,old,z,./images/INLERHB.png,,,,,,,,,,,,,,,,,,,,,,,,,,,,,,,,,
,,,,,,,,,,,,,,,,,607fb8465341fd553409b92b,41,2022-02-12_12h35.23.529,lexical_decision_task_DD,2021.2.3,iPhone,30.3030303,,,,,,,,,,0.778,1,,,,,,,,,,,,,,,0,0.352040816,-0.292346939,1,0,0,0.778,button_right_main,0.352040816,-0.292346939,1,0,0,,0,89,89,30,1,STORM,C,old,m,./images/STORM.png,,,,,,,,,,,,,,,,,,,,,,,,,,,,,,,,,
,,,,,,,,,,,,,,,,,607fb8465341fd553409b92b,41,2022-02-12_12h35.23.529,lexical_decision_task_DD,2021.2.3,iPhone,30.3030303,,,,,,,,,,0.845,1,,,,,,,,,,,,,,,0,0.32244898,-0.281122449,1,0,0,0.845,button_right_main,0.32244898,-0.281122449,1,0,0,,0,90,90,81,1,POODLE,C,old,m,./images/POODLE.png,,,,,,,,,,,,,,,,,,,,,,,,,,,,,,,,,
,,,,,,,,,,,,,,,,,607fb8465341fd553409b92b,41,2022-02-12_12h35.23.529,lexical_decision_task_DD,2021.2.3,iPhone,30.3030303,,,,,,,,,,0.71,1,,,,,,,,,,,,,,,0,0.383673469,-0.268877551,1,0,0,0.71,button_right_main,0.383673469,-0.268877551,1,0,0,,0,91,91,63,1,MIRROR,C,old,m,./images/MIRROR.png,,,,,,,,,,,,,,,,,,,,,,,,,,,,,,,,,
,,,,,,,,,,,,,,,,,607fb8465341fd553409b92b,41,2022-02-12_12h35.23.529,lexical_decision_task_DD,2021.2.3,iPhone,30.3030303,,,,,,,,,,1.047,1,,,,,,,,,,,,,,,0,-0.306122449,-0.323979592,1,0,0,1.047,button_left_main,-0.306122449,-0.323979592,1,0,0,,0,92,92,84,1,HAXES,C,old,z,./images/HAXES.png,,,,,,,,,,,,,,,,,,,,,,,,,,,,,,,,,
,,,,,,,,,,,,,,,,,607fb8465341fd553409b92b,41,2022-02-12_12h35.23.529,lexical_decision_task_DD,2021.2.3,iPhone,30.3030303,,,,,,,,,,0.968,1,,,,,,,,,,,,,,,0,-0.31122449,-0.311734694,1,0,0,0.968,button_left_main,-0.31122449,-0.311734694,1,0,0,,0,93,93,103,1,FLORT,HB,old,z,./images/FLORTHB.png,,,,,,,,,,,,,,,,,,,,,,,,,,,,,,,,,
,,,,,,,,,,,,,,,,,607fb8465341fd553409b92b,41,2022-02-12_12h35.23.529,lexical_decision_task_DD,2021.2.3,iPhone,30.3030303,,,,,,,,,,1.201,1,,,,,,,,,,,,,,,0,0.332653061,-0.255612245,1,0,0,1.201,button_right_main,0.332653061,-0.255612245,1,0,0,,0,94,94,79,1,CRUST,HB,old,m,./images/CRUSTHB.png,,,,,,,,,,,,,,,,,,,,,,,,,,,,,,,,,
,,,,,,,,,,,,,,,,,607fb8465341fd553409b92b,41,2022-02-12_12h35.23.529,lexical_decision_task_DD,2021.2.3,iPhone,30.3030303,,,,,,,,,,0.732,1,,,,,,,,,,,,,,,0,0.383673469,-0.249489796,1,0,0,0.732,button_right_main,0.383673469,-0.249489796,1,0,0,,0,95,95,15,1,GREASE,C,old,m,./images/GREASE.png,,,,,,,,,,,,,,,,,,,,,,,,,,,,,,,,,
,,,,,,,,,,,,,,,,,607fb8465341fd553409b92b,41,2022-02-12_12h35.23.529,lexical_decision_task_DD,2021.2.3,iPhone,30.3030303,,,,,,,,,,0.878,1,,,,,,,,,,,,,,,0,-0.306122449,-0.317857143,1,0,0,0.878,button_left_main,-0.306122449,-0.317857143,1,0,0,,0,96,96,146,1,MOOST,LB,old,z,./images/MOOSTLB.png,,,,,,,,,,,,,,,,,,,,,,,,,,,,,,,,,
,,,,,,,,,,,,,,,,,607fb8465341fd553409b92b,41,2022-02-12_12h35.23.529,lexical_decision_task_DD,2021.2.3,iPhone,30.3030303,,,,,,,,,,1.146,1,,,,,,,,,,,,,,,0,0.434693878,-0.250510204,1,0,0,1.146,button_right_main,0.434693878,-0.250510204,1,0,0,,0,97,97,22,1,MELON,HB,old,m,./images/MELONHB.png,,,,,,,,,,,,,,,,,,,,,,,,,,,,,,,,,
,,,,,,,,,,,,,,,,,607fb8465341fd553409b92b,41,2022-02-12_12h35.23.529,lexical_decision_task_DD,2021.2.3,iPhone,30.3030303,,,,,,,,,,0.932,1,,,,,,,,,,,,,,,0,0.470408163,-0.260714286,1,0,0,0.932,button_right_main,0.470408163,-0.260714286,1,0,0,,0,98,98,50,1,MALLET,LB,old,m,./images/MALLETLB.png,,,,,,,,,,,,,,,,,,,,,,,,,,,,,,,,,
,,,,,,,,,,,,,,,,,607fb8465341fd553409b92b,41,2022-02-12_12h35.23.529,lexical_decision_task_DD,2021.2.3,iPhone,30.3030303,,,,,,,,,,0.88,1,,,,,,,,,,,,,,,0,-0.324489796,-0.333163265,1,0,0,0.88,button_left_main,-0.324489796,-0.333163265,1,0,0,,0,99,99,114,1,RIKES,C,old,z,./images/RIKES.png,,,,,,,,,,,,,,,,,,,,,,,,,,,,,,,,,
,,,,,,,,,,,,,,,,,607fb8465341fd553409b92b,41,2022-02-12_12h35.23.529,lexical_decision_task_DD,2021.2.3,iPhone,30.3030303,,,,,,,,,,1.235,1,,,,,,,,,,,,,,,0,-0.302040816,-0.309693878,1,0,0,1.235,button_left_main,-0.302040816,-0.309693878,1,0,0,,0,100,100,106,1,CLUMS,HB,old,z,./images/CLUMSHB.png,,,,,,,,,,,,,,,,,,,,,,,,,,,,,,,,,
,,,,,,,,,,,,,,,,,607fb8465341fd553409b92b,41,2022-02-12_12h35.23.529,lexical_decision_task_DD,2021.2.3,iPhone,30.3030303,,,,,,,,,,0.68,1,,,,,,,,,,,,,,,0,0.396938776,-0.262755102,1,0,0,0.68,button_right_main,0.396938776,-0.262755102,1,0,0,,0,101,101,57,1,MOOSE,C,old,m,./images/MOOSE.png,,,,,,,,,,,,,,,,,,,,,,,,,,,,,,,,,
,,,,,,,,,,,,,,,,,607fb8465341fd553409b92b,41,2022-02-12_12h35.23.529,lexical_decision_task_DD,2021.2.3,iPhone,30.3030303,,,,,,,,,,0.847,1,,,,,,,,,,,,,,,0,0.332653061,-0.237244898,1,0,0,0.847,button_right_main,0.332653061,-0.237244898,1,0,0,,0,102,102,56,1,PACKET,LB,old,m,./images/PACKETLB.png,,,,,,,,,,,,,,,,,,,,,,,,,,,,,,,,,
,,,,,,,,,,,,,,,,,607fb8465341fd553409b92b,41,2022-02-12_12h35.23.529,lexical_decision_task_DD,2021.2.3,iPhone,30.3030303,,,,,,,,,,0.815,1,,,,,,,,,,,,,,,0,-0.313265306,-0.334183673,1,0,0,0.815,button_left_main,-0.313265306,-0.334183673,1,0,0,,0,103,103,116,1,BALGY,LB,old,z,./images/BALGYLB.png,,,,,,,,,,,,,,,,,,,,,,,,,,,,,,,,,
,,,,,,,,,,,,,,,,,607fb8465341fd553409b92b,41,2022-02-12_12h35.23.529,lexical_decision_task_DD,2021.2.3,iPhone,30.3030303,,,,,,,,,,0.732,1,,,,,,,,,,,,,,,0,0.394897959,-0.23622449,1,0,0,0.732,button_right_main,0.394897959,-0.23622449,1,0,0,,0,104,104,39,1,SHELF,C,old,m,./images/SHELF.png,,,,,,,,,,,,,,,,,,,,,,,,,,,,,,,,,
,,,,,,,,,,,,,,,,,607fb8465341fd553409b92b,41,2022-02-12_12h35.23.529,lexical_decision_task_DD,2021.2.3,iPhone,30.3030303,,,,,,,,,,0.779,1,,,,,,,,,,,,,,,0,0.42755102,-0.238265306,1,0,0,0.779,button_right_main,0.42755102,-0.238265306,1,0,0,,0,105,105,36,1,THROAT,C,old,m,./images/THROAT.png,,,,,,,,,,,,,,,,,,,,,,,,,,,,,,,,,
,,,,,,,,,,,,,,,,,607fb8465341fd553409b92b,41,2022-02-12_12h35.23.529,lexical_decision_task_DD,2021.2.3,iPhone,30.3030303,,,,,,,,,,0.732,1,,,,,,,,,,,,,,,0,0.455102041,-0.238265306,1,0,0,0.732,button_right_main,0.455102041,-0.238265306,1,0,0,,0,106,106,83,1,JUNGLE,LB,old,m,./images/JUNGLELB.png,,,,,,,,,,,,,,,,,,,,,,,,,,,,,,,,,
,,,,,,,,,,,,,,,,,607fb8465341fd553409b92b,41,2022-02-12_12h35.23.529,lexical_decision_task_DD,2021.2.3,iPhone,30.3030303,,,,,,,,,,0.666,1,,,,,,,,,,,,,,,0,0.468367347,-0.232142857,1,0,0,0.666,button_right_main,0.468367347,-0.232142857,1,0,0,,0,107,107,24,1,SCREW,C,old,m,./images/SCREW.png,,,,,,,,,,,,,,,,,,,,,,,,,,,,,,,,,
,,,,,,,,,,,,,,,,,607fb8465341fd553409b92b,41,2022-02-12_12h35.23.529,lexical_decision_task_DD,2021.2.3,iPhone,30.3030303,,,,,,,,,,0.98,1,,,,,,,,,,,,,,,0,-0.295918367,-0.326020408,1,0,0,0.98,button_left_main,-0.295918367,-0.326020408,1,0,0,,0,108,108,87,1,TRING,C,old,z,./images/TRING.png,,,,,,,,,,,,,,,,,,,,,,,,,,,,,,,,,
,,,,,,,,,,,,,,,,,607fb8465341fd553409b92b,41,2022-02-12_12h35.23.529,lexical_decision_task_DD,2021.2.3,iPhone,30.3030303,,,,,,,,,,0.766,1,,,,,,,,,,,,,,,0,0.410204082,-0.254591837,1,0,0,0.766,button_right_main,0.410204082,-0.254591837,1,0,0,,0,109,109,46,1,PEARL,HB,old,m,./images/PEARLHB.png,,,,,,,,,,,,,,,,,,,,,,,,,,,,,,,,,
,,,,,,,,,,,,,,,,,607fb8465341fd553409b92b,41,2022-02-12_12h35.23.529,lexical_decision_task_DD,2021.2.3,iPhone,30.3030303,,,,,,,,,,0.899,1,,,,,,,,,,,,,,,0,-0.326530612,-0.311734694,1,0,0,0.899,button_left_main,-0.326530612,-0.311734694,1,0,0,,0,110,110,135,1,JOODY,C,old,z,./images/JOODY.png,,,,,,,,,,,,,,,,,,,,,,,,,,,,,,,,,
,,,,,,,,,,,,,,,,,607fb8465341fd553409b92b,41,2022-02-12_12h35.23.529,lexical_decision_task_DD,2021.2.3,iPhone,30.3030303,,,,,,,,,,0.9,1,,,,,,,,,,,,,,,0,0.443877551,-0.254591837,1,0,0,0.9,button_right_main,0.443877551,-0.254591837,1,0,0,,0,111,111,66,1,SWEAT,C,old,m,./images/SWEAT.png,,,,,,,,,,,,,,,,,,,,,,,,,,,,,,,,,
,,,,,,,,,,,,,,,,,607fb8465341fd553409b92b,41,2022-02-12_12h35.23.529,lexical_decision_task_DD,2021.2.3,iPhone,30.3030303,,,,,,,,,,0.8,1,,,,,,,,,,,,,,,0,0.473469388,-0.227040816,1,0,0,0.8,button_right_main,0.473469388,-0.227040816,1,0,0,,0,112,112,14,1,PICKLE,LB,old,m,./images/PICKLELB.png,,,,,,,,,,,,,,,,,,,,,,,,,,,,,,,,,
,,,,,,,,,,,,,,,,,607fb8465341fd553409b92b,41,2022-02-12_12h35.23.529,lexical_decision_task_DD,2021.2.3,iPhone,30.3030303,,,,,,,,,,0.748,1,,,,,,,,,,,,,,,0,0.478571429,-0.223979592,1,0,0,0.748,button_right_main,0.478571429,-0.223979592,1,0,0,,0,113,113,44,1,LIZARD,LB,old,m,./images/LIZARDLB.png,,,,,,,,,,,,,,,,,,,,,,,,,,,,,,,,,
,,,,,,,,,,,,,,,,,607fb8465341fd553409b92b,41,2022-02-12_12h35.23.529,lexical_decision_task_DD,2021.2.3,iPhone,30.3030303,,,,,,,,,,0.947,1,,,,,,,,,,,,,,,0,-0.354081633,-0.317857143,1,0,0,0.947,button_left_main,-0.354081633,-0.317857143,1,0,0,,0,114,114,139,1,BLEAR,HB,old,z,./images/BLEARHB.png,,,,,,,,,,,,,,,,,,,,,,,,,,,,,,,,,
,,,,,,,,,,,,,,,,,607fb8465341fd553409b92b,41,2022-02-12_12h35.23.529,lexical_decision_task_DD,2021.2.3,iPhone,30.3030303,,,,,,,,,,0.979,1,,,,,,,,,,,,,,,0,-0.352040816,-0.333163265,1,0,0,0.979,button_left_main,-0.352040816,-0.333163265,1,0,0,,0,115,115,113,1,LINEW,LB,old,z,./images/LINEWLB.png,,,,,,,,,,,,,,,,,,,,,,,,,,,,,,,,,
,,,,,,,,,,,,,,,,,607fb8465341fd553409b92b,41,2022-02-12_12h35.23.529,lexical_decision_task_DD,2021.2.3,iPhone,30.3030303,,,,,,,,,,2.216,1,,,,,,,,,,,,,,,0,0.369387755,-0.269897959,1,0,0,2.216,button_right_main,0.369387755,-0.269897959,1,0,0,,0,116,116,13,1,MOTOR,HB,old,m,./images/MOTORHB.png,,,,,,,,,,,,,,,,,,,,,,,,,,,,,,,,,
,,,,,,,,,,,,,,,,,607fb8465341fd553409b92b,41,2022-02-12_12h35.23.529,lexical_decision_task_DD,2021.2.3,iPhone,30.3030303,,,,,,,,,,0.899,1,,,,,,,,,,,,,,,0,-0.284693878,-0.316836735,1,0,0,0.899,button_left_main,-0.284693878,-0.316836735,1,0,0,,0,117,117,131,1,NACES,LB,old,z,./images/NACESLB.png,,,,,,,,,,,,,,,,,,,,,,,,,,,,,,,,,
,,,,,,,,,,,,,,,,,607fb8465341fd553409b92b,41,2022-02-12_12h35.23.529,lexical_decision_task_DD,2021.2.3,iPhone,30.3030303,,,,,,,,,,2.783,1,,,,,,,,,,,,,,,0,-0.289795918,-0.315816327,1,0,0,2.783,button_left_main,-0.289795918,-0.315816327,1,0,0,,0,118,118,145,1,LAMEL,HB,old,z,./images/LAMELHB.png,,,,,,,,,,,,,,,,,,,,,,,,,,,,,,,,,
,,,,,,,,,,,,,,,,,607fb8465341fd553409b92b,41,2022-02-12_12h35.23.529,lexical_decision_task_DD,2021.2.3,iPhone,30.3030303,,,,,,,,,,1.901,1,,,,,,,,,,,,,,,0,-0.295918367,-0.334183673,1,0,0,1.901,button_left_main,-0.295918367,-0.334183673,1,0,0,,0,119,119,85,1,CHULK,HB,old,z,./images/CHULKHB.png,,,,,,,,,,,,,,,,,,,,,,,,,,,,,,,,,
,,,,,,,,,,,,,,,,,607fb8465341fd553409b92b,41,2022-02-12_12h35.23.529,lexical_decision_task_DD,2021.2.3,iPhone,30.3030303,,,,,,,,,,0.832,1,,,,,,,,,,,,,,,0,0.421428571,-0.255612245,1,0,0,0.832,button_right_main,0.421428571,-0.255612245,1,0,0,,0,120,120,65,1,FARMER,LB,old,m,./images/FARMERLB.png,,,,,,,,,,,,,,,,,,,,,,,,,,,,,,,,,
,,,,,,,,,,,,,,,,,607fb8465341fd553409b92b,41,2022-02-12_12h35.23.529,lexical_decision_task_DD,2021.2.3,iPhone,30.3030303,,,,,,,,,,2.012,1,,,,,,,,,,,,,,,0,-0.281632653,-0.344387755,1,0,0,2.012,button_left_main,-0.281632653,-0.344387755,1,0,0,,0,121,121,120,1,RINED,C,old,z,./images/RINED.png,,,,,,,,,,,,,,,,,,,,,,,,,,,,,,,,,
,,,,,,,,,,,,,,,,,607fb8465341fd553409b92b,41,2022-02-12_12h35.23.529,lexical_decision_task_DD,2021.2.3,iPhone,30.3030303,,,,,,,,,,0.746,1,,,,,,,,,,,,,,,0,0.390816327,-0.259693878,1,0,0,0.746,button_right_main,0.390816327,-0.259693878,1,0,0,,0,122,122,6,1,SQUARE,C,old,m,./images/SQUARE.png,,,,,,,,,,,,,,,,,,,,,,,,,,,,,,,,,
,,,,,,,,,,,,,,,,,607fb8465341fd553409b92b,41,2022-02-12_12h35.23.529,lexical_decision_task_DD,2021.2.3,iPhone,30.3030303,,,,,,,,,,1.3,1,,,,,,,,,,,,,,,0,0.413265306,-0.251530612,1,0,0,1.3,button_right_main,0.413265306,-0.251530612,1,0,0,,0,123,123,42,1,FOLDER,C,old,m,./images/FOLDER.png,,,,,,,,,,,,,,,,,,,,,,,,,,,,,,,,,
,,,,,,,,,,,,,,,,,607fb8465341fd553409b92b,41,2022-02-12_12h35.23.529,lexical_decision_task_DD,2021.2.3,iPhone,30.3030303,,,,,,,,,,1.281,1,,,,,,,,,,,,,,,0,-0.281632653,-0.31377551,1,0,0,1.281,button_left_main,-0.281632653,-0.31377551,1,0,0,,0,124,124,140,1,DOVET,LB,old,z,./images/DOVETLB.png,,,,,,,,,,,,,,,,,,,,,,,,,,,,,,,,,
,,,,,,,,,,,,,,,,,607fb8465341fd553409b92b,41,2022-02-12_12h35.23.529,lexical_decision_task_DD,2021.2.3,iPhone,30.3030303,,,,,,,,,,1.467,1,,,,,,,,,,,,,,,0,0.396938776,-0.281122449,1,0,0,1.467,button_right_main,0.056122449,-0.403571429,1,0,0,,0,125,125,25,1,WRIST,HB,old,m,./images/WRISTHB.png,break_done_button,,,,,,,,,,,,,,,,,,,,,,,,,,,,,,,,
,,,,,,,,,,,,,,,,,607fb8465341fd553409b92b,41,2022-02-12_12h35.23.529,lexical_decision_task_DD,2021.2.3,iPhone,30.3030303,,,,,,,,,,1.667,1,,,,,,,,,,,,,,,0,-0.266326531,-0.301530612,1,0,0,1.667,button_left_main,-0.266326531,-0.301530612,1,0,0,,0,126,126,88,1,GLUSH,HB,old,z,./images/GLUSHHB.png,,,,,,,,,,,,,,,,,,,,,,,,,,,,,,,,,
,,,,,,,,,,,,,,,,,607fb8465341fd553409b92b,41,2022-02-12_12h35.23.529,lexical_decision_task_DD,2021.2.3,iPhone,30.3030303,,,,,,,,,,0.946,1,,,,,,,,,,,,,,,0,0.340816327,-0.291326531,1,0,0,0.946,button_right_main,0.340816327,-0.291326531,1,0,0,,0,127,127,73,1,SNACK,HB,old,m,./images/SNACKHB.png,,,,,,,,,,,,,,,,,,,,,,,,,,,,,,,,,
,,,,,,,,,,,,,,,,,607fb8465341fd553409b92b,41,2022-02-12_12h35.23.529,lexical_decision_task_DD,2021.2.3,iPhone,30.3030303,,,,,,,,,,1.734,1,,,,,,,,,,,,,,,0,-0.326530612,-0.349489796,1,0,0,1.734,button_left_main,-0.326530612,-0.349489796,1,0,0,,0,128,128,154,1,THINT,HB,old,z,./images/THINTHB.png,,,,,,,,,,,,,,,,,,,,,,,,,,,,,,,,,
,,,,,,,,,,,,,,,,,607fb8465341fd553409b92b,41,2022-02-12_12h35.23.529,lexical_decision_task_DD,2021.2.3,iPhone,30.3030303,,,,,,,,,,1.078,1,,,,,,,,,,,,,,,0,0.325510204,-0.262755102,1,0,0,1.078,button_right_main,0.325510204,-0.262755102,1,0,0,,0,129,129,4,1,MUSCLE,HB,old,m,./images/MUSCLEHB.png,,,,,,,,,,,,,,,,,,,,,,,,,,,,,,,,,
,,,,,,,,,,,,,,,,,607fb8465341fd553409b92b,41,2022-02-12_12h35.23.529,lexical_decision_task_DD,2021.2.3,iPhone,30.3030303,,,,,,,,,,1.381,1,,,,,,,,,,,,,,,0,-0.269387755,-0.34744898,1,0,0,1.381,button_left_main,-0.269387755,-0.34744898,1,0,0,,0,130,130,100,1,DRIBS,HB,old,z,./images/DRIBSHB.png,,,,,,,,,,,,,,,,,,,,,,,,,,,,,,,,,
,,,,,,,,,,,,,,,,,607fb8465341fd553409b92b,41,2022-02-12_12h35.23.529,lexical_decision_task_DD,2021.2.3,iPhone,30.3030303,,,,,,,,,,0.913,1,,,,,,,,,,,,,,,0,0.3,-0.301530612,1,0,0,0.913,button_right_main,0.3,-0.301530612,1,0,0,,0,131,131,75,1,GRAIN,C,old,m,./images/GRAIN.png,,,,,,,,,,,,,,,,,,,,,,,,,,,,,,,,,
,,,,,,,,,,,,,,,,,607fb8465341fd553409b92b,41,2022-02-12_12h35.23.529,lexical_decision_task_DD,2021.2.3,iPhone,30.3030303,,,,,,,,,,1.2,1,,,,,,,,,,,,,,,0,-0.282653061,-0.328061224,1,0,0,1.2,button_left_main,-0.282653061,-0.328061224,1,0,0,,0,132,132,141,1,PLEET,C,old,z,./images/PLEET.png,,,,,,,,,,,,,,,,,,,,,,,,,,,,,,,,,
,,,,,,,,,,,,,,,,,607fb8465341fd553409b92b,41,2022-02-12_12h35.23.529,lexical_decision_task_DD,2021.2.3,iPhone,30.3030303,,,,,,,,,,0.945,1,,,,,,,,,,,,,,,0,0.27755102,-0.243367347,1,0,0,0.945,button_right_main,0.27755102,-0.243367347,1,0,0,,0,133,133,9,1,RHINO,C,old,m,./images/RHINO.png,,,,,,,,,,,,,,,,,,,,,,,,,,,,,,,,,
,,,,,,,,,,,,,,,,,607fb8465341fd553409b92b,41,2022-02-12_12h35.23.529,lexical_decision_task_DD,2021.2.3,iPhone,30.3030303,,,,,,,,,,2.235,1,,,,,,,,,,,,,,,0,0.434693878,-0.259693878,1,0,0,2.235,button_right_main,0.434693878,-0.259693878,1,0,0,,0,134,134,72,1,NOOSE,C,old,m,./images/NOOSE.png,,,,,,,,,,,,,,,,,,,,,,,,,,,,,,,,,
,,,,,,,,,,,,,,,,,607fb8465341fd553409b92b,41,2022-02-12_12h35.23.529,lexical_decision_task_DD,2021.2.3,iPhone,30.3030303,,,,,,,,,,0.88,1,,,,,,,,,,,,,,,0,0.357142857,-0.254591837,1,0,0,0.88,button_right_main,0.357142857,-0.254591837,1,0,0,,0,135,135,20,1,CRADLE,LB,old,m,./images/CRADLELB.png,,,,,,,,,,,,,,,,,,,,,,,,,,,,,,,,,
,,,,,,,,,,,,,,,,,607fb8465341fd553409b92b,41,2022-02-12_12h35.23.529,lexical_decision_task_DD,2021.2.3,iPhone,30.3030303,,,,,,,,,,0.865,1,,,,,,,,,,,,,,,0,-0.284693878,-0.310714286,1,0,0,0.865,button_left_main,-0.284693878,-0.310714286,1,0,0,,0,136,136,98,1,BAMPS,LB,old,z,./images/BAMPSLB.png,,,,,,,,,,,,,,,,,,,,,,,,,,,,,,,,,
,,,,,,,,,,,,,,,,,607fb8465341fd553409b92b,41,2022-02-12_12h35.23.529,lexical_decision_task_DD,2021.2.3,iPhone,30.3030303,,,,,,,,,,0.746,1,,,,,,,,,,,,,,,0,0.365306122,-0.251530612,1,0,0,0.746,button_right_main,0.365306122,-0.251530612,1,0,0,,0,137,137,2,1,BEARD,LB,old,m,./images/BEARDLB.png,,,,,,,,,,,,,,,,,,,,,,,,,,,,,,,,,
,,,,,,,,,,,,,,,,,607fb8465341fd553409b92b,41,2022-02-12_12h35.23.529,lexical_decision_task_DD,2021.2.3,iPhone,30.3030303,,,,,,,,,,0.932,1,,,,,,,,,,,,,,,0,-0.287755102,-0.311734694,1,0,0,0.932,button_left_main,-0.287755102,-0.311734694,1,0,0,,0,138,138,159,1,CUDDY,C,old,z,./images/CUDDY.png,,,,,,,,,,,,,,,,,,,,,,,,,,,,,,,,,
,,,,,,,,,,,,,,,,,607fb8465341fd553409b92b,41,2022-02-12_12h35.23.529,lexical_decision_task_DD,2021.2.3,iPhone,30.3030303,,,,,,,,,,0.865,1,,,,,,,,,,,,,,,0,0.363265306,-0.280102041,1,0,0,0.865,button_right_main,0.363265306,-0.280102041,1,0,0,,0,139,139,23,1,WALRUS,LB,old,m,./images/WALRUSLB.png,,,,,,,,,,,,,,,,,,,,,,,,,,,,,,,,,
,,,,,,,,,,,,,,,,,607fb8465341fd553409b92b,41,2022-02-12_12h35.23.529,lexical_decision_task_DD,2021.2.3,iPhone,30.3030303,,,,,,,,,,1.201,1,,,,,,,,,,,,,,,0,-0.318367347,-0.316836735,1,0,0,1.201,button_left_main,-0.318367347,-0.316836735,1,0,0,,0,140,140,124,1,TUNCH,HB,old,z,./images/TUNCHHB.png,,,,,,,,,,,,,,,,,,,,,,,,,,,,,,,,,
,,,,,,,,,,,,,,,,,607fb8465341fd553409b92b,41,2022-02-12_12h35.23.529,lexical_decision_task_DD,2021.2.3,iPhone,30.3030303,,,,,,,,,,2.383,1,,,,,,,,,,,,,,,0,-0.252040816,-0.332142857,1,0,0,2.383,button_left_main,-0.252040816,-0.332142857,1,0,0,,0,141,141,97,1,CHIDS,HB,old,z,./images/CHIDSHB.png,,,,,,,,,,,,,,,,,,,,,,,,,,,,,,,,,
,,,,,,,,,,,,,,,,,607fb8465341fd553409b92b,41,2022-02-12_12h35.23.529,lexical_decision_task_DD,2021.2.3,iPhone,30.3030303,,,,,,,,,,1.715,1,,,,,,,,,,,,,,,0,-0.263265306,-0.320918367,1,0,0,1.715,button_left_main,-0.263265306,-0.320918367,1,0,0,,0,142,142,112,1,MYING,HB,old,z,./images/MYINGHB.png,,,,,,,,,,,,,,,,,,,,,,,,,,,,,,,,,
,,,,,,,,,,,,,,,,,607fb8465341fd553409b92b,41,2022-02-12_12h35.23.529,lexical_decision_task_DD,2021.2.3,iPhone,30.3030303,,,,,,,,,,1.649,1,,,,,,,,,,,,,,,0,-0.279591837,-0.317857143,1,0,0,1.649,button_left_main,-0.279591837,-0.317857143,1,0,0,,0,143,143,127,1,NINDY,HB,old,z,./images/NINDYHB.png,,,,,,,,,,,,,,,,,,,,,,,,,,,,,,,,,
,,,,,,,,,,,,,,,,,607fb8465341fd553409b92b,41,2022-02-12_12h35.23.529,lexical_decision_task_DD,2021.2.3,iPhone,30.3030303,,,,,,,,,,1.333,1,,,,,,,,,,,,,,,0,-0.258163265,-0.311734694,1,0,0,1.333,button_left_main,-0.258163265,-0.311734694,1,0,0,,0,144,144,115,1,MAWNS,HB,old,z,./images/MAWNSHB.png,,,,,,,,,,,,,,,,,,,,,,,,,,,,,,,,,
,,,,,,,,,,,,,,,,,607fb8465341fd553409b92b,41,2022-02-12_12h35.23.529,lexical_decision_task_DD,2021.2.3,iPhone,30.3030303,,,,,,,,,,1.032,1,,,,,,,,,,,,,,,0,-0.313265306,-0.340306122,1,0,0,1.032,button_left_main,-0.313265306,-0.340306122,1,0,0,,0,145,145,156,1,HIXES,C,old,z,./images/HIXES.png,,,,,,,,,,,,,,,,,,,,,,,,,,,,,,,,,
,,,,,,,,,,,,,,,,,607fb8465341fd553409b92b,41,2022-02-12_12h35.23.529,lexical_decision_task_DD,2021.2.3,iPhone,30.3030303,,,,,,,,,,1.8,1,,,,,,,,,,,,,,,0,0.333673469,-0.28622449,1,0,0,1.8,button_right_main,0.333673469,-0.28622449,1,0,0,,0,146,146,17,1,SKIING,LB,old,m,./images/SKIINGLB.png,,,,,,,,,,,,,,,,,,,,,,,,,,,,,,,,,
,,,,,,,,,,,,,,,,,607fb8465341fd553409b92b,41,2022-02-12_12h35.23.529,lexical_decision_task_DD,2021.2.3,iPhone,30.3030303,,,,,,,,,,0.812,1,,,,,,,,,,,,,,,0,0.328571429,-0.281122449,1,0,0,0.812,button_right_main,0.328571429,-0.281122449,1,0,0,,0,147,147,68,1,TORCH,LB,old,m,./images/TORCHLB.png,,,,,,,,,,,,,,,,,,,,,,,,,,,,,,,,,
,,,,,,,,,,,,,,,,,607fb8465341fd553409b92b,41,2022-02-12_12h35.23.529,lexical_decision_task_DD,2021.2.3,iPhone,30.3030303,,,,,,,,,,0.732,1,,,,,,,,,,,,,,,0,0.351020408,-0.255612245,1,0,0,0.732,button_right_main,0.351020408,-0.255612245,1,0,0,,0,148,148,60,1,TWINS,C,old,m,./images/TWINS.png,,,,,,,,,,,,,,,,,,,,,,,,,,,,,,,,,
,,,,,,,,,,,,,,,,,607fb8465341fd553409b92b,41,2022-02-12_12h35.23.529,lexical_decision_task_DD,2021.2.3,iPhone,30.3030303,,,,,,,,,,0.697,1,,,,,,,,,,,,,,,0,0.401020408,-0.249489796,1,0,0,0.697,button_right_main,0.401020408,-0.249489796,1,0,0,,0,149,149,3,1,FINGER,C,old,m,./images/FINGER.png,,,,,,,,,,,,,,,,,,,,,,,,,,,,,,,,,
,,,,,,,,,,,,,,,,,607fb8465341fd553409b92b,41,2022-02-12_12h35.23.529,lexical_decision_task_DD,2021.2.3,iPhone,30.3030303,,,,,,,,,,0.766,1,,,,,,,,,,,,,,,0,0.423469388,-0.243367347,1,0,0,0.766,button_right_main,0.423469388,-0.243367347,1,0,0,,0,150,150,26,1,SMOKER,LB,old,m,./images/SMOKERLB.png,,,,,,,,,,,,,,,,,,,,,,,,,,,,,,,,,
,,,,,,,,,,,,,,,,,607fb8465341fd553409b92b,41,2022-02-12_12h35.23.529,lexical_decision_task_DD,2021.2.3,iPhone,30.3030303,,,,,,,,,,0.865,1,,,,,,,,,,,,,,,0,-0.316326531,-0.333163265,1,0,0,0.865,button_left_main,-0.316326531,-0.333163265,1,0,0,,0,151,151,105,1,MOKER,C,old,z,./images/MOKER.png,,,,,,,,,,,,,,,,,,,,,,,,,,,,,,,,,
,,,,,,,,,,,,,,,,,607fb8465341fd553409b92b,41,2022-02-12_12h35.23.529,lexical_decision_task_DD,2021.2.3,iPhone,30.3030303,,,,,,,,,,0.865,1,,,,,,,,,,,,,,,0,-0.297959184,-0.325,1,0,0,0.865,button_left_main,-0.297959184,-0.325,1,0,0,,0,152,152,92,1,PAIMS,LB,old,z,./images/PAIMSLB.png,,,,,,,,,,,,,,,,,,,,,,,,,,,,,,,,,
,,,,,,,,,,,,,,,,,607fb8465341fd553409b92b,41,2022-02-12_12h35.23.529,lexical_decision_task_DD,2021.2.3,iPhone,30.3030303,,,,,,,,,,1.201,1,,,,,,,,,,,,,,,0,-0.283673469,-0.338265306,1,0,0,1.201,button_left_main,-0.283673469,-0.338265306,1,0,0,,0,153,153,138,1,PLICE,C,old,z,./images/PLICE.png,,,,,,,,,,,,,,,,,,,,,,,,,,,,,,,,,
,,,,,,,,,,,,,,,,,607fb8465341fd553409b92b,41,2022-02-12_12h35.23.529,lexical_decision_task_DD,2021.2.3,iPhone,30.3030303,,,,,,,,,,1.3,1,,,,,,,,,,,,,,,0,-0.268367347,-0.330102041,1,0,0,1.3,button_left_main,-0.268367347,-0.330102041,1,0,0,,0,154,154,149,1,VEASE,LB,old,z,./images/VEASELB.png,,,,,,,,,,,,,,,,,,,,,,,,,,,,,,,,,
,,,,,,,,,,,,,,,,,607fb8465341fd553409b92b,41,2022-02-12_12h35.23.529,lexical_decision_task_DD,2021.2.3,iPhone,30.3030303,,,,,,,,,,1.469,1,,,,,,,,,,,,,,,0,-0.27755102,-0.327040816,1,0,0,1.469,button_left_main,-0.27755102,-0.327040816,1,0,0,,0,155,155,121,1,CEERS,HB,old,z,./images/CEERSHB.png,,,,,,,,,,,,,,,,,,,,,,,,,,,,,,,,,
,,,,,,,,,,,,,,,,,607fb8465341fd553409b92b,41,2022-02-12_12h35.23.529,lexical_decision_task_DD,2021.2.3,iPhone,30.3030303,,,,,,,,,,0.98,1,,,,,,,,,,,,,,,0,0.347959184,-0.312755102,1,0,0,0.98,button_right_main,0.347959184,-0.312755102,1,0,0,,0,156,156,47,1,BERRY,LB,old,m,./images/BERRYLB.png,,,,,,,,,,,,,,,,,,,,,,,,,,,,,,,,,
,,,,,,,,,,,,,,,,,607fb8465341fd553409b92b,41,2022-02-12_12h35.23.529,lexical_decision_task_DD,2021.2.3,iPhone,30.3030303,,,,,,,,,,0.899,1,,,,,,,,,,,,,,,0,-0.289795918,-0.306632653,1,0,0,0.899,button_left_main,-0.289795918,-0.306632653,1,0,0,,0,157,157,163,1,GAMBA,HB,old,z,./images/GAMBAHB.png,,,,,,,,,,,,,,,,,,,,,,,,,,,,,,,,,
,,,,,,,,,,,,,,,,,607fb8465341fd553409b92b,41,2022-02-12_12h35.23.529,lexical_decision_task_DD,2021.2.3,iPhone,30.3030303,,,,,,,,,,1.447,1,,,,,,,,,,,,,,,0,0.380612245,-0.265816327,1,0,0,1.447,button_right_main,0.380612245,-0.265816327,1,0,0,,0,158,158,28,1,FALCON,HB,old,m,./images/FALCONHB.png,,,,,,,,,,,,,,,,,,,,,,,,,,,,,,,,,
,,,,,,,,,,,,,,,,,607fb8465341fd553409b92b,41,2022-02-12_12h35.23.529,lexical_decision_task_DD,2021.2.3,iPhone,30.3030303,,,,,,,,,,0.867,1,,,,,,,,,,,,,,,0,-0.284693878,-0.293367347,1,0,0,0.867,button_left_main,-0.284693878,-0.293367347,1,0,0,,0,159,159,126,1,GUELS,C,old,z,./images/GUELS.png,,,,,,,,,,,,,,,,,,,,,,,,,,,,,,,,,
,,,,,,,,,,,,,,,,,607fb8465341fd553409b92b,41,2022-02-12_12h35.23.529,lexical_decision_task_DD,2021.2.3,iPhone,30.3030303,,,,,,,,,,0.845,1,,,,,,,,,,,,,,,0,0.391836735,-0.240306122,1,0,0,0.845,button_right_main,0.391836735,-0.240306122,1,0,0,,0,160,160,27,1,ATTIC,C,old,m,./images/ATTIC.png,,,,,,,,,,,,,,,,,,,,,,,,,,,,,,,,,
,,,,,,,,,,,,,,,,,607fb8465341fd553409b92b,41,2022-02-12_12h35.23.529,lexical_decision_task_DD,2021.2.3,iPhone,30.3030303,,,,,,,,,,0.842,1,,,,,,,,,,,,,,,0,-0.289795918,-0.311734694,1,0,0,0.842,button_left_main,-0.289795918,-0.311734694,1,0,0,,0,161,161,96,1,KEAMS,C,old,z,./images/KEAMS.png,,,,,,,,,,,,,,,,,,,,,,,,,,,,,,,,,
,,,,,,,,,,,,,,,,,607fb8465341fd553409b92b,41,2022-02-12_12h35.23.529,lexical_decision_task_DD,2021.2.3,iPhone,30.3030303,,,,,,,,,,1.148,1,,,,,,,,,,,,,,,0,-0.269387755,-0.316836735,1,0,0,1.148,button_left_main,-0.269387755,-0.316836735,1,0,0,,0,162,162,155,1,CANGY,LB,old,z,./images/CANGYLB.png,,,,,,,,,,,,,,,,,,,,,,,,,,,,,,,,,
,,,,,,,,,,,,,,,,,607fb8465341fd553409b92b,41,2022-02-12_12h35.23.529,lexical_decision_task_DD,2021.2.3,iPhone,30.3030303,,,,,,,,,,0.812,1,,,,,,,,,,,,,,,0,-0.270408163,-0.321938776,1,0,0,0.812,button_left_main,-0.270408163,-0.321938776,1,0,0,,0,163,163,107,1,FASKS,LB,old,z,./images/FASKSLB.png,,,,,,,,,,,,,,,,,,,,,,,,,,,,,,,,,
,,,,,,,,,,,,,,,,,607fb8465341fd553409b92b,41,2022-02-12_12h35.23.529,lexical_decision_task_DD,2021.2.3,iPhone,30.3030303,,,,,,,,,,0.735,1,,,,,,,,,,,,,,,0,-0.269387755,-0.314795918,1,0,0,0.735,button_left_main,-0.269387755,-0.314795918,1,0,0,,0,164,164,119,1,PAFER,LB,old,z,./images/PAFERLB.png,,,,,,,,,,,,,,,,,,,,,,,,,,,,,,,,,
,,,,,,,,,,,,,,,,,607fb8465341fd553409b92b,41,2022-02-12_12h35.23.529,lexical_decision_task_DD,2021.2.3,iPhone,30.3030303,,,,,,,,,,0.7,1,,,,,,,,,,,,,,,0,-0.251020408,-0.326020408,1,0,0,0.7,button_left_main,-0.251020408,-0.326020408,1,0,0,,0,165,165,165,1,TROWN,C,old,z,./images/TROWN.png,,,,,,,,,,,,,,,,,,,,,,,,,,,,,,,,,
,,,,,,,,,,,,,,,,,607fb8465341fd553409b92b,41,2022-02-12_12h35.23.529,lexical_decision_task_DD,2021.2.3,iPhone,30.3030303,,,,,,,,,,0.911,1,,,,,,,,,,,,,,,0,-0.28877551,-0.322959184,1,0,0,0.911,button_left_main,-0.28877551,-0.322959184,1,0,0,,0,166,166,167,1,ZONET,LB,old,z,./images/ZONETLB.png,,,,,,,,,,,,,,,,,,,,,,,,,,,,,,,,,
,,,,,,,,,,,,,,,,,607fb8465341fd553409b92b,41,2022-02-12_12h35.23.529,lexical_decision_task_DD,2021.2.3,iPhone,30.3030303,,,,,,,,,,1.648,1,,,,,,,,,,,,,,,0,0.483673469,-0.275,1,0,0,1.648,button_right_main,0.483673469,-0.275,1,0,0,,0,167,167,82,1,SUNSET,HB,old,m,./images/SUNSETHB.png,,,,,,,,,,,,,,,,,,,,,,,,,,,,,,,,,
,,,,,,,,,,,,,,,,,607fb8465341fd553409b92b,41,2022-02-12_12h35.23.529,lexical_decision_task_DD,2021.2.3,iPhone,30.3030303,,,,,,,,,,,,,,,,,,,,,,,,,,,,,,,,,,,,,,,,,,,,,,How likely will it be that you will recognize the words presented slighly blurred on a scale of 0 (not likely) to 100 (most likely)?,,,,,0.026530612,-0.423979592,1,0,0,jol_adv,6,14.545,0,0,0,1,1,,,,,,,,,,,,,,,,,,,
,,,,,,,,,,,,,,,,,607fb8465341fd553409b92b,41,2022-02-12_12h35.23.529,lexical_decision_task_DD,2021.2.3,iPhone,30.3030303,,,,,,,,,,,,,,,,,,,,,,,,,,,,,,,,,,,,,,,,,,,,,,How likely will it be that you will recognize the words presented very blurred on a scale of 0 (not likely) to 100 (most likely)?,,,,,,,,,,,5,6.273,0,1,1,2,1,,,,,,,,,,,,,,,,,,,
,,,,,,,,,,,,,,,,,607fb8465341fd553409b92b,41,2022-02-12_12h35.23.529,lexical_decision_task_DD,2021.2.3,iPhone,30.3030303,,,,,,,,,,,,,,,,,,,,,,,,,,,,,,,,,,,,,,,,,,,,,,How likely will it be that you will recognize the words presented clearly on a scale of 0 (not likely) to 100 (most likely)?,,,,,,,,,,,5,14.989,0,2,2,0,1,,,,,,,,,,,,,,,,,,,
,0.073469388,-0.410714286,1,0,0,instr_done_button,,,,,,1,test,"In the next phase you will be presented with the words from the the first phase. Your job is to decide whether you remember seeing the word or not. If you remember seeing the word press ""old"" or type ""m"". If you do not remember seeing the word press ""new"" or type ""z"". Please press the space bar or click on continue to begin. ",,,607fb8465341fd553409b92b,41,2022-02-12_12h35.23.529,lexical_decision_task_DD,2021.2.3,iPhone,30.3030303,,,,,,,,,,,,,,,,,,,,,,,,,,,,,,,,,,,,,,,,,,,,,,,,,,,,,,,,,,,,,,,,0,0,0,0,1,,,,,,,,,,,,,,
,0.058163265,-0.406632653,1,0,0,instr_done_button,,,,,,1,test,"In the next phase you will be presented with the words from the the first phase. Your job is to decide whether you remember seeing the word or not. If you remember seeing the word press ""old"" or type ""m"". If you do not remember seeing the word press ""new"" or type ""z"". Please press the space bar or click on continue to begin. ",,,607fb8465341fd553409b92b,41,2022-02-12_12h35.23.529,lexical_decision_task_DD,2021.2.3,iPhone,30.3030303,,,,,,,,,,,,,,,,,,,,,,,,,,,,,,,,,,,,,,,,,,,,,,,,,,,,,,,,,,,,,,,,1,0,1,0,1,,,,,,,,,,,,,,
,0.005102041,-0.409693878,1,0,0,instr_done_button,,,,,,1,test,"In the next phase you will be presented with the words from the the first phase. Your job is to decide whether you remember seeing the word or not. If you remember seeing the word press ""old"" or type ""m"". If you do not remember seeing the word press ""new"" or type ""z"". Please press the space bar or click on continue to begin. ",,,607fb8465341fd553409b92b,41,2022-02-12_12h35.23.529,lexical_decision_task_DD,2021.2.3,iPhone,30.3030303,,,,,,,,,,,,,,,,,,,,,,,,,,,,,,,,,,,,,,,,,,,,,,,,,,,,,,,,,,,,,,,,2,0,2,0,1,,,,,,,,,,,,,,
,0.048979592,-0.381122449,1,0,0,instr_done_button,,,,,,1,test,"In the next phase you will be presented with the words from the the first phase. Your job is to decide whether you remember seeing the word or not. If you remember seeing the word press ""old"" or type ""m"". If you do not remember seeing the word press ""new"" or type ""z"". Please press the space bar or click on continue to begin. ",,,607fb8465341fd553409b92b,41,2022-02-12_12h35.23.529,lexical_decision_task_DD,2021.2.3,iPhone,30.3030303,,,,,,,,,,,,,,,,,,,,,,,,,,,,,,,,,,,,,,,,,,,,,,,,,,,,,,,,,,,,,,,,3,0,3,0,1,,,,,,,,,,,,,,
,0.030612245,-0.412755102,1,0,0,instr_done_button,,,,,,1,test,"In the next phase you will be presented with the words from the the first phase. Your job is to decide whether you remember seeing the word or not. If you remember seeing the word press ""old"" or type ""m"". If you do not remember seeing the word press ""new"" or type ""z"". Please press the space bar or click on continue to begin. ",,,607fb8465341fd553409b92b,41,2022-02-12_12h35.23.529,lexical_decision_task_DD,2021.2.3,iPhone,30.3030303,,,,,,,,,,,,,,,,,,,,,,,,,,,,,,,,,,,,,,,,,,,,,,,,,,,,,,,,,,,,,,,,4,0,4,0,1,,,,,,,,,,,,,,
,,,,,,,,,,,,,,,,,607fb8465341fd553409b92b,41,2022-02-12_12h35.23.529,lexical_decision_task_DD,2021.2.3,iPhone,30.3030303,,,,,,,,,,2.63,1,,,,,,,,,,,,,,,,,,,,,,,0.367346939,-0.287244898,1,0,0,,,,,,,PENCE,HB,m,m,./images/PENCEHB.png,,,,,,,,,,,,,,,,,,,,,0,0.367346939,-0.287244898,1,0,0,2.63,button_right_test,0,0,0,16,1
,,,,,,,,,,,,,,,,,607fb8465341fd553409b92b,41,2022-02-12_12h35.23.529,lexical_decision_task_DD,2021.2.3,iPhone,30.3030303,,,,,,,,,,1.578,1,,,,,,,,,,,,,,,,,,,,,,,-0.309183673,-0.296428571,1,0,0,,,,,,,SNAKE,HB,z,m,./images/SNAKEHB.png,,,,,,,,,,,,,,,,,,,,,0,-0.309183673,-0.296428571,1,0,0,1.578,button_left_test,0,1,1,124,1
,,,,,,,,,,,,,,,,,607fb8465341fd553409b92b,41,2022-02-12_12h35.23.529,lexical_decision_task_DD,2021.2.3,iPhone,30.3030303,,,,,,,,,,1.313,1,,,,,,,,,,,,,,,,,,,,,,,0.433673469,-0.288265306,1,0,0,,,,,,,JUNGLE,LB,m,m,./images/JUNGLELB.png,,,,,,,,,,,,,,,,,,,,,0,0.433673469,-0.288265306,1,0,0,1.313,button_right_test,0,2,2,83,1
,,,,,,,,,,,,,,,,,607fb8465341fd553409b92b,41,2022-02-12_12h35.23.529,lexical_decision_task_DD,2021.2.3,iPhone,30.3030303,,,,,,,,,,1.599,0,,,,,,,,,,,,,,,,,,,,,,,0.405102041,-0.30255102,1,0,0,,,,,,,PARADE,LB,z,m,./images/PARADELB.png,,,,,,,,,,,,,,,,,,,,,0,0.405102041,-0.30255102,1,0,0,1.599,button_right_test,0,3,3,101,1
,,,,,,,,,,,,,,,,,607fb8465341fd553409b92b,41,2022-02-12_12h35.23.529,lexical_decision_task_DD,2021.2.3,iPhone,30.3030303,,,,,,,,,,2.049,1,,,,,,,,,,,,,,,,,,,,,,,-0.3,-0.294387755,1,0,0,,,,,,,PARCEL,C,z,m,./images/PARCEL.png,,,,,,,,,,,,,,,,,,,,,0,-0.3,-0.294387755,1,0,0,2.049,button_left_test,0,4,4,102,1
,,,,,,,,,,,,,,,,,607fb8465341fd553409b92b,41,2022-02-12_12h35.23.529,lexical_decision_task_DD,2021.2.3,iPhone,30.3030303,,,,,,,,,,1.298,1,,,,,,,,,,,,,,,,,,,,,,,0.410204082,-0.290306122,1,0,0,,,,,,,THROAT,C,m,m,./images/THROAT.png,,,,,,,,,,,,,,,,,,,,,0,0.410204082,-0.290306122,1,0,0,1.298,button_right_test,0,5,5,36,1
,,,,,,,,,,,,,,,,,607fb8465341fd553409b92b,41,2022-02-12_12h35.23.529,lexical_decision_task_DD,2021.2.3,iPhone,30.3030303,,,,,,,,,,1.244,1,,,,,,,,,,,,,,,,,,,,,,,0.380612245,-0.30255102,1,0,0,,,,,,,WRIST,HB,m,m,./images/WRISTHB.png,,,,,,,,,,,,,,,,,,,,,0,0.380612245,-0.30255102,1,0,0,1.244,button_right_test,0,6,6,25,1
,,,,,,,,,,,,,,,,,607fb8465341fd553409b92b,41,2022-02-12_12h35.23.529,lexical_decision_task_DD,2021.2.3,iPhone,30.3030303,,,,,,,,,,0.798,1,,,,,,,,,,,,,,,,,,,,,,,0.424489796,-0.279081633,1,0,0,,,,,,,FARMER,LB,m,m,./images/FARMERLB.png,,,,,,,,,,,,,,,,,,,,,0,0.424489796,-0.279081633,1,0,0,0.798,button_right_test,0,7,7,65,1
,,,,,,,,,,,,,,,,,607fb8465341fd553409b92b,41,2022-02-12_12h35.23.529,lexical_decision_task_DD,2021.2.3,iPhone,30.3030303,,,,,,,,,,0.912,0,,,,,,,,,,,,,,,,,,,,,,,0.431632653,-0.267857143,1,0,0,,,,,,,DIVER,C,z,m,./images/DIVER.png,,,,,,,,,,,,,,,,,,,,,0,0.431632653,-0.267857143,1,0,0,0.912,button_right_test,0,8,8,93,1
,,,,,,,,,,,,,,,,,607fb8465341fd553409b92b,41,2022-02-12_12h35.23.529,lexical_decision_task_DD,2021.2.3,iPhone,30.3030303,,,,,,,,,,0.899,1,,,,,,,,,,,,,,,,,,,,,,,0.471428571,-0.273979592,1,0,0,,,,,,,TULIP,LB,m,m,./images/TULIPLB.png,,,,,,,,,,,,,,,,,,,,,0,0.471428571,-0.273979592,1,0,0,0.899,button_right_test,0,9,9,8,1
,,,,,,,,,,,,,,,,,607fb8465341fd553409b92b,41,2022-02-12_12h35.23.529,lexical_decision_task_DD,2021.2.3,iPhone,30.3030303,,,,,,,,,,0.767,1,,,,,,,,,,,,,,,,,,,,,,,0.437755102,-0.273979592,1,0,0,,,,,,,BABOON,HB,m,m,./images/BABOONHB.png,,,,,,,,,,,,,,,,,,,,,0,0.437755102,-0.273979592,1,0,0,0.767,button_right_test,0,10,10,58,1
,,,,,,,,,,,,,,,,,607fb8465341fd553409b92b,41,2022-02-12_12h35.23.529,lexical_decision_task_DD,2021.2.3,iPhone,30.3030303,,,,,,,,,,0.713,1,,,,,,,,,,,,,,,,,,,,,,,0.430612245,-0.271938776,1,0,0,,,,,,,SWEAT,C,m,m,./images/SWEAT.png,,,,,,,,,,,,,,,,,,,,,0,0.430612245,-0.271938776,1,0,0,0.713,button_right_test,0,11,11,66,1
,,,,,,,,,,,,,,,,,607fb8465341fd553409b92b,41,2022-02-12_12h35.23.529,lexical_decision_task_DD,2021.2.3,iPhone,30.3030303,,,,,,,,,,0.665,0,,,,,,,,,,,,,,,,,,,,,,,0.412244898,-0.277040816,1,0,0,,,,,,,POKER,HB,z,m,./images/POKERHB.png,,,,,,,,,,,,,,,,,,,,,0,0.412244898,-0.277040816,1,0,0,0.665,button_right_test,0,12,12,151,1
,,,,,,,,,,,,,,,,,607fb8465341fd553409b92b,41,2022-02-12_12h35.23.529,lexical_decision_task_DD,2021.2.3,iPhone,30.3030303,,,,,,,,,,0.978,0,,,,,,,,,,,,,,,,,,,,,,,0.414285714,-0.277040816,1,0,0,,,,,,,BRIDE,HB,z,m,./images/BRIDEHB.png,,,,,,,,,,,,,,,,,,,,,0,0.414285714,-0.277040816,1,0,0,0.978,button_right_test,0,13,13,148,1
,,,,,,,,,,,,,,,,,607fb8465341fd553409b92b,41,2022-02-12_12h35.23.529,lexical_decision_task_DD,2021.2.3,iPhone,30.3030303,,,,,,,,,,0.864,1,,,,,,,,,,,,,,,,,,,,,,,0.417346939,-0.279081633,1,0,0,,,,,,,MOSQUE,HB,m,m,./images/MOSQUEHB.png,,,,,,,,,,,,,,,,,,,,,0,0.417346939,-0.279081633,1,0,0,0.864,button_right_test,0,14,14,43,1
,,,,,,,,,,,,,,,,,607fb8465341fd553409b92b,41,2022-02-12_12h35.23.529,lexical_decision_task_DD,2021.2.3,iPhone,30.3030303,,,,,,,,,,0.979,0,,,,,,,,,,,,,,,,,,,,,,,0.413265306,-0.280102041,1,0,0,,,,,,,STOVE,LB,z,m,./images/STOVELB.png,,,,,,,,,,,,,,,,,,,,,0,0.413265306,-0.280102041,1,0,0,0.979,button_right_test,0,15,15,86,1
,,,,,,,,,,,,,,,,,607fb8465341fd553409b92b,41,2022-02-12_12h35.23.529,lexical_decision_task_DD,2021.2.3,iPhone,30.3030303,,,,,,,,,,0.733,1,,,,,,,,,,,,,,,,,,,,,,,0.413265306,-0.281122449,1,0,0,,,,,,,MUSCLE,HB,m,m,./images/MUSCLEHB.png,,,,,,,,,,,,,,,,,,,,,0,0.413265306,-0.281122449,1,0,0,0.733,button_right_test,0,16,16,4,1
,,,,,,,,,,,,,,,,,607fb8465341fd553409b92b,41,2022-02-12_12h35.23.529,lexical_decision_task_DD,2021.2.3,iPhone,30.3030303,,,,,,,,,,0.697,1,,,,,,,,,,,,,,,,,,,,,,,0.408163265,-0.283163265,1,0,0,,,,,,,TWINS,C,m,m,./images/TWINS.png,,,,,,,,,,,,,,,,,,,,,0,0.408163265,-0.283163265,1,0,0,0.697,button_right_test,0,17,17,60,1
,,,,,,,,,,,,,,,,,607fb8465341fd553409b92b,41,2022-02-12_12h35.23.529,lexical_decision_task_DD,2021.2.3,iPhone,30.3030303,,,,,,,,,,0.78,1,,,,,,,,,,,,,,,,,,,,,,,0.416326531,-0.281122449,1,0,0,,,,,,,CRUST,HB,m,m,./images/CRUSTHB.png,,,,,,,,,,,,,,,,,,,,,0,0.416326531,-0.281122449,1,0,0,0.78,button_right_test,0,18,18,79,1
,,,,,,,,,,,,,,,,,607fb8465341fd553409b92b,41,2022-02-12_12h35.23.529,lexical_decision_task_DD,2021.2.3,iPhone,30.3030303,,,,,,,,,,0.979,1,,,,,,,,,,,,,,,,,,,,,,,0.409183673,-0.28622449,1,0,0,,,,,,,FALCON,HB,m,m,./images/FALCONHB.png,,,,,,,,,,,,,,,,,,,,,0,0.409183673,-0.28622449,1,0,0,0.979,button_right_test,0,19,19,28,1
,,,,,,,,,,,,,,,,,607fb8465341fd553409b92b,41,2022-02-12_12h35.23.529,lexical_decision_task_DD,2021.2.3,iPhone,30.3030303,,,,,,,,,,1.833,1,,,,,,,,,,,,,,,,,,,,,,,-0.336734694,-0.315816327,1,0,0,,,,,,,BOILER,C,z,m,./images/BOILER.png,,,,,,,,,,,,,,,,,,,,,0,-0.336734694,-0.315816327,1,0,0,1.833,button_left_test,0,20,20,120,1
,,,,,,,,,,,,,,,,,607fb8465341fd553409b92b,41,2022-02-12_12h35.23.529,lexical_decision_task_DD,2021.2.3,iPhone,30.3030303,,,,,,,,,,0.709,1,,,,,,,,,,,,,,,,,,,,,,,0.339795918,-0.306632653,1,0,0,,,,,,,SMOKER,LB,m,m,./images/SMOKERLB.png,,,,,,,,,,,,,,,,,,,,,0,0.339795918,-0.306632653,1,0,0,0.709,button_right_test,0,21,21,26,1
,,,,,,,,,,,,,,,,,607fb8465341fd553409b92b,41,2022-02-12_12h35.23.529,lexical_decision_task_DD,2021.2.3,iPhone,30.3030303,,,,,,,,,,1.8,0,,,,,,,,,,,,,,,,,,,,,,,-0.294897959,-0.289285714,1,0,0,,,,,,,PASTA,LB,m,m,./images/PASTALB.png,,,,,,,,,,,,,,,,,,,,,0,-0.294897959,-0.289285714,1,0,0,1.8,button_left_test,0,22,22,5,1
,,,,,,,,,,,,,,,,,607fb8465341fd553409b92b,41,2022-02-12_12h35.23.529,lexical_decision_task_DD,2021.2.3,iPhone,30.3030303,,,,,,,,,,0.779,1,,,,,,,,,,,,,,,,,,,,,,,0.320408163,-0.29744898,1,0,0,,,,,,,BIRTH,HB,m,m,./images/BIRTHHB.png,,,,,,,,,,,,,,,,,,,,,0,0.320408163,-0.29744898,1,0,0,0.779,button_right_test,0,23,23,37,1
,,,,,,,,,,,,,,,,,607fb8465341fd553409b92b,41,2022-02-12_12h35.23.529,lexical_decision_task_DD,2021.2.3,iPhone,30.3030303,,,,,,,,,,0.664,0,,,,,,,,,,,,,,,,,,,,,,,0.328571429,-0.301530612,1,0,0,,,,,,,FENCE,LB,z,m,./images/FENCELB.png,,,,,,,,,,,,,,,,,,,,,0,0.328571429,-0.301530612,1,0,0,0.664,button_right_test,0,24,24,98,1
,,,,,,,,,,,,,,,,,607fb8465341fd553409b92b,41,2022-02-12_12h35.23.529,lexical_decision_task_DD,2021.2.3,iPhone,30.3030303,,,,,,,,,,2.001,1,,,,,,,,,,,,,,,,,,,,,,,-0.296938776,-0.327040816,1,0,0,,,,,,,CHALK,HB,z,m,./images/CHALKHB.png,,,,,,,,,,,,,,,,,,,,,0,-0.296938776,-0.327040816,1,0,0,2.001,button_left_test,0,25,25,109,1
,,,,,,,,,,,,,,,,,607fb8465341fd553409b92b,41,2022-02-12_12h35.23.529,lexical_decision_task_DD,2021.2.3,iPhone,30.3030303,,,,,,,,,,2.381,0,,,,,,,,,,,,,,,,,,,,,,,0.389795918,-0.281122449,1,0,0,,,,,,,JUMPER,LB,z,m,./images/JUMPERLB.png,,,,,,,,,,,,,,,,,,,,,0,0.389795918,-0.281122449,1,0,0,2.381,button_right_test,0,26,26,158,1
,,,,,,,,,,,,,,,,,607fb8465341fd553409b92b,41,2022-02-12_12h35.23.529,lexical_decision_task_DD,2021.2.3,iPhone,30.3030303,,,,,,,,,,0.631,1,,,,,,,,,,,,,,,,,,,,,,,0.393877551,-0.280102041,1,0,0,,,,,,,CARPET,LB,m,m,./images/CARPETLB.png,,,,,,,,,,,,,,,,,,,,,0,0.393877551,-0.280102041,1,0,0,0.631,button_right_test,0,27,27,53,1
,,,,,,,,,,,,,,,,,607fb8465341fd553409b92b,41,2022-02-12_12h35.23.529,lexical_decision_task_DD,2021.2.3,iPhone,30.3030303,,,,,,,,,,1.346,1,,,,,,,,,,,,,,,,,,,,,,,-0.316326531,-0.307653061,1,0,0,,,,,,,SLOPE,C,z,m,./images/SLOPE.png,,,,,,,,,,,,,,,,,,,,,0,-0.316326531,-0.307653061,1,0,0,1.346,button_left_test,0,28,28,114,1
,,,,,,,,,,,,,,,,,607fb8465341fd553409b92b,41,2022-02-12_12h35.23.529,lexical_decision_task_DD,2021.2.3,iPhone,30.3030303,,,,,,,,,,2.316,1,,,,,,,,,,,,,,,,,,,,,,,-0.283673469,-0.296428571,1,0,0,,,,,,,STATUE,C,z,m,./images/STATUE.png,,,,,,,,,,,,,,,,,,,,,0,-0.283673469,-0.296428571,1,0,0,2.316,button_left_test,0,29,29,150,1
,,,,,,,,,,,,,,,,,607fb8465341fd553409b92b,41,2022-02-12_12h35.23.529,lexical_decision_task_DD,2021.2.3,iPhone,30.3030303,,,,,,,,,,0.879,1,,,,,,,,,,,,,,,,,,,,,,,0.401020408,-0.267857143,1,0,0,,,,,,,LIZARD,LB,m,m,./images/LIZARDLB.png,,,,,,,,,,,,,,,,,,,,,0,0.401020408,-0.267857143,1,0,0,0.879,button_right_test,0,30,30,44,1
,,,,,,,,,,,,,,,,,607fb8465341fd553409b92b,41,2022-02-12_12h35.23.529,lexical_decision_task_DD,2021.2.3,iPhone,30.3030303,,,,,,,,,,1.211,1,,,,,,,,,,,,,,,,,,,,,,,0.436734694,-0.273979592,1,0,0,,,,,,,BANNER,HB,m,m,./images/BANNERHB.png,,,,,,,,,,,,,,,,,,,,,0,0.436734694,-0.273979592,1,0,0,1.211,button_right_test,0,31,31,52,1
,,,,,,,,,,,,,,,,,607fb8465341fd553409b92b,41,2022-02-12_12h35.23.529,lexical_decision_task_DD,2021.2.3,iPhone,30.3030303,,,,,,,,,,2.035,1,,,,,,,,,,,,,,,,,,,,,,,0.4,-0.288265306,1,0,0,,,,,,,BELLY,HB,m,m,./images/BELLYHB.png,,,,,,,,,,,,,,,,,,,,,0,0.4,-0.288265306,1,0,0,2.035,button_right_test,0,32,32,10,1
,,,,,,,,,,,,,,,,,607fb8465341fd553409b92b,41,2022-02-12_12h35.23.529,lexical_decision_task_DD,2021.2.3,iPhone,30.3030303,,,,,,,,,,0.799,1,,,,,,,,,,,,,,,,,,,,,,,0.447959184,-0.275,1,0,0,,,,,,,SPORT,C,m,m,./images/SPORT.png,,,,,,,,,,,,,,,,,,,,,0,0.447959184,-0.275,1,0,0,0.799,button_right_test,0,33,33,48,1
,,,,,,,,,,,,,,,,,607fb8465341fd553409b92b,41,2022-02-12_12h35.23.529,lexical_decision_task_DD,2021.2.3,iPhone,30.3030303,,,,,,,,,,0.833,1,,,,,,,,,,,,,,,,,,,,,,,0.462244898,-0.269897959,1,0,0,,,,,,,WALRUS,LB,m,m,./images/WALRUSLB.png,,,,,,,,,,,,,,,,,,,,,0,0.462244898,-0.269897959,1,0,0,0.833,button_right_test,0,34,34,23,1
,,,,,,,,,,,,,,,,,607fb8465341fd553409b92b,41,2022-02-12_12h35.23.529,lexical_decision_task_DD,2021.2.3,iPhone,30.3030303,,,,,,,,,,2.047,0,,,,,,,,,,,,,,,,,,,,,,,0.459183673,-0.268877551,1,0,0,,,,,,,SHIELD,C,z,m,./images/SHIELD.png,,,,,,,,,,,,,,,,,,,,,0,0.459183673,-0.268877551,1,0,0,2.047,button_right_test,0,35,35,132,1
,,,,,,,,,,,,,,,,,607fb8465341fd553409b92b,41,2022-02-12_12h35.23.529,lexical_decision_task_DD,2021.2.3,iPhone,30.3030303,,,,,,,,,,2.804,1,,,,,,,,,,,,,,,,,,,,,,,0.385714286,-0.300510204,1,0,0,,,,,,,PACKET,LB,m,m,./images/PACKETLB.png,,,,,,,,,,,,,,,,,,,,,0,0.385714286,-0.300510204,1,0,0,2.804,button_right_test,0,36,36,56,1
,,,,,,,,,,,,,,,,,607fb8465341fd553409b92b,41,2022-02-12_12h35.23.529,lexical_decision_task_DD,2021.2.3,iPhone,30.3030303,,,,,,,,,,1.046,1,,,,,,,,,,,,,,,,,,,,,,,0.416326531,-0.281122449,1,0,0,,,,,,,SQUARE,C,m,m,./images/SQUARE.png,,,,,,,,,,,,,,,,,,,,,0,0.416326531,-0.281122449,1,0,0,1.046,button_right_test,0,37,37,6,1
,,,,,,,,,,,,,,,,,607fb8465341fd553409b92b,41,2022-02-12_12h35.23.529,lexical_decision_task_DD,2021.2.3,iPhone,30.3030303,,,,,,,,,,0.866,1,,,,,,,,,,,,,,,,,,,,,,,0.421428571,-0.282142857,1,0,0,,,,,,,STRING,LB,m,m,./images/STRINGLB.png,,,,,,,,,,,,,,,,,,,,,0,0.421428571,-0.282142857,1,0,0,0.866,button_right_test,0,38,38,41,1
,,,,,,,,,,,,,,,,,607fb8465341fd553409b92b,41,2022-02-12_12h35.23.529,lexical_decision_task_DD,2021.2.3,iPhone,30.3030303,,,,,,,,,,0.746,1,,,,,,,,,,,,,,,,,,,,,,,0.414285714,-0.289285714,1,0,0,,,,,,,CEMENT,LB,m,m,./images/CEMENTLB.png,,,,,,,,,,,,,,,,,,,,,0,0.414285714,-0.289285714,1,0,0,0.746,button_right_test,0,39,39,74,1
,,,,,,,,,,,,,,,,,607fb8465341fd553409b92b,41,2022-02-12_12h35.23.529,lexical_decision_task_DD,2021.2.3,iPhone,30.3030303,,,,,,,,,,0.765,1,,,,,,,,,,,,,,,,,,,,,,,0.419387755,-0.284183673,1,0,0,,,,,,,MUFFIN,HB,m,m,./images/MUFFINHB.png,,,,,,,,,,,,,,,,,,,,,0,0.419387755,-0.284183673,1,0,0,0.765,button_right_test,0,40,40,55,1
,,,,,,,,,,,,,,,,,607fb8465341fd553409b92b,41,2022-02-12_12h35.23.529,lexical_decision_task_DD,2021.2.3,iPhone,30.3030303,,,,,,,,,,0.665,1,,,,,,,,,,,,,,,,,,,,,,,0.065306122,-0.396428571,1,0,0,,,,,,,RHINO,C,m,m,./images/RHINO.png,break_done_button,,,,,,,,,,,,,,,,,,,,0,0.410204082,-0.267857143,1,0,0,0.665,button_right_test,0,41,41,9,1
,,,,,,,,,,,,,,,,,607fb8465341fd553409b92b,41,2022-02-12_12h35.23.529,lexical_decision_task_DD,2021.2.3,iPhone,30.3030303,,,,,,,,,,0.975,1,,,,,,,,,,,,,,,,,,,,,,,0.402040816,-0.28622449,1,0,0,,,,,,,BEARD,LB,m,m,./images/BEARDLB.png,,,,,,,,,,,,,,,,,,,,,0,0.402040816,-0.28622449,1,0,0,0.975,button_right_test,0,42,42,2,1
,,,,,,,,,,,,,,,,,607fb8465341fd553409b92b,41,2022-02-12_12h35.23.529,lexical_decision_task_DD,2021.2.3,iPhone,30.3030303,,,,,,,,,,0.899,0,,,,,,,,,,,,,,,,,,,,,,,0.396938776,-0.266836735,1,0,0,,,,,,,FERRY,C,z,m,./images/FERRY.png,,,,,,,,,,,,,,,,,,,,,0,0.396938776,-0.266836735,1,0,0,0.899,button_right_test,0,43,43,141,1
,,,,,,,,,,,,,,,,,607fb8465341fd553409b92b,41,2022-02-12_12h35.23.529,lexical_decision_task_DD,2021.2.3,iPhone,30.3030303,,,,,,,,,,0.731,1,,,,,,,,,,,,,,,,,,,,,,,0.393877551,-0.262755102,1,0,0,,,,,,,JELLY,HB,m,m,./images/JELLYHB.png,,,,,,,,,,,,,,,,,,,,,0,0.393877551,-0.262755102,1,0,0,0.731,button_right_test,0,44,44,64,1
,,,,,,,,,,,,,,,,,607fb8465341fd553409b92b,41,2022-02-12_12h35.23.529,lexical_decision_task_DD,2021.2.3,iPhone,30.3030303,,,,,,,,,,3.238,1,,,,,,,,,,,,,,,,,,,,,,,-0.266326531,-0.320918367,1,0,0,,,,,,,CLIFF,LB,z,m,./images/CLIFFLB.png,,,,,,,,,,,,,,,,,,,,,0,-0.266326531,-0.320918367,1,0,0,3.238,button_left_test,0,45,45,92,1
,,,,,,,,,,,,,,,,,607fb8465341fd553409b92b,41,2022-02-12_12h35.23.529,lexical_decision_task_DD,2021.2.3,iPhone,30.3030303,,,,,,,,,,1.113,1,,,,,,,,,,,,,,,,,,,,,,,0.355102041,-0.300510204,1,0,0,,,,,,,NOOSE,C,m,m,./images/NOOSE.png,,,,,,,,,,,,,,,,,,,,,0,0.355102041,-0.300510204,1,0,0,1.113,button_right_test,0,46,46,72,1
,,,,,,,,,,,,,,,,,607fb8465341fd553409b92b,41,2022-02-12_12h35.23.529,lexical_decision_task_DD,2021.2.3,iPhone,30.3030303,,,,,,,,,,0.799,1,,,,,,,,,,,,,,,,,,,,,,,0.371428571,-0.287244898,1,0,0,,,,,,,LITTER,C,m,m,./images/LITTER.png,,,,,,,,,,,,,,,,,,,,,0,0.371428571,-0.287244898,1,0,0,0.799,button_right_test,0,47,47,78,1
,,,,,,,,,,,,,,,,,607fb8465341fd553409b92b,41,2022-02-12_12h35.23.529,lexical_decision_task_DD,2021.2.3,iPhone,30.3030303,,,,,,,,,,2.469,0,,,,,,,,,,,,,,,,,,,,,,,0.401020408,-0.278061224,1,0,0,,,,,,,FLESH,C,z,m,./images/FLESH.png,,,,,,,,,,,,,,,,,,,,,0,0.401020408,-0.278061224,1,0,0,2.469,button_right_test,0,48,48,108,1
,,,,,,,,,,,,,,,,,607fb8465341fd553409b92b,41,2022-02-12_12h35.23.529,lexical_decision_task_DD,2021.2.3,iPhone,30.3030303,,,,,,,,,,2.903,1,,,,,,,,,,,,,,,,,,,,,,,0.408163265,-0.260714286,1,0,0,,,,,,,STORM,C,m,m,./images/STORM.png,,,,,,,,,,,,,,,,,,,,,0,0.408163265,-0.260714286,1,0,0,2.903,button_right_test,0,49,49,30,1
,,,,,,,,,,,,,,,,,607fb8465341fd553409b92b,41,2022-02-12_12h35.23.529,lexical_decision_task_DD,2021.2.3,iPhone,30.3030303,,,,,,,,,,0.911,1,,,,,,,,,,,,,,,,,,,,,,,0.410204082,-0.278061224,1,0,0,,,,,,,TORCH,LB,m,m,./images/TORCHLB.png,,,,,,,,,,,,,,,,,,,,,0,0.410204082,-0.278061224,1,0,0,0.911,button_right_test,0,50,50,68,1
,,,,,,,,,,,,,,,,,607fb8465341fd553409b92b,41,2022-02-12_12h35.23.529,lexical_decision_task_DD,2021.2.3,iPhone,30.3030303,,,,,,,,,,0.765,0,,,,,,,,,,,,,,,,,,,,,,,0.402040816,-0.281122449,1,0,0,,,,,,,BOXER,HB,z,m,./images/BOXERHB.png,,,,,,,,,,,,,,,,,,,,,0,0.402040816,-0.281122449,1,0,0,0.765,button_right_test,0,51,51,88,1
,,,,,,,,,,,,,,,,,607fb8465341fd553409b92b,41,2022-02-12_12h35.23.529,lexical_decision_task_DD,2021.2.3,iPhone,30.3030303,,,,,,,,,,0.744,1,,,,,,,,,,,,,,,,,,,,,,,0.408163265,-0.275,1,0,0,,,,,,,MOTOR,HB,m,m,./images/MOTORHB.png,,,,,,,,,,,,,,,,,,,,,0,0.408163265,-0.275,1,0,0,0.744,button_right_test,0,52,52,13,1
,,,,,,,,,,,,,,,,,607fb8465341fd553409b92b,41,2022-02-12_12h35.23.529,lexical_decision_task_DD,2021.2.3,iPhone,30.3030303,,,,,,,,,,0.707,1,,,,,,,,,,,,,,,,,,,,,,,0.404081633,-0.277040816,1,0,0,,,,,,,PICKLE,LB,m,m,./images/PICKLELB.png,,,,,,,,,,,,,,,,,,,,,0,0.404081633,-0.277040816,1,0,0,0.707,button_right_test,0,53,53,14,1
,,,,,,,,,,,,,,,,,607fb8465341fd553409b92b,41,2022-02-12_12h35.23.529,lexical_decision_task_DD,2021.2.3,iPhone,30.3030303,,,,,,,,,,1.11,1,,,,,,,,,,,,,,,,,,,,,,,-0.290816327,-0.318877551,1,0,0,,,,,,,CANDY,C,z,m,./images/CANDY.png,,,,,,,,,,,,,,,,,,,,,0,-0.290816327,-0.318877551,1,0,0,1.11,button_left_test,0,54,54,123,1
,,,,,,,,,,,,,,,,,607fb8465341fd553409b92b,41,2022-02-12_12h35.23.529,lexical_decision_task_DD,2021.2.3,iPhone,30.3030303,,,,,,,,,,1.034,0,,,,,,,,,,,,,,,,,,,,,,,0.378571429,-0.292346939,1,0,0,,,,,,,ARTIST,HB,z,m,./images/ARTISTHB.png,,,,,,,,,,,,,,,,,,,,,0,0.378571429,-0.292346939,1,0,0,1.034,button_right_test,0,55,55,145,1
,,,,,,,,,,,,,,,,,607fb8465341fd553409b92b,41,2022-02-12_12h35.23.529,lexical_decision_task_DD,2021.2.3,iPhone,30.3030303,,,,,,,,,,0.765,1,,,,,,,,,,,,,,,,,,,,,,,0.390816327,-0.284183673,1,0,0,,,,,,,TRIPOD,C,m,m,./images/TRIPOD.png,,,,,,,,,,,,,,,,,,,,,0,0.390816327,-0.284183673,1,0,0,0.765,button_right_test,0,56,56,54,1
,,,,,,,,,,,,,,,,,607fb8465341fd553409b92b,41,2022-02-12_12h35.23.529,lexical_decision_task_DD,2021.2.3,iPhone,30.3030303,,,,,,,,,,1.267,1,,,,,,,,,,,,,,,,,,,,,,,-0.321428571,-0.298469388,1,0,0,,,,,,,SAUCE,C,z,m,./images/SAUCE.png,,,,,,,,,,,,,,,,,,,,,0,-0.321428571,-0.298469388,1,0,0,1.267,button_left_test,0,57,57,135,1
,,,,,,,,,,,,,,,,,607fb8465341fd553409b92b,41,2022-02-12_12h35.23.529,lexical_decision_task_DD,2021.2.3,iPhone,30.3030303,,,,,,,,,,1.245,0,,,,,,,,,,,,,,,,,,,,,,,0.363265306,-0.285204082,1,0,0,,,,,,,WHEEL,LB,z,m,./images/WHEELLB.png,,,,,,,,,,,,,,,,,,,,,0,0.363265306,-0.285204082,1,0,0,1.245,button_right_test,0,58,58,161,1
,,,,,,,,,,,,,,,,,607fb8465341fd553409b92b,41,2022-02-12_12h35.23.529,lexical_decision_task_DD,2021.2.3,iPhone,30.3030303,,,,,,,,,,0.932,1,,,,,,,,,,,,,,,,,,,,,,,0.368367347,-0.279081633,1,0,0,,,,,,,PURSE,LB,m,m,./images/PURSELB.png,,,,,,,,,,,,,,,,,,,,,0,0.368367347,-0.279081633,1,0,0,0.932,button_right_test,0,59,59,62,1
,,,,,,,,,,,,,,,,,607fb8465341fd553409b92b,41,2022-02-12_12h35.23.529,lexical_decision_task_DD,2021.2.3,iPhone,30.3030303,,,,,,,,,,1.368,1,,,,,,,,,,,,,,,,,,,,,,,-0.32244898,-0.279081633,1,0,0,,,,,,,FLASK,C,z,m,./images/FLASK.png,,,,,,,,,,,,,,,,,,,,,0,-0.32244898,-0.279081633,1,0,0,1.368,button_left_test,0,60,60,156,1
,,,,,,,,,,,,,,,,,607fb8465341fd553409b92b,41,2022-02-12_12h35.23.529,lexical_decision_task_DD,2021.2.3,iPhone,30.3030303,,,,,,,,,,1.782,1,,,,,,,,,,,,,,,,,,,,,,,0.382653061,-0.268877551,1,0,0,,,,,,,SHELF,C,m,m,./images/SHELF.png,,,,,,,,,,,,,,,,,,,,,0,0.382653061,-0.268877551,1,0,0,1.782,button_right_test,0,61,61,39,1
,,,,,,,,,,,,,,,,,607fb8465341fd553409b92b,41,2022-02-12_12h35.23.529,lexical_decision_task_DD,2021.2.3,iPhone,30.3030303,,,,,,,,,,0.898,1,,,,,,,,,,,,,,,,,,,,,,,0.390816327,-0.269897959,1,0,0,,,,,,,SKIING,LB,m,m,./images/SKIINGLB.png,,,,,,,,,,,,,,,,,,,,,0,0.390816327,-0.269897959,1,0,0,0.898,button_right_test,0,62,62,17,1
,,,,,,,,,,,,,,,,,607fb8465341fd553409b92b,41,2022-02-12_12h35.23.529,lexical_decision_task_DD,2021.2.3,iPhone,30.3030303,,,,,,,,,,0.678,1,,,,,,,,,,,,,,,,,,,,,,,0.383673469,-0.271938776,1,0,0,,,,,,,JAGUAR,C,m,m,./images/JAGUAR.png,,,,,,,,,,,,,,,,,,,,,0,0.383673469,-0.271938776,1,0,0,0.678,button_right_test,0,63,63,18,1
,,,,,,,,,,,,,,,,,607fb8465341fd553409b92b,41,2022-02-12_12h35.23.529,lexical_decision_task_DD,2021.2.3,iPhone,30.3030303,,,,,,,,,,1.274,0,,,,,,,,,,,,,,,,,,,,,,,0.38877551,-0.268877551,1,0,0,,,,,,,RAZOR,HB,z,m,./images/RAZORHB.png,,,,,,,,,,,,,,,,,,,,,0,0.38877551,-0.268877551,1,0,0,1.274,button_right_test,0,64,64,118,1
,,,,,,,,,,,,,,,,,607fb8465341fd553409b92b,41,2022-02-12_12h35.23.529,lexical_decision_task_DD,2021.2.3,iPhone,30.3030303,,,,,,,,,,0.979,0,,,,,,,,,,,,,,,,,,,,,,,0.390816327,-0.271938776,1,0,0,,,,,,,MONKEY,C,z,m,./images/MONKEY.png,,,,,,,,,,,,,,,,,,,,,0,0.390816327,-0.271938776,1,0,0,0.979,button_right_test,0,65,65,129,1
,,,,,,,,,,,,,,,,,607fb8465341fd553409b92b,41,2022-02-12_12h35.23.529,lexical_decision_task_DD,2021.2.3,iPhone,30.3030303,,,,,,,,,,2.783,0,,,,,,,,,,,,,,,,,,,,,,,-0.303061224,-0.303571429,1,0,0,,,,,,,URINE,HB,m,m,./images/URINEHB.png,,,,,,,,,,,,,,,,,,,,,0,-0.303061224,-0.303571429,1,0,0,2.783,button_left_test,0,66,66,70,1
,,,,,,,,,,,,,,,,,607fb8465341fd553409b92b,41,2022-02-12_12h35.23.529,lexical_decision_task_DD,2021.2.3,iPhone,30.3030303,,,,,,,,,,1.243,1,,,,,,,,,,,,,,,,,,,,,,,-0.265306122,-0.282142857,1,0,0,,,,,,,BANANA,HB,z,m,./images/BANANAHB.png,,,,,,,,,,,,,,,,,,,,,0,-0.265306122,-0.282142857,1,0,0,1.243,button_left_test,0,67,67,154,1
,,,,,,,,,,,,,,,,,607fb8465341fd553409b92b,41,2022-02-12_12h35.23.529,lexical_decision_task_DD,2021.2.3,iPhone,30.3030303,,,,,,,,,,1.7,1,,,,,,,,,,,,,,,,,,,,,,,-0.290816327,-0.311734694,1,0,0,,,,,,,DESERT,HB,z,m,./images/DESERTHB.png,,,,,,,,,,,,,,,,,,,,,0,-0.290816327,-0.311734694,1,0,0,1.7,button_left_test,0,68,68,136,1
,,,,,,,,,,,,,,,,,607fb8465341fd553409b92b,41,2022-02-12_12h35.23.529,lexical_decision_task_DD,2021.2.3,iPhone,30.3030303,,,,,,,,,,1.179,0,,,,,,,,,,,,,,,,,,,,,,,0.289795918,-0.259693878,1,0,0,,,,,,,STEAK,HB,z,m,./images/STEAKHB.png,,,,,,,,,,,,,,,,,,,,,0,0.289795918,-0.259693878,1,0,0,1.179,button_right_test,0,69,69,115,1
,,,,,,,,,,,,,,,,,607fb8465341fd553409b92b,41,2022-02-12_12h35.23.529,lexical_decision_task_DD,2021.2.3,iPhone,30.3030303,,,,,,,,,,1.2,1,,,,,,,,,,,,,,,,,,,,,,,-0.274489796,-0.307653061,1,0,0,,,,,,,BRUSH,LB,z,m,./images/BRUSHLB.png,,,,,,,,,,,,,,,,,,,,,0,-0.274489796,-0.307653061,1,0,0,1.2,button_left_test,0,70,70,143,1
,,,,,,,,,,,,,,,,,607fb8465341fd553409b92b,41,2022-02-12_12h35.23.529,lexical_decision_task_DD,2021.2.3,iPhone,30.3030303,,,,,,,,,,0.898,1,,,,,,,,,,,,,,,,,,,,,,,0.35,-0.280102041,1,0,0,,,,,,,PAINT,HB,m,m,./images/PAINTHB.png,,,,,,,,,,,,,,,,,,,,,0,0.35,-0.280102041,1,0,0,0.898,button_right_test,0,71,71,7,1
,,,,,,,,,,,,,,,,,607fb8465341fd553409b92b,41,2022-02-12_12h35.23.529,lexical_decision_task_DD,2021.2.3,iPhone,30.3030303,,,,,,,,,,1.365,0,,,,,,,,,,,,,,,,,,,,,,,-0.316326531,-0.317857143,1,0,0,,,,,,,QUILL,HB,m,m,./images/QUILLHB.png,,,,,,,,,,,,,,,,,,,,,0,-0.316326531,-0.317857143,1,0,0,1.365,button_left_test,0,72,72,31,1
,,,,,,,,,,,,,,,,,607fb8465341fd553409b92b,41,2022-02-12_12h35.23.529,lexical_decision_task_DD,2021.2.3,iPhone,30.3030303,,,,,,,,,,1.079,1,,,,,,,,,,,,,,,,,,,,,,,0.352040816,-0.276020408,1,0,0,,,,,,,PIMPLE,LB,m,m,./images/PIMPLELB.png,,,,,,,,,,,,,,,,,,,,,0,0.352040816,-0.276020408,1,0,0,1.079,button_right_test,0,73,73,71,1
,,,,,,,,,,,,,,,,,607fb8465341fd553409b92b,41,2022-02-12_12h35.23.529,lexical_decision_task_DD,2021.2.3,iPhone,30.3030303,,,,,,,,,,1.033,0,,,,,,,,,,,,,,,,,,,,,,,0.359183673,-0.273979592,1,0,0,,,,,,,CASINO,HB,z,m,./images/CASINOHB.png,,,,,,,,,,,,,,,,,,,,,0,0.359183673,-0.273979592,1,0,0,1.033,button_right_test,0,74,74,112,1
,,,,,,,,,,,,,,,,,607fb8465341fd553409b92b,41,2022-02-12_12h35.23.529,lexical_decision_task_DD,2021.2.3,iPhone,30.3030303,,,,,,,,,,1.3,0,,,,,,,,,,,,,,,,,,,,,,,0.353061224,-0.28622449,1,0,0,,,,,,,HEATER,LB,z,m,./images/HEATERLB.png,,,,,,,,,,,,,,,,,,,,,0,0.353061224,-0.28622449,1,0,0,1.3,button_right_test,0,75,75,140,1
,,,,,,,,,,,,,,,,,607fb8465341fd553409b92b,41,2022-02-12_12h35.23.529,lexical_decision_task_DD,2021.2.3,iPhone,30.3030303,,,,,,,,,,0.866,0,,,,,,,,,,,,,,,,,,,,,,,0.407142857,-0.281122449,1,0,0,,,,,,,DANCER,C,z,m,./images/DANCER.png,,,,,,,,,,,,,,,,,,,,,0,0.407142857,-0.281122449,1,0,0,0.866,button_right_test,0,76,76,105,1
,,,,,,,,,,,,,,,,,607fb8465341fd553409b92b,41,2022-02-12_12h35.23.529,lexical_decision_task_DD,2021.2.3,iPhone,30.3030303,,,,,,,,,,1.031,0,,,,,,,,,,,,,,,,,,,,,,,0.417346939,-0.295408163,1,0,0,,,,,,,ENGINE,LB,z,m,./images/ENGINELB.png,,,,,,,,,,,,,,,,,,,,,0,0.417346939,-0.295408163,1,0,0,1.031,button_right_test,0,77,77,122,1
,,,,,,,,,,,,,,,,,607fb8465341fd553409b92b,41,2022-02-12_12h35.23.529,lexical_decision_task_DD,2021.2.3,iPhone,30.3030303,,,,,,,,,,1.165,1,,,,,,,,,,,,,,,,,,,,,,,0.408163265,-0.291326531,1,0,0,,,,,,,ONION,C,m,m,./images/ONION.png,,,,,,,,,,,,,,,,,,,,,0,0.408163265,-0.291326531,1,0,0,1.165,button_right_test,0,78,78,51,1
,,,,,,,,,,,,,,,,,607fb8465341fd553409b92b,41,2022-02-12_12h35.23.529,lexical_decision_task_DD,2021.2.3,iPhone,30.3030303,,,,,,,,,,0.977,1,,,,,,,,,,,,,,,,,,,,,,,0.413265306,-0.290306122,1,0,0,,,,,,,PEARL,HB,m,m,./images/PEARLHB.png,,,,,,,,,,,,,,,,,,,,,0,0.413265306,-0.290306122,1,0,0,0.977,button_right_test,0,79,79,46,1
,,,,,,,,,,,,,,,,,607fb8465341fd553409b92b,41,2022-02-12_12h35.23.529,lexical_decision_task_DD,2021.2.3,iPhone,30.3030303,,,,,,,,,,1,0,,,,,,,,,,,,,,,,,,,,,,,0.416326531,-0.287244898,1,0,0,,,,,,,GRANNY,LB,z,m,./images/GRANNYLB.png,,,,,,,,,,,,,,,,,,,,,0,0.416326531,-0.287244898,1,0,0,1,button_right_test,0,80,80,104,1
,,,,,,,,,,,,,,,,,607fb8465341fd553409b92b,41,2022-02-12_12h35.23.529,lexical_decision_task_DD,2021.2.3,iPhone,30.3030303,,,,,,,,,,0.578,1,,,,,,,,,,,,,,,,,,,,,,,0.419387755,-0.287244898,1,0,0,,,,,,,BERRY,LB,m,m,./images/BERRYLB.png,,,,,,,,,,,,,,,,,,,,,0,0.419387755,-0.287244898,1,0,0,0.578,button_right_test,0,81,81,47,1
,,,,,,,,,,,,,,,,,607fb8465341fd553409b92b,41,2022-02-12_12h35.23.529,lexical_decision_task_DD,2021.2.3,iPhone,30.3030303,,,,,,,,,,0.799,0,,,,,,,,,,,,,,,,,,,,,,,0.418367347,-0.284183673,1,0,0,,,,,,,CRATER,C,z,m,./images/CRATER.png,,,,,,,,,,,,,,,,,,,,,0,0.418367347,-0.284183673,1,0,0,0.799,button_right_test,0,82,82,87,1
,,,,,,,,,,,,,,,,,607fb8465341fd553409b92b,41,2022-02-12_12h35.23.529,lexical_decision_task_DD,2021.2.3,iPhone,30.3030303,,,,,,,,,,0.811,1,,,,,,,,,,,,,,,,,,,,,,,0.062244898,-0.391326531,1,0,0,,,,,,,SWING,HB,m,m,./images/SWINGHB.png,break_done_button,,,,,,,,,,,,,,,,,,,,0,0.415306122,-0.276020408,1,0,0,0.811,button_right_test,0,83,83,40,1
,,,,,,,,,,,,,,,,,607fb8465341fd553409b92b,41,2022-02-12_12h35.23.529,lexical_decision_task_DD,2021.2.3,iPhone,30.3030303,,,,,,,,,,1.513,0,,,,,,,,,,,,,,,,,,,,,,,0.420408163,-0.275,1,0,0,,,,,,,DONKEY,HB,z,m,./images/DONKEYHB.png,,,,,,,,,,,,,,,,,,,,,0,0.420408163,-0.275,1,0,0,1.513,button_right_test,0,84,84,103,1
,,,,,,,,,,,,,,,,,607fb8465341fd553409b92b,41,2022-02-12_12h35.23.529,lexical_decision_task_DD,2021.2.3,iPhone,30.3030303,,,,,,,,,,2.015,1,,,,,,,,,,,,,,,,,,,,,,,-0.289795918,-0.333163265,1,0,0,,,,,,,BUBBLE,LB,z,m,./images/BUBBLELB.png,,,,,,,,,,,,,,,,,,,,,0,-0.289795918,-0.333163265,1,0,0,2.015,button_left_test,0,85,85,155,1
,,,,,,,,,,,,,,,,,607fb8465341fd553409b92b,41,2022-02-12_12h35.23.529,lexical_decision_task_DD,2021.2.3,iPhone,30.3030303,,,,,,,,,,1.014,1,,,,,,,,,,,,,,,,,,,,,,,0.369387755,-0.306632653,1,0,0,,,,,,,BARREL,LB,m,m,./images/BARRELLB.png,,,,,,,,,,,,,,,,,,,,,0,0.369387755,-0.306632653,1,0,0,1.014,button_right_test,0,86,86,32,1
,,,,,,,,,,,,,,,,,607fb8465341fd553409b92b,41,2022-02-12_12h35.23.529,lexical_decision_task_DD,2021.2.3,iPhone,30.3030303,,,,,,,,,,1.03,0,,,,,,,,,,,,,,,,,,,,,,,0.38877551,-0.28622449,1,0,0,,,,,,,GARDEN,HB,z,m,./images/GARDENHB.png,,,,,,,,,,,,,,,,,,,,,0,0.38877551,-0.28622449,1,0,0,1.03,button_right_test,0,87,87,94,1
,,,,,,,,,,,,,,,,,607fb8465341fd553409b92b,41,2022-02-12_12h35.23.529,lexical_decision_task_DD,2021.2.3,iPhone,30.3030303,,,,,,,,,,1,0,,,,,,,,,,,,,,,,,,,,,,,0.38877551,-0.283163265,1,0,0,,,,,,,TOWEL,HB,z,m,./images/TOWELHB.png,,,,,,,,,,,,,,,,,,,,,0,0.38877551,-0.283163265,1,0,0,1,button_right_test,0,88,88,85,1
,,,,,,,,,,,,,,,,,607fb8465341fd553409b92b,41,2022-02-12_12h35.23.529,lexical_decision_task_DD,2021.2.3,iPhone,30.3030303,,,,,,,,,,0.846,1,,,,,,,,,,,,,,,,,,,,,,,0.393877551,-0.281122449,1,0,0,,,,,,,MOOSE,C,m,m,./images/MOOSE.png,,,,,,,,,,,,,,,,,,,,,0,0.393877551,-0.281122449,1,0,0,0.846,button_right_test,0,89,89,57,1
,,,,,,,,,,,,,,,,,607fb8465341fd553409b92b,41,2022-02-12_12h35.23.529,lexical_decision_task_DD,2021.2.3,iPhone,30.3030303,,,,,,,,,,0.999,1,,,,,,,,,,,,,,,,,,,,,,,0.398979592,-0.283163265,1,0,0,,,,,,,GREASE,C,m,m,./images/GREASE.png,,,,,,,,,,,,,,,,,,,,,0,0.398979592,-0.283163265,1,0,0,0.999,button_right_test,0,90,90,15,1
,,,,,,,,,,,,,,,,,607fb8465341fd553409b92b,41,2022-02-12_12h35.23.529,lexical_decision_task_DD,2021.2.3,iPhone,30.3030303,,,,,,,,,,0.477,0,,,,,,,,,,,,,,,,,,,,,,,0.392857143,-0.287244898,1,0,0,,,,,,,COLLAR,C,z,m,./images/COLLAR.png,,,,,,,,,,,,,,,,,,,,,0,0.392857143,-0.287244898,1,0,0,0.477,button_right_test,0,91,91,99,1
,,,,,,,,,,,,,,,,,607fb8465341fd553409b92b,41,2022-02-12_12h35.23.529,lexical_decision_task_DD,2021.2.3,iPhone,30.3030303,,,,,,,,,,0.543,1,,,,,,,,,,,,,,,,,,,,,,,0.392857143,-0.285204082,1,0,0,,,,,,,WEASEL,LB,m,m,./images/WEASELLB.png,,,,,,,,,,,,,,,,,,,,,0,0.392857143,-0.285204082,1,0,0,0.543,button_right_test,0,92,92,80,1
,,,,,,,,,,,,,,,,,607fb8465341fd553409b92b,41,2022-02-12_12h35.23.529,lexical_decision_task_DD,2021.2.3,iPhone,30.3030303,,,,,,,,,,0.866,0,,,,,,,,,,,,,,,,,,,,,,,0.393877551,-0.282142857,1,0,0,,,,,,,HOCKEY,LB,z,m,./images/HOCKEYLB.png,,,,,,,,,,,,,,,,,,,,,0,0.393877551,-0.282142857,1,0,0,0.866,button_right_test,0,93,93,116,1
,,,,,,,,,,,,,,,,,607fb8465341fd553409b92b,41,2022-02-12_12h35.23.529,lexical_decision_task_DD,2021.2.3,iPhone,30.3030303,,,,,,,,,,0.831,0,,,,,,,,,,,,,,,,,,,,,,,0.389795918,-0.283163265,1,0,0,,,,,,,STREAM,LB,z,m,./images/STREAMLB.png,,,,,,,,,,,,,,,,,,,,,0,0.389795918,-0.283163265,1,0,0,0.831,button_right_test,0,94,94,125,1
,,,,,,,,,,,,,,,,,607fb8465341fd553409b92b,41,2022-02-12_12h35.23.529,lexical_decision_task_DD,2021.2.3,iPhone,30.3030303,,,,,,,,,,0.913,0,,,,,,,,,,,,,,,,,,,,,,,0.38877551,-0.282142857,1,0,0,,,,,,,SPINE,LB,z,m,./images/SPINELB.png,,,,,,,,,,,,,,,,,,,,,0,0.38877551,-0.282142857,1,0,0,0.913,button_right_test,0,95,95,149,1
,,,,,,,,,,,,,,,,,607fb8465341fd553409b92b,41,2022-02-12_12h35.23.529,lexical_decision_task_DD,2021.2.3,iPhone,30.3030303,,,,,,,,,,0.831,0,,,,,,,,,,,,,,,,,,,,,,,0.383673469,-0.283163265,1,0,0,,,,,,,PILOT,LB,z,m,./images/PILOTLB.png,,,,,,,,,,,,,,,,,,,,,0,0.383673469,-0.283163265,1,0,0,0.831,button_right_test,0,96,96,134,1
,,,,,,,,,,,,,,,,,607fb8465341fd553409b92b,41,2022-02-12_12h35.23.529,lexical_decision_task_DD,2021.2.3,iPhone,30.3030303,,,,,,,,,,0.765,1,,,,,,,,,,,,,,,,,,,,,,,0.391836735,-0.285204082,1,0,0,,,,,,,TOMATO,C,m,m,./images/TOMATO.png,,,,,,,,,,,,,,,,,,,,,0,0.391836735,-0.285204082,1,0,0,0.765,button_right_test,0,97,97,0,1
,,,,,,,,,,,,,,,,,607fb8465341fd553409b92b,41,2022-02-12_12h35.23.529,lexical_decision_task_DD,2021.2.3,iPhone,30.3030303,,,,,,,,,,2.28,0,,,,,,,,,,,,,,,,,,,,,,,0.38877551,-0.284183673,1,0,0,,,,,,,WAGON,HB,z,m,./images/WAGONHB.png,,,,,,,,,,,,,,,,,,,,,0,0.38877551,-0.284183673,1,0,0,2.28,button_right_test,0,98,98,91,1
,,,,,,,,,,,,,,,,,607fb8465341fd553409b92b,41,2022-02-12_12h35.23.529,lexical_decision_task_DD,2021.2.3,iPhone,30.3030303,,,,,,,,,,3.203,1,,,,,,,,,,,,,,,,,,,,,,,-0.304081633,-0.320918367,1,0,0,,,,,,,CLOTH,LB,z,m,./images/CLOTHLB.png,,,,,,,,,,,,,,,,,,,,,0,-0.304081633,-0.320918367,1,0,0,3.203,button_left_test,0,99,99,107,1
,,,,,,,,,,,,,,,,,607fb8465341fd553409b92b,41,2022-02-12_12h35.23.529,lexical_decision_task_DD,2021.2.3,iPhone,30.3030303,,,,,,,,,,1.279,0,,,,,,,,,,,,,,,,,,,,,,,0.408163265,-0.271938776,1,0,0,,,,,,,RULER,HB,z,m,./images/RULERHB.png,,,,,,,,,,,,,,,,,,,,,0,0.408163265,-0.271938776,1,0,0,1.279,button_right_test,0,100,100,163,1
