key_resp.keys,key_resp.rt,instr_done_touch.x,instr_done_touch.y,instr_done_touch.leftButton,instr_done_touch.midButton,instr_done_touch.rightButton,instruction_pages.thisRepN,instruction_pages.thisTrialN,instruction_pages.thisN,instruction_pages.thisIndex,instruction_pages.ran,pageN,phase,instruct_text,has_image,instruct_image,participant,age,date,expName,psychopyVersion,OS,frameRate,response.keys,response.corr,response.rt,touch_resp.x,touch_resp.y,touch_resp.leftButton,touch_resp.midButton,touch_resp.rightButton,touch_resp.time,touch_resp.clicked_name,rt,corr,practrials.thisRepN,practrials.thisTrialN,practrials.thisN,practrials.thisIndex,practrials.ran,TrialID,Target,corrAns,end_of_practice_trials_pages.thisRepN,end_of_practice_trials_pages.thisTrialN,end_of_practice_trials_pages.thisN,end_of_practice_trials_pages.thisIndex,end_of_practice_trials_pages.ran,key_resp_2.keys,key_resp_2.corr,key_resp_2.rt,targ_click.x,targ_click.y,targ_click.leftButton,targ_click.midButton,targ_click.rightButton,targ_click.time,targ_click.clicked_name,break_done_touch.x,break_done_touch.y,break_done_touch.leftButton,break_done_touch.midButton,break_done_touch.rightButton,break_done_keyboard.keys,maintrials.thisRepN,maintrials.thisTrialN,maintrials.thisN,maintrials.thisIndex,maintrials.ran,string,blur,study,lex,stim_path,break_done_keyboard.rt,mouse_2.x,mouse_2.y,mouse_2.leftButton,mouse_2.midButton,mouse_2.rightButton,mouse_2.clicked_name,slider.response,slider.rt,trials.thisRepN,trials.thisTrialN,trials.thisN,trials.thisIndex,trials.ran,test_instructions.thisRepN,test_instructions.thisTrialN,test_instructions.thisN,test_instructions.thisIndex,test_instructions.ran,instr_done_touch.clicked_name,key_resp_3.keys,key_resp_3.corr,key_resp_3.rt,test_click.x,test_click.y,test_click.leftButton,test_click.midButton,test_click.rightButton,test_click.time,test_click.clicked_name,test_phase.thisRepN,test_phase.thisTrialN,test_phase.thisN,test_phase.thisIndex,test_phase.ran,break_done_touch.clicked_name
space,43.6714,-0.378703734,-0.406481427,0,0,0,0,0,0,0,1,1,instructions,"INSTRUCTIONS
At the start of each trial, look at the plus sign  (+) in the center of the screen.  This tells you that a trial is about to begin and where to look. Second, the plus sign will disappear and a string of letters will appear. Your task is to determine if the string of letters is a word or not. If the item is a word press the M key (on keyboard)  or touch the word button (phone/tablet).  If the item is not a word,  press the  Z key (on keyboard)  or touch the nonword button (on phone/tablet). 
Press the space bar or touch  continue.",0,,60e5868307d715a4d1445116,66,2022-02-12_11h46.56.174,lexical_decision_task_DD,2021.2.3,Win32,60.01680471,,,,,,,,,,,,,,,,,,,,,,,,,,,,,,,,,,,,,,,,,,,,,,,,,,,,,,,,,,,,,,,,,,,,,,,,,,,,,,,,,,,,,,,
space,9.3008,-0.378703734,-0.406481427,0,0,0,0,1,1,1,1,2,instructions,"If your device has a keyboard, press the 'Z' key for nonwords and the 'M' key for words.





Press the space bar or touch the button below to continue.",0,keyboard-example.gif,60e5868307d715a4d1445116,66,2022-02-12_11h46.56.174,lexical_decision_task_DD,2021.2.3,Win32,60.01680471,,,,,,,,,,,,,,,,,,,,,,,,,,,,,,,,,,,,,,,,,,,,,,,,,,,,,,,,,,,,,,,,,,,,,,,,,,,,,,,,,,,,,,,
space,2.7895,-0.378703734,-0.406481427,0,0,0,0,2,2,2,1,3,instructions,"If you are using a touchscreen only device, use the buttons on the screen. Do not use the mouse.





Press the space bar or touch the button below to continue.",0,touchscreen-example.gif,60e5868307d715a4d1445116,66,2022-02-12_11h46.56.174,lexical_decision_task_DD,2021.2.3,Win32,60.01680471,,,,,,,,,,,,,,,,,,,,,,,,,,,,,,,,,,,,,,,,,,,,,,,,,,,,,,,,,,,,,,,,,,,,,,,,,,,,,,,,,,,,,,,
space,11.4698,-0.378703734,-0.406481427,0,0,0,0,3,3,3,1,4,instructions,"It is very important that you respond as quickly and accurately as possible, as each letter string will only be on the screen for two seconds. If you do not respond within this time, the message 'Too slow!' will be displayed and the experiment will progress to the next letter string. The first 20 trials will be practice trials and you will receive feedback on your answers. 

Press the space bar or touch the button below to start the practice trials.",0,,60e5868307d715a4d1445116,66,2022-02-12_11h46.56.174,lexical_decision_task_DD,2021.2.3,Win32,60.01680471,,,,,,,,,,,,,,,,,,,,,,,,,,,,,,,,,,,,,,,,,,,,,,,,,,,,,,,,,,,,,,,,,,,,,,,,,,,,,,,,,,,,,,,
,,,,,,,,,,,,,,,,,60e5868307d715a4d1445116,66,2022-02-12_11h46.56.174,lexical_decision_task_DD,2021.2.3,Win32,60.01680471,m,1,2.59,,,,,,,,2.59,1,0,0,0,5,1,1001,OBTAIN,m,,,,,,,,,,,,,,,,,,,,,,,,,,,,,,,,,,,,,,,,,,,,,,,,,,,,,,,,,,,,,,,,,,,
,,,,,,,,,,,,,,,,,60e5868307d715a4d1445116,66,2022-02-12_11h46.56.174,lexical_decision_task_DD,2021.2.3,Win32,60.01680471,z,1,1.761,,,,,,,,1.761,1,0,1,1,15,1,1001,WHAISE,z,,,,,,,,,,,,,,,,,,,,,,,,,,,,,,,,,,,,,,,,,,,,,,,,,,,,,,,,,,,,,,,,,,,
,,,,,,,,,,,,,,,,,60e5868307d715a4d1445116,66,2022-02-12_11h46.56.174,lexical_decision_task_DD,2021.2.3,Win32,60.01680471,m,1,0.7466,,,,,,,,0.7466,1,0,2,2,6,1,1001,ZOMBIE,m,,,,,,,,,,,,,,,,,,,,,,,,,,,,,,,,,,,,,,,,,,,,,,,,,,,,,,,,,,,,,,,,,,,
,,,,,,,,,,,,,,,,,60e5868307d715a4d1445116,66,2022-02-12_11h46.56.174,lexical_decision_task_DD,2021.2.3,Win32,60.01680471,z,1,0.5187,,,,,,,,0.5187,1,0,3,3,12,1,1001,SPRINY,z,,,,,,,,,,,,,,,,,,,,,,,,,,,,,,,,,,,,,,,,,,,,,,,,,,,,,,,,,,,,,,,,,,,
,,,,,,,,,,,,,,,,,60e5868307d715a4d1445116,66,2022-02-12_11h46.56.174,lexical_decision_task_DD,2021.2.3,Win32,60.01680471,z,1,1.3876,,,,,,,,1.3876,1,0,4,4,14,1,1001,THRALE,z,,,,,,,,,,,,,,,,,,,,,,,,,,,,,,,,,,,,,,,,,,,,,,,,,,,,,,,,,,,,,,,,,,,
,,,,,,,,,,,,,,,,,60e5868307d715a4d1445116,66,2022-02-12_11h46.56.174,lexical_decision_task_DD,2021.2.3,Win32,60.01680471,m,1,0.6302,,,,,,,,0.6302,1,0,5,5,2,1,1001,ALMOND,m,,,,,,,,,,,,,,,,,,,,,,,,,,,,,,,,,,,,,,,,,,,,,,,,,,,,,,,,,,,,,,,,,,,
,,,,,,,,,,,,,,,,,60e5868307d715a4d1445116,66,2022-02-12_11h46.56.174,lexical_decision_task_DD,2021.2.3,Win32,60.01680471,z,1,0.872,,,,,,,,0.872,1,0,6,6,9,1,1001,FARINY,z,,,,,,,,,,,,,,,,,,,,,,,,,,,,,,,,,,,,,,,,,,,,,,,,,,,,,,,,,,,,,,,,,,,
,,,,,,,,,,,,,,,,,60e5868307d715a4d1445116,66,2022-02-12_11h46.56.174,lexical_decision_task_DD,2021.2.3,Win32,60.01680471,m,1,0.6506,,,,,,,,0.6506,1,0,7,7,0,1,1001,UTOPIA,m,,,,,,,,,,,,,,,,,,,,,,,,,,,,,,,,,,,,,,,,,,,,,,,,,,,,,,,,,,,,,,,,,,,
,,,,,,,,,,,,,,,,,60e5868307d715a4d1445116,66,2022-02-12_11h46.56.174,lexical_decision_task_DD,2021.2.3,Win32,60.01680471,m,1,0.7396,,,,,,,,0.7396,1,0,8,8,1,1,1001,ADJUST,m,,,,,,,,,,,,,,,,,,,,,,,,,,,,,,,,,,,,,,,,,,,,,,,,,,,,,,,,,,,,,,,,,,,
,,,,,,,,,,,,,,,,,60e5868307d715a4d1445116,66,2022-02-12_11h46.56.174,lexical_decision_task_DD,2021.2.3,Win32,60.01680471,m,0,0.9707,,,,,,,,0.9707,0,0,9,9,10,1,1001,INLADE,z,,,,,,,,,,,,,,,,,,,,,,,,,,,,,,,,,,,,,,,,,,,,,,,,,,,,,,,,,,,,,,,,,,,
,,,,,,,,,,,,,,,,,60e5868307d715a4d1445116,66,2022-02-12_11h46.56.174,lexical_decision_task_DD,2021.2.3,Win32,60.01680471,z,1,1.2335,,,,,,,,1.2335,1,0,10,10,8,1,1001,ASLERT,z,,,,,,,,,,,,,,,,,,,,,,,,,,,,,,,,,,,,,,,,,,,,,,,,,,,,,,,,,,,,,,,,,,,
,,,,,,,,,,,,,,,,,60e5868307d715a4d1445116,66,2022-02-12_11h46.56.174,lexical_decision_task_DD,2021.2.3,Win32,60.01680471,z,1,0.9051,,,,,,,,0.9051,1,0,11,11,11,1,1001,RASHET,z,,,,,,,,,,,,,,,,,,,,,,,,,,,,,,,,,,,,,,,,,,,,,,,,,,,,,,,,,,,,,,,,,,,
,,,,,,,,,,,,,,,,,60e5868307d715a4d1445116,66,2022-02-12_11h46.56.174,lexical_decision_task_DD,2021.2.3,Win32,60.01680471,m,1,0.5994,,,,,,,,0.5994,1,0,12,12,7,1,1001,VOLUME,m,,,,,,,,,,,,,,,,,,,,,,,,,,,,,,,,,,,,,,,,,,,,,,,,,,,,,,,,,,,,,,,,,,,
,,,,,,,,,,,,,,,,,60e5868307d715a4d1445116,66,2022-02-12_11h46.56.174,lexical_decision_task_DD,2021.2.3,Win32,60.01680471,m,1,1.0224,,,,,,,,1.0224,1,0,13,13,4,1,1001,SQUEAK,m,,,,,,,,,,,,,,,,,,,,,,,,,,,,,,,,,,,,,,,,,,,,,,,,,,,,,,,,,,,,,,,,,,,
,,,,,,,,,,,,,,,,,60e5868307d715a4d1445116,66,2022-02-12_11h46.56.174,lexical_decision_task_DD,2021.2.3,Win32,60.01680471,m,1,0.5951,,,,,,,,0.5951,1,0,14,14,3,1,1001,MATRIX,m,,,,,,,,,,,,,,,,,,,,,,,,,,,,,,,,,,,,,,,,,,,,,,,,,,,,,,,,,,,,,,,,,,,
,,,,,,,,,,,,,,,,,60e5868307d715a4d1445116,66,2022-02-12_11h46.56.174,lexical_decision_task_DD,2021.2.3,Win32,60.01680471,z,1,0.7526,,,,,,,,0.7526,1,0,15,15,13,1,1001,ROUPET,z,,,,,,,,,,,,,,,,,,,,,,,,,,,,,,,,,,,,,,,,,,,,,,,,,,,,,,,,,,,,,,,,,,,
space,8.2626,-0.378703734,-0.406481427,0,0,0,,,,,,1,end_of_practice,"You have completed the practice trials. During the experimental trials, you will not receive feedback. 
Before you begin, please ensure that you are in a comfortable and quiet location and will not be disturbed for about 15 minutes, as we cannot use your data if you do not complete all the trials. 
 When you are ready to start the experimental trials, please press space or touch the button below.",,,60e5868307d715a4d1445116,66,2022-02-12_11h46.56.174,lexical_decision_task_DD,2021.2.3,Win32,60.01680471,,,,,,,,,,,,,,,,,,,,,0,0,0,0,1,,,,,,,,,,,,,,,,,,,,,,,,,,,,,,,,,,,,,,,,,,,,,,,,,,,,,,,,,,,,,,
,,,,,,,,,,,,,,,,,60e5868307d715a4d1445116,66,2022-02-12_11h46.56.174,lexical_decision_task_DD,2021.2.3,Win32,60.01680471,,,,,,,,,,,1.5516,1,,,,,,,,,,,,,,m,1,1.5516,,,,,,,,-0.378703734,-0.406481427,0,0,0,,0,0,0,54,1,TRIPOD,C,old,m,./images/TRIPOD.png,,,,,,,,,,,,,,,,,,,,,,,,,,,,,,,,,,,,
,,,,,,,,,,,,,,,,,60e5868307d715a4d1445116,66,2022-02-12_11h46.56.174,lexical_decision_task_DD,2021.2.3,Win32,60.01680471,,,,,,,,,,,0.8191,0,,,,,,,,,,,,,,m,0,0.8191,,,,,,,,-0.3953704,-0.412036926,0,0,0,,0,1,1,162,1,LEICH,C,old,z,./images/LEICH.png,,,,,,,,,,,,,,,,,,,,,,,,,,,,,,,,,,,,
,,,,,,,,,,,,,,,,,60e5868307d715a4d1445116,66,2022-02-12_11h46.56.174,lexical_decision_task_DD,2021.2.3,Win32,60.01680471,,,,,,,,,,,2.3558,1,,,,,,,,,,,,,,z,1,2.3558,,,,,,,,-0.3953704,-0.412036926,0,0,0,,0,2,2,139,1,BLEAR,HB,old,z,./images/BLEARHB.png,,,,,,,,,,,,,,,,,,,,,,,,,,,,,,,,,,,,
,,,,,,,,,,,,,,,,,60e5868307d715a4d1445116,66,2022-02-12_11h46.56.174,lexical_decision_task_DD,2021.2.3,Win32,60.01680471,,,,,,,,,,,3.0287,0,,,,,,,,,,,,,,m,0,3.0287,,,,,,,,-0.3953704,-0.412036926,0,0,0,,0,3,3,104,1,GITTY,LB,old,z,./images/GITTYLB.png,,,,,,,,,,,,,,,,,,,,,,,,,,,,,,,,,,,,
,,,,,,,,,,,,,,,,,60e5868307d715a4d1445116,66,2022-02-12_11h46.56.174,lexical_decision_task_DD,2021.2.3,Win32,60.01680471,,,,,,,,,,,1.6391,1,,,,,,,,,,,,,,z,1,1.6391,,,,,,,,-0.3953704,-0.412036926,0,0,0,,0,4,4,97,1,CHIDS,HB,old,z,./images/CHIDSHB.png,,,,,,,,,,,,,,,,,,,,,,,,,,,,,,,,,,,,
,,,,,,,,,,,,,,,,,60e5868307d715a4d1445116,66,2022-02-12_11h46.56.174,lexical_decision_task_DD,2021.2.3,Win32,60.01680471,,,,,,,,,,,2.9173,1,,,,,,,,,,,,,,z,1,2.9173,,,,,,,,-0.3953704,-0.412036926,0,0,0,,0,5,5,163,1,GAMBA,HB,old,z,./images/GAMBAHB.png,,,,,,,,,,,,,,,,,,,,,,,,,,,,,,,,,,,,
,,,,,,,,,,,,,,,,,60e5868307d715a4d1445116,66,2022-02-12_11h46.56.174,lexical_decision_task_DD,2021.2.3,Win32,60.01680471,,,,,,,,,,,2.5621,1,,,,,,,,,,,,,,z,1,2.5621,,,,,,,,-0.3953704,-0.412036926,0,0,0,,0,6,6,85,1,CHULK,HB,old,z,./images/CHULKHB.png,,,,,,,,,,,,,,,,,,,,,,,,,,,,,,,,,,,,
,,,,,,,,,,,,,,,,,60e5868307d715a4d1445116,66,2022-02-12_11h46.56.174,lexical_decision_task_DD,2021.2.3,Win32,60.01680471,,,,,,,,,,,2.3712,1,,,,,,,,,,,,,,m,1,2.3712,,,,,,,,-0.3953704,-0.412036926,0,0,0,,0,7,7,58,1,BABOON,HB,old,m,./images/BABOONHB.png,,,,,,,,,,,,,,,,,,,,,,,,,,,,,,,,,,,,
,,,,,,,,,,,,,,,,,60e5868307d715a4d1445116,66,2022-02-12_11h46.56.174,lexical_decision_task_DD,2021.2.3,Win32,60.01680471,,,,,,,,,,,0.7167,1,,,,,,,,,,,,,,m,1,0.7167,,,,,,,,-0.3953704,-0.412036926,0,0,0,,0,8,8,62,1,PURSE,LB,old,m,./images/PURSELB.png,,,,,,,,,,,,,,,,,,,,,,,,,,,,,,,,,,,,
,,,,,,,,,,,,,,,,,60e5868307d715a4d1445116,66,2022-02-12_11h46.56.174,lexical_decision_task_DD,2021.2.3,Win32,60.01680471,,,,,,,,,,,1.5197,1,,,,,,,,,,,,,,z,1,1.5197,,,,,,,,-0.3953704,-0.412036926,0,0,0,,0,9,9,112,1,MYING,HB,old,z,./images/MYINGHB.png,,,,,,,,,,,,,,,,,,,,,,,,,,,,,,,,,,,,
,,,,,,,,,,,,,,,,,60e5868307d715a4d1445116,66,2022-02-12_11h46.56.174,lexical_decision_task_DD,2021.2.3,Win32,60.01680471,,,,,,,,,,,0.957,1,,,,,,,,,,,,,,m,1,0.957,,,,,,,,-0.3953704,-0.412036926,0,0,0,,0,10,10,82,1,SUNSET,HB,old,m,./images/SUNSETHB.png,,,,,,,,,,,,,,,,,,,,,,,,,,,,,,,,,,,,
,,,,,,,,,,,,,,,,,60e5868307d715a4d1445116,66,2022-02-12_11h46.56.174,lexical_decision_task_DD,2021.2.3,Win32,60.01680471,,,,,,,,,,,1.1633,1,,,,,,,,,,,,,,z,1,1.1633,,,,,,,,-0.3953704,-0.412036926,0,0,0,,0,11,11,134,1,TROSS,LB,old,z,./images/TROSSLB.png,,,,,,,,,,,,,,,,,,,,,,,,,,,,,,,,,,,,
,,,,,,,,,,,,,,,,,60e5868307d715a4d1445116,66,2022-02-12_11h46.56.174,lexical_decision_task_DD,2021.2.3,Win32,60.01680471,,,,,,,,,,,0.7678,1,,,,,,,,,,,,,,z,1,0.7678,,,,,,,,-0.3953704,-0.412036926,0,0,0,,0,12,12,146,1,MOOST,LB,old,z,./images/MOOSTLB.png,,,,,,,,,,,,,,,,,,,,,,,,,,,,,,,,,,,,
,,,,,,,,,,,,,,,,,60e5868307d715a4d1445116,66,2022-02-12_11h46.56.174,lexical_decision_task_DD,2021.2.3,Win32,60.01680471,,,,,,,,,,,0.6198,1,,,,,,,,,,,,,,m,1,0.6198,,,,,,,,-0.3953704,-0.412036926,0,0,0,,0,13,13,42,1,FOLDER,C,old,m,./images/FOLDER.png,,,,,,,,,,,,,,,,,,,,,,,,,,,,,,,,,,,,
,,,,,,,,,,,,,,,,,60e5868307d715a4d1445116,66,2022-02-12_11h46.56.174,lexical_decision_task_DD,2021.2.3,Win32,60.01680471,,,,,,,,,,,1.6264,1,,,,,,,,,,,,,,z,1,1.6264,,,,,,,,-0.3953704,-0.412036926,0,0,0,,0,14,14,151,1,TINKY,HB,old,z,./images/TINKYHB.png,,,,,,,,,,,,,,,,,,,,,,,,,,,,,,,,,,,,
,,,,,,,,,,,,,,,,,60e5868307d715a4d1445116,66,2022-02-12_11h46.56.174,lexical_decision_task_DD,2021.2.3,Win32,60.01680471,,,,,,,,,,,1.0141,1,,,,,,,,,,,,,,z,1,1.0141,,,,,,,,-0.3953704,-0.412036926,0,0,0,,0,15,15,131,1,NACES,LB,old,z,./images/NACESLB.png,,,,,,,,,,,,,,,,,,,,,,,,,,,,,,,,,,,,
,,,,,,,,,,,,,,,,,60e5868307d715a4d1445116,66,2022-02-12_11h46.56.174,lexical_decision_task_DD,2021.2.3,Win32,60.01680471,,,,,,,,,,,0.7894,1,,,,,,,,,,,,,,z,1,0.7894,,,,,,,,-0.3953704,-0.412036926,0,0,0,,0,16,16,98,1,BAMPS,LB,old,z,./images/BAMPSLB.png,,,,,,,,,,,,,,,,,,,,,,,,,,,,,,,,,,,,
,,,,,,,,,,,,,,,,,60e5868307d715a4d1445116,66,2022-02-12_11h46.56.174,lexical_decision_task_DD,2021.2.3,Win32,60.01680471,,,,,,,,,,,0.726,1,,,,,,,,,,,,,,z,1,0.726,,,,,,,,-0.3953704,-0.412036926,0,0,0,,0,17,17,119,1,PAFER,LB,old,z,./images/PAFERLB.png,,,,,,,,,,,,,,,,,,,,,,,,,,,,,,,,,,,,
,,,,,,,,,,,,,,,,,60e5868307d715a4d1445116,66,2022-02-12_11h46.56.174,lexical_decision_task_DD,2021.2.3,Win32,60.01680471,,,,,,,,,,,0.54,1,,,,,,,,,,,,,,m,1,0.54,,,,,,,,-0.3953704,-0.412036926,0,0,0,,0,18,18,78,1,LITTER,C,old,m,./images/LITTER.png,,,,,,,,,,,,,,,,,,,,,,,,,,,,,,,,,,,,
,,,,,,,,,,,,,,,,,60e5868307d715a4d1445116,66,2022-02-12_11h46.56.174,lexical_decision_task_DD,2021.2.3,Win32,60.01680471,,,,,,,,,,,0.817,1,,,,,,,,,,,,,,z,1,0.817,,,,,,,,-0.3953704,-0.412036926,0,0,0,,0,19,19,133,1,POWDY,HB,old,z,./images/POWDYHB.png,,,,,,,,,,,,,,,,,,,,,,,,,,,,,,,,,,,,
,,,,,,,,,,,,,,,,,60e5868307d715a4d1445116,66,2022-02-12_11h46.56.174,lexical_decision_task_DD,2021.2.3,Win32,60.01680471,,,,,,,,,,,1.0713,1,,,,,,,,,,,,,,m,1,1.0713,,,,,,,,-0.3953704,-0.412036926,0,0,0,,0,20,20,16,1,PENCE,HB,old,m,./images/PENCEHB.png,,,,,,,,,,,,,,,,,,,,,,,,,,,,,,,,,,,,
,,,,,,,,,,,,,,,,,60e5868307d715a4d1445116,66,2022-02-12_11h46.56.174,lexical_decision_task_DD,2021.2.3,Win32,60.01680471,,,,,,,,,,,0.6244,1,,,,,,,,,,,,,,z,1,0.6244,,,,,,,,-0.3953704,-0.412036926,0,0,0,,0,21,21,86,1,AIFED,LB,old,z,./images/AIFEDLB.png,,,,,,,,,,,,,,,,,,,,,,,,,,,,,,,,,,,,
,,,,,,,,,,,,,,,,,60e5868307d715a4d1445116,66,2022-02-12_11h46.56.174,lexical_decision_task_DD,2021.2.3,Win32,60.01680471,,,,,,,,,,,0.9846,1,,,,,,,,,,,,,,m,1,0.9846,,,,,,,,-0.3953704,-0.412036926,0,0,0,,0,22,22,52,1,BANNER,HB,old,m,./images/BANNERHB.png,,,,,,,,,,,,,,,,,,,,,,,,,,,,,,,,,,,,
,,,,,,,,,,,,,,,,,60e5868307d715a4d1445116,66,2022-02-12_11h46.56.174,lexical_decision_task_DD,2021.2.3,Win32,60.01680471,,,,,,,,,,,0.8419,1,,,,,,,,,,,,,,m,1,0.8419,,,,,,,,-0.3953704,-0.412036926,0,0,0,,0,23,23,68,1,TORCH,LB,old,m,./images/TORCHLB.png,,,,,,,,,,,,,,,,,,,,,,,,,,,,,,,,,,,,
,,,,,,,,,,,,,,,,,60e5868307d715a4d1445116,66,2022-02-12_11h46.56.174,lexical_decision_task_DD,2021.2.3,Win32,60.01680471,,,,,,,,,,,0.8129,1,,,,,,,,,,,,,,z,1,0.8129,,,,,,,,-0.3953704,-0.412036926,0,0,0,,0,24,24,90,1,NEAST,C,old,z,./images/NEAST.png,,,,,,,,,,,,,,,,,,,,,,,,,,,,,,,,,,,,
,,,,,,,,,,,,,,,,,60e5868307d715a4d1445116,66,2022-02-12_11h46.56.174,lexical_decision_task_DD,2021.2.3,Win32,60.01680471,,,,,,,,,,,0.5789,1,,,,,,,,,,,,,,m,1,0.5789,,,,,,,,-0.396296326,-0.412962909,0,0,0,,0,25,25,60,1,TWINS,C,old,m,./images/TWINS.png,,,,,,,,,,,,,,,,,,,,,,,,,,,,,,,,,,,,
,,,,,,,,,,,,,,,,,60e5868307d715a4d1445116,66,2022-02-12_11h46.56.174,lexical_decision_task_DD,2021.2.3,Win32,60.01680471,,,,,,,,,,,0.8338,1,,,,,,,,,,,,,,z,1,0.8338,,,,,,,,-0.396296326,-0.412962909,0,0,0,,0,26,26,135,1,JOODY,C,old,z,./images/JOODY.png,,,,,,,,,,,,,,,,,,,,,,,,,,,,,,,,,,,,
,,,,,,,,,,,,,,,,,60e5868307d715a4d1445116,66,2022-02-12_11h46.56.174,lexical_decision_task_DD,2021.2.3,Win32,60.01680471,,,,,,,,,,,0.7784,1,,,,,,,,,,,,,,z,1,0.7784,,,,,,,,-0.396296326,-0.412962909,0,0,0,,0,27,27,165,1,TROWN,C,old,z,./images/TROWN.png,,,,,,,,,,,,,,,,,,,,,,,,,,,,,,,,,,,,
,,,,,,,,,,,,,,,,,60e5868307d715a4d1445116,66,2022-02-12_11h46.56.174,lexical_decision_task_DD,2021.2.3,Win32,60.01680471,,,,,,,,,,,0.7963,1,,,,,,,,,,,,,,m,1,0.7963,,,,,,,,-0.396296326,-0.412962909,0,0,0,,0,28,28,53,1,CARPET,LB,old,m,./images/CARPETLB.png,,,,,,,,,,,,,,,,,,,,,,,,,,,,,,,,,,,,
,,,,,,,,,,,,,,,,,60e5868307d715a4d1445116,66,2022-02-12_11h46.56.174,lexical_decision_task_DD,2021.2.3,Win32,60.01680471,,,,,,,,,,,0.6835,1,,,,,,,,,,,,,,m,1,0.6835,,,,,,,,-0.396296326,-0.412962909,0,0,0,,0,29,29,48,1,SPORT,C,old,m,./images/SPORT.png,,,,,,,,,,,,,,,,,,,,,,,,,,,,,,,,,,,,
,,,,,,,,,,,,,,,,,60e5868307d715a4d1445116,66,2022-02-12_11h46.56.174,lexical_decision_task_DD,2021.2.3,Win32,60.01680471,,,,,,,,,,,0.6902,1,,,,,,,,,,,,,,m,1,0.6902,,,,,,,,-0.396296326,-0.412962909,0,0,0,,0,30,30,69,1,COOKER,C,old,m,./images/COOKER.png,,,,,,,,,,,,,,,,,,,,,,,,,,,,,,,,,,,,
,,,,,,,,,,,,,,,,,60e5868307d715a4d1445116,66,2022-02-12_11h46.56.174,lexical_decision_task_DD,2021.2.3,Win32,60.01680471,,,,,,,,,,,0.59,1,,,,,,,,,,,,,,z,1,0.59,,,,,,,,-0.396296326,-0.412962909,0,0,0,,0,31,31,136,1,WERVE,HB,old,z,./images/WERVEHB.png,,,,,,,,,,,,,,,,,,,,,,,,,,,,,,,,,,,,
,,,,,,,,,,,,,,,,,60e5868307d715a4d1445116,66,2022-02-12_11h46.56.174,lexical_decision_task_DD,2021.2.3,Win32,60.01680471,,,,,,,,,,,0.6554,1,,,,,,,,,,,,,,m,1,0.6554,,,,,,,,-0.396296326,-0.412962909,0,0,0,,0,32,32,80,1,WEASEL,LB,old,m,./images/WEASELLB.png,,,,,,,,,,,,,,,,,,,,,,,,,,,,,,,,,,,,
,,,,,,,,,,,,,,,,,60e5868307d715a4d1445116,66,2022-02-12_11h46.56.174,lexical_decision_task_DD,2021.2.3,Win32,60.01680471,,,,,,,,,,,0.6498,1,,,,,,,,,,,,,,m,1,0.6498,,,,,,,,-0.396296326,-0.412962909,0,0,0,,0,33,33,46,1,PEARL,HB,old,m,./images/PEARLHB.png,,,,,,,,,,,,,,,,,,,,,,,,,,,,,,,,,,,,
,,,,,,,,,,,,,,,,,60e5868307d715a4d1445116,66,2022-02-12_11h46.56.174,lexical_decision_task_DD,2021.2.3,Win32,60.01680471,,,,,,,,,,,1.5023,1,,,,,,,,,,,,,,z,1,1.5023,,,,,,,,-0.396296326,-0.412962909,0,0,0,,0,34,34,94,1,BLANS,HB,old,z,./images/BLANSHB.png,,,,,,,,,,,,,,,,,,,,,,,,,,,,,,,,,,,,
,,,,,,,,,,,,,,,,,60e5868307d715a4d1445116,66,2022-02-12_11h46.56.174,lexical_decision_task_DD,2021.2.3,Win32,60.01680471,,,,,,,,,,,0.5931,1,,,,,,,,,,,,,,m,1,0.5931,,,,,,,,-0.396296326,-0.412962909,0,0,0,,0,35,35,47,1,BERRY,LB,old,m,./images/BERRYLB.png,,,,,,,,,,,,,,,,,,,,,,,,,,,,,,,,,,,,
,,,,,,,,,,,,,,,,,60e5868307d715a4d1445116,66,2022-02-12_11h46.56.174,lexical_decision_task_DD,2021.2.3,Win32,60.01680471,,,,,,,,,,,1.3971,1,,,,,,,,,,,,,,z,1,1.3971,,,,,,,,-0.396296326,-0.412962909,0,0,0,,0,36,36,115,1,MAWNS,HB,old,z,./images/MAWNSHB.png,,,,,,,,,,,,,,,,,,,,,,,,,,,,,,,,,,,,
,,,,,,,,,,,,,,,,,60e5868307d715a4d1445116,66,2022-02-12_11h46.56.174,lexical_decision_task_DD,2021.2.3,Win32,60.01680471,,,,,,,,,,,0.9183,1,,,,,,,,,,,,,,z,1,0.9183,,,,,,,,-0.396296326,-0.412962909,0,0,0,,0,37,37,116,1,BALGY,LB,old,z,./images/BALGYLB.png,,,,,,,,,,,,,,,,,,,,,,,,,,,,,,,,,,,,
,,,,,,,,,,,,,,,,,60e5868307d715a4d1445116,66,2022-02-12_11h46.56.174,lexical_decision_task_DD,2021.2.3,Win32,60.01680471,,,,,,,,,,,0.9984,1,,,,,,,,,,,,,,m,1,0.9984,,,,,,,,-0.396296326,-0.412962909,0,0,0,,0,38,38,43,1,MOSQUE,HB,old,m,./images/MOSQUEHB.png,,,,,,,,,,,,,,,,,,,,,,,,,,,,,,,,,,,,
,,,,,,,,,,,,,,,,,60e5868307d715a4d1445116,66,2022-02-12_11h46.56.174,lexical_decision_task_DD,2021.2.3,Win32,60.01680471,,,,,,,,,,,0.9974,1,,,,,,,,,,,,,,z,1,0.9974,,,,,,,,-0.408333362,-0.39907402,0,0,0,,0,39,39,143,1,MONGS,LB,old,z,./images/MONGSLB.png,,,,,,,,,,,,,,,,,,,,,,,,,,,,,,,,,,,,
,,,,,,,,,,,,,,,,,60e5868307d715a4d1445116,66,2022-02-12_11h46.56.174,lexical_decision_task_DD,2021.2.3,Win32,60.01680471,,,,,,,,,,,0.8025,1,,,,,,,,,,,,,,z,1,0.8025,,,,,,,,-0.408333362,-0.39907402,0,0,0,,0,40,40,122,1,BLOOT,LB,old,z,./images/BLOOTLB.png,,,,,,,,,,,,,,,,,,,,,,,,,,,,,,,,,,,,
,,,,,,,,,,,,,,,,,60e5868307d715a4d1445116,66,2022-02-12_11h46.56.174,lexical_decision_task_DD,2021.2.3,Win32,60.01680471,,,,,,,,,,,0.6853,1,,,,,,,,,,,,,,z,1,0.6853,,,,,,,,-0.400000029,-0.39907402,0,0,0,space,0,41,41,159,1,CUDDY,C,old,z,./images/CUDDY.png,19.7706,,,,,,,,,,,,,,,,,,,,,,,,,,,,,,,,,,,
,,,,,,,,,,,,,,,,,60e5868307d715a4d1445116,66,2022-02-12_11h46.56.174,lexical_decision_task_DD,2021.2.3,Win32,60.01680471,,,,,,,,,,,1.597,1,,,,,,,,,,,,,,z,1,1.597,,,,,,,,-0.400000029,-0.39907402,0,0,0,,0,42,42,124,1,TUNCH,HB,old,z,./images/TUNCHHB.png,,,,,,,,,,,,,,,,,,,,,,,,,,,,,,,,,,,,
,,,,,,,,,,,,,,,,,60e5868307d715a4d1445116,66,2022-02-12_11h46.56.174,lexical_decision_task_DD,2021.2.3,Win32,60.01680471,,,,,,,,,,,0.8431,1,,,,,,,,,,,,,,z,1,0.8431,,,,,,,,-0.400000029,-0.39907402,0,0,0,,0,43,43,106,1,CLUMS,HB,old,z,./images/CLUMSHB.png,,,,,,,,,,,,,,,,,,,,,,,,,,,,,,,,,,,,
,,,,,,,,,,,,,,,,,60e5868307d715a4d1445116,66,2022-02-12_11h46.56.174,lexical_decision_task_DD,2021.2.3,Win32,60.01680471,,,,,,,,,,,0.4919,1,,,,,,,,,,,,,,m,1,0.4919,,,,,,,,-0.400000029,-0.39907402,0,0,0,,0,44,44,39,1,SHELF,C,old,m,./images/SHELF.png,,,,,,,,,,,,,,,,,,,,,,,,,,,,,,,,,,,,
,,,,,,,,,,,,,,,,,60e5868307d715a4d1445116,66,2022-02-12_11h46.56.174,lexical_decision_task_DD,2021.2.3,Win32,60.01680471,,,,,,,,,,,1.1041,1,,,,,,,,,,,,,,z,1,1.1041,,,,,,,,-0.400000029,-0.39907402,0,0,0,,0,45,45,129,1,PRANS,C,old,z,./images/PRANS.png,,,,,,,,,,,,,,,,,,,,,,,,,,,,,,,,,,,,
,,,,,,,,,,,,,,,,,60e5868307d715a4d1445116,66,2022-02-12_11h46.56.174,lexical_decision_task_DD,2021.2.3,Win32,60.01680471,,,,,,,,,,,0.5974,1,,,,,,,,,,,,,,m,1,0.5974,,,,,,,,-0.400000029,-0.39907402,0,0,0,,0,46,46,63,1,MIRROR,C,old,m,./images/MIRROR.png,,,,,,,,,,,,,,,,,,,,,,,,,,,,,,,,,,,,
,,,,,,,,,,,,,,,,,60e5868307d715a4d1445116,66,2022-02-12_11h46.56.174,lexical_decision_task_DD,2021.2.3,Win32,60.01680471,,,,,,,,,,,0.8332,1,,,,,,,,,,,,,,m,1,0.8332,,,,,,,,-0.400000029,-0.39907402,0,0,0,,0,47,47,19,1,DOUGH,HB,old,m,./images/DOUGHHB.png,,,,,,,,,,,,,,,,,,,,,,,,,,,,,,,,,,,,
,,,,,,,,,,,,,,,,,60e5868307d715a4d1445116,66,2022-02-12_11h46.56.174,lexical_decision_task_DD,2021.2.3,Win32,60.01680471,,,,,,,,,,,0.7237,1,,,,,,,,,,,,,,m,1,0.7237,,,,,,,,-0.400000029,-0.39907402,0,0,0,,0,48,48,55,1,MUFFIN,HB,old,m,./images/MUFFINHB.png,,,,,,,,,,,,,,,,,,,,,,,,,,,,,,,,,,,,
,,,,,,,,,,,,,,,,,60e5868307d715a4d1445116,66,2022-02-12_11h46.56.174,lexical_decision_task_DD,2021.2.3,Win32,60.01680471,,,,,,,,,,,0.774,1,,,,,,,,,,,,,,m,1,0.774,,,,,,,,-0.400000029,-0.39907402,0,0,0,,0,49,49,28,1,FALCON,HB,old,m,./images/FALCONHB.png,,,,,,,,,,,,,,,,,,,,,,,,,,,,,,,,,,,,
,,,,,,,,,,,,,,,,,60e5868307d715a4d1445116,66,2022-02-12_11h46.56.174,lexical_decision_task_DD,2021.2.3,Win32,60.01680471,,,,,,,,,,,0.8002,0,,,,,,,,,,,,,,z,0,0.8002,,,,,,,,-0.400000029,-0.39907402,0,0,0,,0,50,50,76,1,INFANT,HB,old,m,./images/INFANTHB.png,,,,,,,,,,,,,,,,,,,,,,,,,,,,,,,,,,,,
,,,,,,,,,,,,,,,,,60e5868307d715a4d1445116,66,2022-02-12_11h46.56.174,lexical_decision_task_DD,2021.2.3,Win32,60.01680471,,,,,,,,,,,1.3326,1,,,,,,,,,,,,,,z,1,1.3326,,,,,,,,-0.400000029,-0.39907402,0,0,0,,0,51,51,91,1,SHENS,HB,old,z,./images/SHENSHB.png,,,,,,,,,,,,,,,,,,,,,,,,,,,,,,,,,,,,
,,,,,,,,,,,,,,,,,60e5868307d715a4d1445116,66,2022-02-12_11h46.56.174,lexical_decision_task_DD,2021.2.3,Win32,60.01680471,,,,,,,,,,,0.4688,0,,,,,,,,,,,,,,m,0,0.4688,,,,,,,,-0.400000029,-0.39907402,0,0,0,,0,52,52,99,1,BACKY,C,old,z,./images/BACKY.png,,,,,,,,,,,,,,,,,,,,,,,,,,,,,,,,,,,,
,,,,,,,,,,,,,,,,,60e5868307d715a4d1445116,66,2022-02-12_11h46.56.174,lexical_decision_task_DD,2021.2.3,Win32,60.01680471,,,,,,,,,,,0.8179,1,,,,,,,,,,,,,,z,1,0.8179,,,,,,,,-0.400000029,-0.39907402,0,0,0,,0,53,53,140,1,DOVET,LB,old,z,./images/DOVETLB.png,,,,,,,,,,,,,,,,,,,,,,,,,,,,,,,,,,,,
,,,,,,,,,,,,,,,,,60e5868307d715a4d1445116,66,2022-02-12_11h46.56.174,lexical_decision_task_DD,2021.2.3,Win32,60.01680471,,,,,,,,,,,0.8293,0,,,,,,,,,,,,,,z,0,0.8293,,,,,,,,-0.400000029,-0.39907402,0,0,0,,0,54,54,72,1,NOOSE,C,old,m,./images/NOOSE.png,,,,,,,,,,,,,,,,,,,,,,,,,,,,,,,,,,,,
,,,,,,,,,,,,,,,,,60e5868307d715a4d1445116,66,2022-02-12_11h46.56.174,lexical_decision_task_DD,2021.2.3,Win32,60.01680471,,,,,,,,,,,0.6515,1,,,,,,,,,,,,,,z,1,0.6515,,,,,,,,-0.400000029,-0.39907402,0,0,0,,0,55,55,141,1,PLEET,C,old,z,./images/PLEET.png,,,,,,,,,,,,,,,,,,,,,,,,,,,,,,,,,,,,
,,,,,,,,,,,,,,,,,60e5868307d715a4d1445116,66,2022-02-12_11h46.56.174,lexical_decision_task_DD,2021.2.3,Win32,60.01680471,,,,,,,,,,,0.5634,1,,,,,,,,,,,,,,z,1,0.5634,,,,,,,,-0.400000029,-0.39907402,0,0,0,,0,56,56,126,1,GUELS,C,old,z,./images/GUELS.png,,,,,,,,,,,,,,,,,,,,,,,,,,,,,,,,,,,,
,,,,,,,,,,,,,,,,,60e5868307d715a4d1445116,66,2022-02-12_11h46.56.174,lexical_decision_task_DD,2021.2.3,Win32,60.01680471,,,,,,,,,,,0.9396,1,,,,,,,,,,,,,,m,1,0.9396,,,,,,,,-0.400000029,-0.39907402,0,0,0,,0,57,57,32,1,BARREL,LB,old,m,./images/BARRELLB.png,,,,,,,,,,,,,,,,,,,,,,,,,,,,,,,,,,,,
,,,,,,,,,,,,,,,,,60e5868307d715a4d1445116,66,2022-02-12_11h46.56.174,lexical_decision_task_DD,2021.2.3,Win32,60.01680471,,,,,,,,,,,0.6236,1,,,,,,,,,,,,,,m,1,0.6236,,,,,,,,-0.400000029,-0.39907402,0,0,0,,0,58,58,6,1,SQUARE,C,old,m,./images/SQUARE.png,,,,,,,,,,,,,,,,,,,,,,,,,,,,,,,,,,,,
,,,,,,,,,,,,,,,,,60e5868307d715a4d1445116,66,2022-02-12_11h46.56.174,lexical_decision_task_DD,2021.2.3,Win32,60.01680471,,,,,,,,,,,0.7939,1,,,,,,,,,,,,,,z,1,0.7939,,,,,,,,-0.400000029,-0.39907402,0,0,0,,0,59,59,107,1,FASKS,LB,old,z,./images/FASKSLB.png,,,,,,,,,,,,,,,,,,,,,,,,,,,,,,,,,,,,
,,,,,,,,,,,,,,,,,60e5868307d715a4d1445116,66,2022-02-12_11h46.56.174,lexical_decision_task_DD,2021.2.3,Win32,60.01680471,,,,,,,,,,,0.8579,1,,,,,,,,,,,,,,m,1,0.8579,,,,,,,,-0.400000029,-0.39907402,0,0,0,,0,60,60,71,1,PIMPLE,LB,old,m,./images/PIMPLELB.png,,,,,,,,,,,,,,,,,,,,,,,,,,,,,,,,,,,,
,,,,,,,,,,,,,,,,,60e5868307d715a4d1445116,66,2022-02-12_11h46.56.174,lexical_decision_task_DD,2021.2.3,Win32,60.01680471,,,,,,,,,,,1.008,1,,,,,,,,,,,,,,m,1,1.008,,,,,,,,-0.400000029,-0.39907402,0,0,0,,0,61,61,73,1,SNACK,HB,old,m,./images/SNACKHB.png,,,,,,,,,,,,,,,,,,,,,,,,,,,,,,,,,,,,
,,,,,,,,,,,,,,,,,60e5868307d715a4d1445116,66,2022-02-12_11h46.56.174,lexical_decision_task_DD,2021.2.3,Win32,60.01680471,,,,,,,,,,,0.6337,1,,,,,,,,,,,,,,m,1,0.6337,,,,,,,,-0.400000029,-0.39907402,0,0,0,,0,62,62,83,1,JUNGLE,LB,old,m,./images/JUNGLELB.png,,,,,,,,,,,,,,,,,,,,,,,,,,,,,,,,,,,,
,,,,,,,,,,,,,,,,,60e5868307d715a4d1445116,66,2022-02-12_11h46.56.174,lexical_decision_task_DD,2021.2.3,Win32,60.01680471,,,,,,,,,,,0.6369,1,,,,,,,,,,,,,,z,1,0.6369,,,,,,,,-0.400925955,-0.39907402,0,0,0,,0,63,63,102,1,DULLE,C,old,z,./images/DULLE.png,,,,,,,,,,,,,,,,,,,,,,,,,,,,,,,,,,,,
,,,,,,,,,,,,,,,,,60e5868307d715a4d1445116,66,2022-02-12_11h46.56.174,lexical_decision_task_DD,2021.2.3,Win32,60.01680471,,,,,,,,,,,0.6324,1,,,,,,,,,,,,,,z,1,0.6324,,,,,,,,-0.400925955,-0.39907402,0,0,0,,0,64,64,132,1,SCIFF,C,old,z,./images/SCIFF.png,,,,,,,,,,,,,,,,,,,,,,,,,,,,,,,,,,,,
,,,,,,,,,,,,,,,,,60e5868307d715a4d1445116,66,2022-02-12_11h46.56.174,lexical_decision_task_DD,2021.2.3,Win32,60.01680471,,,,,,,,,,,0.8923,1,,,,,,,,,,,,,,z,1,0.8923,,,,,,,,-0.400925955,-0.39907402,0,0,0,,0,65,65,167,1,ZONET,LB,old,z,./images/ZONETLB.png,,,,,,,,,,,,,,,,,,,,,,,,,,,,,,,,,,,,
,,,,,,,,,,,,,,,,,60e5868307d715a4d1445116,66,2022-02-12_11h46.56.174,lexical_decision_task_DD,2021.2.3,Win32,60.01680471,,,,,,,,,,,0.6619,1,,,,,,,,,,,,,,m,1,0.6619,,,,,,,,-0.400925955,-0.39907402,0,0,0,,0,66,66,56,1,PACKET,LB,old,m,./images/PACKETLB.png,,,,,,,,,,,,,,,,,,,,,,,,,,,,,,,,,,,,
,,,,,,,,,,,,,,,,,60e5868307d715a4d1445116,66,2022-02-12_11h46.56.174,lexical_decision_task_DD,2021.2.3,Win32,60.01680471,,,,,,,,,,,0.9934,1,,,,,,,,,,,,,,m,1,0.9934,,,,,,,,-0.400925955,-0.39907402,0,0,0,,0,67,67,33,1,MAGGOT,C,old,m,./images/MAGGOT.png,,,,,,,,,,,,,,,,,,,,,,,,,,,,,,,,,,,,
,,,,,,,,,,,,,,,,,60e5868307d715a4d1445116,66,2022-02-12_11h46.56.174,lexical_decision_task_DD,2021.2.3,Win32,60.01680471,,,,,,,,,,,0.5335,1,,,,,,,,,,,,,,m,1,0.5335,,,,,,,,-0.400925955,-0.39907402,0,0,0,,0,68,68,36,1,THROAT,C,old,m,./images/THROAT.png,,,,,,,,,,,,,,,,,,,,,,,,,,,,,,,,,,,,
,,,,,,,,,,,,,,,,,60e5868307d715a4d1445116,66,2022-02-12_11h46.56.174,lexical_decision_task_DD,2021.2.3,Win32,60.01680471,,,,,,,,,,,0.8122,1,,,,,,,,,,,,,,m,1,0.8122,,,,,,,,-0.400925955,-0.39907402,0,0,0,,0,69,69,61,1,CANDLE,HB,old,m,./images/CANDLEHB.png,,,,,,,,,,,,,,,,,,,,,,,,,,,,,,,,,,,,
,,,,,,,,,,,,,,,,,60e5868307d715a4d1445116,66,2022-02-12_11h46.56.174,lexical_decision_task_DD,2021.2.3,Win32,60.01680471,,,,,,,,,,,0.6389,1,,,,,,,,,,,,,,m,1,0.6389,,,,,,,,-0.400925955,-0.39907402,0,0,0,,0,70,70,74,1,CEMENT,LB,old,m,./images/CEMENTLB.png,,,,,,,,,,,,,,,,,,,,,,,,,,,,,,,,,,,,
,,,,,,,,,,,,,,,,,60e5868307d715a4d1445116,66,2022-02-12_11h46.56.174,lexical_decision_task_DD,2021.2.3,Win32,60.01680471,,,,,,,,,,,0.6619,1,,,,,,,,,,,,,,m,1,0.6619,,,,,,,,-0.400925955,-0.39907402,0,0,0,,0,71,71,24,1,SCREW,C,old,m,./images/SCREW.png,,,,,,,,,,,,,,,,,,,,,,,,,,,,,,,,,,,,
,,,,,,,,,,,,,,,,,60e5868307d715a4d1445116,66,2022-02-12_11h46.56.174,lexical_decision_task_DD,2021.2.3,Win32,60.01680471,,,,,,,,,,,0.7091,1,,,,,,,,,,,,,,z,1,0.7091,,,,,,,,-0.400925955,-0.39907402,0,0,0,,0,72,72,89,1,DRIEK,LB,old,z,./images/DRIEKLB.png,,,,,,,,,,,,,,,,,,,,,,,,,,,,,,,,,,,,
,,,,,,,,,,,,,,,,,60e5868307d715a4d1445116,66,2022-02-12_11h46.56.174,lexical_decision_task_DD,2021.2.3,Win32,60.01680471,,,,,,,,,,,0.7391,0,,,,,,,,,,,,,,z,0,0.7391,,,,,,,,-0.400925955,-0.39907402,0,0,0,,0,73,73,31,1,QUILL,HB,old,m,./images/QUILLHB.png,,,,,,,,,,,,,,,,,,,,,,,,,,,,,,,,,,,,
,,,,,,,,,,,,,,,,,60e5868307d715a4d1445116,66,2022-02-12_11h46.56.174,lexical_decision_task_DD,2021.2.3,Win32,60.01680471,,,,,,,,,,,0.8739,1,,,,,,,,,,,,,,m,1,0.8739,,,,,,,,-0.408333362,-0.398148038,0,0,0,,0,74,74,11,1,BONNET,LB,old,m,./images/BONNETLB.png,,,,,,,,,,,,,,,,,,,,,,,,,,,,,,,,,,,,
,,,,,,,,,,,,,,,,,60e5868307d715a4d1445116,66,2022-02-12_11h46.56.174,lexical_decision_task_DD,2021.2.3,Win32,60.01680471,,,,,,,,,,,0.6373,1,,,,,,,,,,,,,,m,1,0.6373,,,,,,,,-0.408333362,-0.398148038,0,0,0,,0,75,75,35,1,PEACH,LB,old,m,./images/PEACHLB.png,,,,,,,,,,,,,,,,,,,,,,,,,,,,,,,,,,,,
,,,,,,,,,,,,,,,,,60e5868307d715a4d1445116,66,2022-02-12_11h46.56.174,lexical_decision_task_DD,2021.2.3,Win32,60.01680471,,,,,,,,,,,1.1089,1,,,,,,,,,,,,,,z,1,1.1089,,,,,,,,-0.408333362,-0.398148038,0,0,0,,0,76,76,101,1,GLEET,LB,old,z,./images/GLEETLB.png,,,,,,,,,,,,,,,,,,,,,,,,,,,,,,,,,,,,
,,,,,,,,,,,,,,,,,60e5868307d715a4d1445116,66,2022-02-12_11h46.56.174,lexical_decision_task_DD,2021.2.3,Win32,60.01680471,,,,,,,,,,,0.8395,1,,,,,,,,,,,,,,m,1,0.8395,,,,,,,,-0.408333362,-0.398148038,0,0,0,,0,77,77,20,1,CRADLE,LB,old,m,./images/CRADLELB.png,,,,,,,,,,,,,,,,,,,,,,,,,,,,,,,,,,,,
,,,,,,,,,,,,,,,,,60e5868307d715a4d1445116,66,2022-02-12_11h46.56.174,lexical_decision_task_DD,2021.2.3,Win32,60.01680471,,,,,,,,,,,0.8151,1,,,,,,,,,,,,,,m,1,0.8151,,,,,,,,-0.408333362,-0.398148038,0,0,0,,0,78,78,21,1,KIDNEY,C,old,m,./images/KIDNEY.png,,,,,,,,,,,,,,,,,,,,,,,,,,,,,,,,,,,,
,,,,,,,,,,,,,,,,,60e5868307d715a4d1445116,66,2022-02-12_11h46.56.174,lexical_decision_task_DD,2021.2.3,Win32,60.01680471,,,,,,,,,,,0.7901,1,,,,,,,,,,,,,,z,1,0.7901,,,,,,,,-0.408333362,-0.398148038,0,0,0,,0,79,79,127,1,NINDY,HB,old,z,./images/NINDYHB.png,,,,,,,,,,,,,,,,,,,,,,,,,,,,,,,,,,,,
,,,,,,,,,,,,,,,,,60e5868307d715a4d1445116,66,2022-02-12_11h46.56.174,lexical_decision_task_DD,2021.2.3,Win32,60.01680471,,,,,,,,,,,0.7306,1,,,,,,,,,,,,,,m,1,0.7306,,,,,,,,-0.408333362,-0.398148038,0,0,0,,0,80,80,4,1,MUSCLE,HB,old,m,./images/MUSCLEHB.png,,,,,,,,,,,,,,,,,,,,,,,,,,,,,,,,,,,,
,,,,,,,,,,,,,,,,,60e5868307d715a4d1445116,66,2022-02-12_11h46.56.174,lexical_decision_task_DD,2021.2.3,Win32,60.01680471,,,,,,,,,,,0.61,1,,,,,,,,,,,,,,m,1,0.61,,,,,,,,-0.408333362,-0.398148038,0,0,0,,0,81,81,0,1,TOMATO,C,old,m,./images/TOMATO.png,,,,,,,,,,,,,,,,,,,,,,,,,,,,,,,,,,,,
,,,,,,,,,,,,,,,,,60e5868307d715a4d1445116,66,2022-02-12_11h46.56.174,lexical_decision_task_DD,2021.2.3,Win32,60.01680471,,,,,,,,,,,0.5226,1,,,,,,,,,,,,,,m,1,0.5226,,,,,,,,-0.408333362,-0.398148038,0,0,0,,0,82,82,30,1,STORM,C,old,m,./images/STORM.png,,,,,,,,,,,,,,,,,,,,,,,,,,,,,,,,,,,,
,,,,,,,,,,,,,,,,,60e5868307d715a4d1445116,66,2022-02-12_11h46.56.174,lexical_decision_task_DD,2021.2.3,Win32,60.01680471,,,,,,,,,,,0.5335,1,,,,,,,,,,,,,,m,1,0.5335,,,,,,,,-0.408333362,-0.398148038,0,0,0,space,0,83,83,75,1,GRAIN,C,old,m,./images/GRAIN.png,1.7987,,,,,,,,,,,,,,,,,,,,,,,,,,,,,,,,,,,
,,,,,,,,,,,,,,,,,60e5868307d715a4d1445116,66,2022-02-12_11h46.56.174,lexical_decision_task_DD,2021.2.3,Win32,60.01680471,,,,,,,,,,,0.996,1,,,,,,,,,,,,,,z,1,0.996,,,,,,,,-0.408333362,-0.398148038,0,0,0,,0,84,84,84,1,HAXES,C,old,z,./images/HAXES.png,,,,,,,,,,,,,,,,,,,,,,,,,,,,,,,,,,,,
,,,,,,,,,,,,,,,,,60e5868307d715a4d1445116,66,2022-02-12_11h46.56.174,lexical_decision_task_DD,2021.2.3,Win32,60.01680471,,,,,,,,,,,0.7133,1,,,,,,,,,,,,,,m,1,0.7133,,,,,,,,-0.408333362,-0.398148038,0,0,0,,0,85,85,38,1,LADDER,LB,old,m,./images/LADDERLB.png,,,,,,,,,,,,,,,,,,,,,,,,,,,,,,,,,,,,
,,,,,,,,,,,,,,,,,60e5868307d715a4d1445116,66,2022-02-12_11h46.56.174,lexical_decision_task_DD,2021.2.3,Win32,60.01680471,,,,,,,,,,,1.0146,1,,,,,,,,,,,,,,m,1,1.0146,,,,,,,,-0.408333362,-0.398148038,0,0,0,,0,86,86,34,1,CANYON,HB,old,m,./images/CANYONHB.png,,,,,,,,,,,,,,,,,,,,,,,,,,,,,,,,,,,,
,,,,,,,,,,,,,,,,,60e5868307d715a4d1445116,66,2022-02-12_11h46.56.174,lexical_decision_task_DD,2021.2.3,Win32,60.01680471,,,,,,,,,,,1.0283,1,,,,,,,,,,,,,,m,1,1.0283,,,,,,,,-0.408333362,-0.398148038,0,0,0,,0,87,87,40,1,SWING,HB,old,m,./images/SWINGHB.png,,,,,,,,,,,,,,,,,,,,,,,,,,,,,,,,,,,,
,,,,,,,,,,,,,,,,,60e5868307d715a4d1445116,66,2022-02-12_11h46.56.174,lexical_decision_task_DD,2021.2.3,Win32,60.01680471,,,,,,,,,,,0.6395,1,,,,,,,,,,,,,,m,1,0.6395,,,,,,,,-0.408333362,-0.398148038,0,0,0,,0,88,88,2,1,BEARD,LB,old,m,./images/BEARDLB.png,,,,,,,,,,,,,,,,,,,,,,,,,,,,,,,,,,,,
,,,,,,,,,,,,,,,,,60e5868307d715a4d1445116,66,2022-02-12_11h46.56.174,lexical_decision_task_DD,2021.2.3,Win32,60.01680471,,,,,,,,,,,1.0805,1,,,,,,,,,,,,,,z,1,1.0805,,,,,,,,-0.408333362,-0.398148038,0,0,0,,0,89,89,166,1,SHORY,HB,old,z,./images/SHORYHB.png,,,,,,,,,,,,,,,,,,,,,,,,,,,,,,,,,,,,
,,,,,,,,,,,,,,,,,60e5868307d715a4d1445116,66,2022-02-12_11h46.56.174,lexical_decision_task_DD,2021.2.3,Win32,60.01680471,,,,,,,,,,,1.3438,1,,,,,,,,,,,,,,z,1,1.3438,,,,,,,,-0.408333362,-0.398148038,0,0,0,,0,90,90,109,1,BURGE,HB,old,z,./images/BURGEHB.png,,,,,,,,,,,,,,,,,,,,,,,,,,,,,,,,,,,,
,,,,,,,,,,,,,,,,,60e5868307d715a4d1445116,66,2022-02-12_11h46.56.174,lexical_decision_task_DD,2021.2.3,Win32,60.01680471,,,,,,,,,,,0.6111,1,,,,,,,,,,,,,,m,1,0.6111,,,,,,,,-0.408333362,-0.398148038,0,0,0,,0,91,91,65,1,FARMER,LB,old,m,./images/FARMERLB.png,,,,,,,,,,,,,,,,,,,,,,,,,,,,,,,,,,,,
,,,,,,,,,,,,,,,,,60e5868307d715a4d1445116,66,2022-02-12_11h46.56.174,lexical_decision_task_DD,2021.2.3,Win32,60.01680471,,,,,,,,,,,0.7145,1,,,,,,,,,,,,,,z,1,0.7145,,,,,,,,-0.408333362,-0.398148038,0,0,0,,0,92,92,144,1,NAIRY,C,old,z,./images/NAIRY.png,,,,,,,,,,,,,,,,,,,,,,,,,,,,,,,,,,,,
,,,,,,,,,,,,,,,,,60e5868307d715a4d1445116,66,2022-02-12_11h46.56.174,lexical_decision_task_DD,2021.2.3,Win32,60.01680471,,,,,,,,,,,0.7025,1,,,,,,,,,,,,,,z,1,0.7025,,,,,,,,-0.408333362,-0.398148038,0,0,0,,0,93,93,87,1,TRING,C,old,z,./images/TRING.png,,,,,,,,,,,,,,,,,,,,,,,,,,,,,,,,,,,,
,,,,,,,,,,,,,,,,,60e5868307d715a4d1445116,66,2022-02-12_11h46.56.174,lexical_decision_task_DD,2021.2.3,Win32,60.01680471,,,,,,,,,,,0.7386,1,,,,,,,,,,,,,,z,1,0.7386,,,,,,,,-0.408333362,-0.398148038,0,0,0,,0,94,94,150,1,NOOLS,C,old,z,./images/NOOLS.png,,,,,,,,,,,,,,,,,,,,,,,,,,,,,,,,,,,,
,,,,,,,,,,,,,,,,,60e5868307d715a4d1445116,66,2022-02-12_11h46.56.174,lexical_decision_task_DD,2021.2.3,Win32,60.01680471,,,,,,,,,,,0.6877,1,,,,,,,,,,,,,,z,1,0.6877,,,,,,,,-0.408333362,-0.398148038,0,0,0,,0,95,95,117,1,STEEG,C,old,z,./images/STEEG.png,,,,,,,,,,,,,,,,,,,,,,,,,,,,,,,,,,,,
,,,,,,,,,,,,,,,,,60e5868307d715a4d1445116,66,2022-02-12_11h46.56.174,lexical_decision_task_DD,2021.2.3,Win32,60.01680471,,,,,,,,,,,0.9167,1,,,,,,,,,,,,,,z,1,0.9167,,,,,,,,-0.408333362,-0.398148038,0,0,0,,0,96,96,153,1,CLUPS,C,old,z,./images/CLUPS.png,,,,,,,,,,,,,,,,,,,,,,,,,,,,,,,,,,,,
,,,,,,,,,,,,,,,,,60e5868307d715a4d1445116,66,2022-02-12_11h46.56.174,lexical_decision_task_DD,2021.2.3,Win32,60.01680471,,,,,,,,,,,0.7278,1,,,,,,,,,,,,,,z,1,0.7278,,,,,,,,-0.408333362,-0.398148038,0,0,0,,0,97,97,149,1,VEASE,LB,old,z,./images/VEASELB.png,,,,,,,,,,,,,,,,,,,,,,,,,,,,,,,,,,,,
,,,,,,,,,,,,,,,,,60e5868307d715a4d1445116,66,2022-02-12_11h46.56.174,lexical_decision_task_DD,2021.2.3,Win32,60.01680471,,,,,,,,,,,0.5953,1,,,,,,,,,,,,,,m,1,0.5953,,,,,,,,-0.408333362,-0.398148038,0,0,0,,0,98,98,29,1,CRUMB,LB,old,m,./images/CRUMBLB.png,,,,,,,,,,,,,,,,,,,,,,,,,,,,,,,,,,,,
,,,,,,,,,,,,,,,,,60e5868307d715a4d1445116,66,2022-02-12_11h46.56.174,lexical_decision_task_DD,2021.2.3,Win32,60.01680471,,,,,,,,,,,0.6957,1,,,,,,,,,,,,,,z,1,0.6957,,,,,,,,-0.408333362,-0.398148038,0,0,0,,0,99,99,108,1,GRUET,C,old,z,./images/GRUET.png,,,,,,,,,,,,,,,,,,,,,,,,,,,,,,,,,,,,
,,,,,,,,,,,,,,,,,60e5868307d715a4d1445116,66,2022-02-12_11h46.56.174,lexical_decision_task_DD,2021.2.3,Win32,60.01680471,,,,,,,,,,,0.877,1,,,,,,,,,,,,,,z,1,0.877,,,,,,,,-0.408333362,-0.398148038,0,0,0,,0,100,100,93,1,SMONE,C,old,z,./images/SMONE.png,,,,,,,,,,,,,,,,,,,,,,,,,,,,,,,,,,,,
,,,,,,,,,,,,,,,,,60e5868307d715a4d1445116,66,2022-02-12_11h46.56.174,lexical_decision_task_DD,2021.2.3,Win32,60.01680471,,,,,,,,,,,0.6333,1,,,,,,,,,,,,,,z,1,0.6333,,,,,,,,-0.408333362,-0.398148038,0,0,0,,0,101,101,96,1,KEAMS,C,old,z,./images/KEAMS.png,,,,,,,,,,,,,,,,,,,,,,,,,,,,,,,,,,,,
,,,,,,,,,,,,,,,,,60e5868307d715a4d1445116,66,2022-02-12_11h46.56.174,lexical_decision_task_DD,2021.2.3,Win32,60.01680471,,,,,,,,,,,1.401,0,,,,,,,,,,,,,,m,0,1.401,,,,,,,,-0.408333362,-0.398148038,0,0,0,,0,102,102,88,1,GLUSH,HB,old,z,./images/GLUSHHB.png,,,,,,,,,,,,,,,,,,,,,,,,,,,,,,,,,,,,
,,,,,,,,,,,,,,,,,60e5868307d715a4d1445116,66,2022-02-12_11h46.56.174,lexical_decision_task_DD,2021.2.3,Win32,60.01680471,,,,,,,,,,,0.6926,1,,,,,,,,,,,,,,z,1,0.6926,,,,,,,,-0.408333362,-0.398148038,0,0,0,,0,103,103,114,1,RIKES,C,old,z,./images/RIKES.png,,,,,,,,,,,,,,,,,,,,,,,,,,,,,,,,,,,,
,,,,,,,,,,,,,,,,,60e5868307d715a4d1445116,66,2022-02-12_11h46.56.174,lexical_decision_task_DD,2021.2.3,Win32,60.01680471,,,,,,,,,,,0.8346,0,,,,,,,,,,,,,,m,0,0.8346,,,,,,,,-0.408333362,-0.398148038,0,0,0,,0,104,104,128,1,GRIFT,LB,old,z,./images/GRIFTLB.png,,,,,,,,,,,,,,,,,,,,,,,,,,,,,,,,,,,,
,,,,,,,,,,,,,,,,,60e5868307d715a4d1445116,66,2022-02-12_11h46.56.174,lexical_decision_task_DD,2021.2.3,Win32,60.01680471,,,,,,,,,,,0.5864,1,,,,,,,,,,,,,,z,1,0.5864,,,,,,,,-0.408333362,-0.398148038,0,0,0,,0,105,105,137,1,JOOST,LB,old,z,./images/JOOSTLB.png,,,,,,,,,,,,,,,,,,,,,,,,,,,,,,,,,,,,
,,,,,,,,,,,,,,,,,60e5868307d715a4d1445116,66,2022-02-12_11h46.56.174,lexical_decision_task_DD,2021.2.3,Win32,60.01680471,,,,,,,,,,,0.6606,1,,,,,,,,,,,,,,m,1,0.6606,,,,,,,,-0.408333362,-0.398148038,0,0,0,,0,106,106,45,1,KITTEN,C,old,m,./images/KITTEN.png,,,,,,,,,,,,,,,,,,,,,,,,,,,,,,,,,,,,
,,,,,,,,,,,,,,,,,60e5868307d715a4d1445116,66,2022-02-12_11h46.56.174,lexical_decision_task_DD,2021.2.3,Win32,60.01680471,,,,,,,,,,,0.7759,1,,,,,,,,,,,,,,z,1,0.7759,,,,,,,,-0.408333362,-0.398148038,0,0,0,,0,107,107,125,1,MOOKY,LB,old,z,./images/MOOKYLB.png,,,,,,,,,,,,,,,,,,,,,,,,,,,,,,,,,,,,
,,,,,,,,,,,,,,,,,60e5868307d715a4d1445116,66,2022-02-12_11h46.56.174,lexical_decision_task_DD,2021.2.3,Win32,60.01680471,,,,,,,,,,,2.1836,1,,,,,,,,,,,,,,z,1,2.1836,,,,,,,,-0.408333362,-0.398148038,0,0,0,,0,108,108,100,1,DRIBS,HB,old,z,./images/DRIBSHB.png,,,,,,,,,,,,,,,,,,,,,,,,,,,,,,,,,,,,
,,,,,,,,,,,,,,,,,60e5868307d715a4d1445116,66,2022-02-12_11h46.56.174,lexical_decision_task_DD,2021.2.3,Win32,60.01680471,,,,,,,,,,,0.9847,1,,,,,,,,,,,,,,m,1,0.9847,,,,,,,,-0.408333362,-0.398148038,0,0,0,,0,109,109,22,1,MELON,HB,old,m,./images/MELONHB.png,,,,,,,,,,,,,,,,,,,,,,,,,,,,,,,,,,,,
,,,,,,,,,,,,,,,,,60e5868307d715a4d1445116,66,2022-02-12_11h46.56.174,lexical_decision_task_DD,2021.2.3,Win32,60.01680471,,,,,,,,,,,1.1116,1,,,,,,,,,,,,,,m,1,1.1116,,,,,,,,-0.408333362,-0.398148038,0,0,0,,0,110,110,64,1,JELLY,HB,old,m,./images/JELLYHB.png,,,,,,,,,,,,,,,,,,,,,,,,,,,,,,,,,,,,
,,,,,,,,,,,,,,,,,60e5868307d715a4d1445116,66,2022-02-12_11h46.56.174,lexical_decision_task_DD,2021.2.3,Win32,60.01680471,,,,,,,,,,,0.8085,1,,,,,,,,,,,,,,m,1,0.8085,,,,,,,,-0.408333362,-0.398148038,0,0,0,,0,111,111,79,1,CRUST,HB,old,m,./images/CRUSTHB.png,,,,,,,,,,,,,,,,,,,,,,,,,,,,,,,,,,,,
,,,,,,,,,,,,,,,,,60e5868307d715a4d1445116,66,2022-02-12_11h46.56.174,lexical_decision_task_DD,2021.2.3,Win32,60.01680471,,,,,,,,,,,1.217,1,,,,,,,,,,,,,,z,1,1.217,,,,,,,,-0.408333362,-0.398148038,0,0,0,,0,112,112,158,1,EGECT,LB,old,z,./images/EGECTLB.png,,,,,,,,,,,,,,,,,,,,,,,,,,,,,,,,,,,,
,,,,,,,,,,,,,,,,,60e5868307d715a4d1445116,66,2022-02-12_11h46.56.174,lexical_decision_task_DD,2021.2.3,Win32,60.01680471,,,,,,,,,,,0.8292,1,,,,,,,,,,,,,,m,1,0.8292,,,,,,,,-0.408333362,-0.398148038,0,0,0,,0,113,113,7,1,PAINT,HB,old,m,./images/PAINTHB.png,,,,,,,,,,,,,,,,,,,,,,,,,,,,,,,,,,,,
,,,,,,,,,,,,,,,,,60e5868307d715a4d1445116,66,2022-02-12_11h46.56.174,lexical_decision_task_DD,2021.2.3,Win32,60.01680471,,,,,,,,,,,1.6384,1,,,,,,,,,,,,,,z,1,1.6384,,,,,,,,-0.408333362,-0.398148038,0,0,0,,0,114,114,142,1,PLASK,HB,old,z,./images/PLASKHB.png,,,,,,,,,,,,,,,,,,,,,,,,,,,,,,,,,,,,
,,,,,,,,,,,,,,,,,60e5868307d715a4d1445116,66,2022-02-12_11h46.56.174,lexical_decision_task_DD,2021.2.3,Win32,60.01680471,,,,,,,,,,,0.777,1,,,,,,,,,,,,,,z,1,0.777,,,,,,,,-0.408333362,-0.398148038,0,0,0,,0,115,115,155,1,CANGY,LB,old,z,./images/CANGYLB.png,,,,,,,,,,,,,,,,,,,,,,,,,,,,,,,,,,,,
,,,,,,,,,,,,,,,,,60e5868307d715a4d1445116,66,2022-02-12_11h46.56.174,lexical_decision_task_DD,2021.2.3,Win32,60.01680471,,,,,,,,,,,0.8187,1,,,,,,,,,,,,,,z,1,0.8187,,,,,,,,-0.408333362,-0.398148038,0,0,0,,0,116,116,113,1,LINEW,LB,old,z,./images/LINEWLB.png,,,,,,,,,,,,,,,,,,,,,,,,,,,,,,,,,,,,
,,,,,,,,,,,,,,,,,60e5868307d715a4d1445116,66,2022-02-12_11h46.56.174,lexical_decision_task_DD,2021.2.3,Win32,60.01680471,,,,,,,,,,,1.1072,1,,,,,,,,,,,,,,m,1,1.1072,,,,,,,,-0.408333362,-0.398148038,0,0,0,,0,117,117,17,1,SKIING,LB,old,m,./images/SKIINGLB.png,,,,,,,,,,,,,,,,,,,,,,,,,,,,,,,,,,,,
,,,,,,,,,,,,,,,,,60e5868307d715a4d1445116,66,2022-02-12_11h46.56.174,lexical_decision_task_DD,2021.2.3,Win32,60.01680471,,,,,,,,,,,0.6632,1,,,,,,,,,,,,,,z,1,0.6632,,,,,,,,-0.408333362,-0.398148038,0,0,0,,0,118,118,105,1,MOKER,C,old,z,./images/MOKER.png,,,,,,,,,,,,,,,,,,,,,,,,,,,,,,,,,,,,
,,,,,,,,,,,,,,,,,60e5868307d715a4d1445116,66,2022-02-12_11h46.56.174,lexical_decision_task_DD,2021.2.3,Win32,60.01680471,,,,,,,,,,,0.9305,1,,,,,,,,,,,,,,z,1,0.9305,,,,,,,,-0.408333362,-0.398148038,0,0,0,,0,119,119,148,1,JOMS,HB,old,z,./images/JOMSHB.png,,,,,,,,,,,,,,,,,,,,,,,,,,,,,,,,,,,,
,,,,,,,,,,,,,,,,,60e5868307d715a4d1445116,66,2022-02-12_11h46.56.174,lexical_decision_task_DD,2021.2.3,Win32,60.01680471,,,,,,,,,,,1.3918,1,,,,,,,,,,,,,,m,1,1.3918,,,,,,,,-0.408333362,-0.398148038,0,0,0,,0,120,120,37,1,BIRTH,HB,old,m,./images/BIRTHHB.png,,,,,,,,,,,,,,,,,,,,,,,,,,,,,,,,,,,,
,,,,,,,,,,,,,,,,,60e5868307d715a4d1445116,66,2022-02-12_11h46.56.174,lexical_decision_task_DD,2021.2.3,Win32,60.01680471,,,,,,,,,,,0.5925,1,,,,,,,,,,,,,,z,1,0.5925,,,,,,,,-0.408333362,-0.398148038,0,0,0,,0,121,121,95,1,HANTY,LB,old,z,./images/HANTYLB.png,,,,,,,,,,,,,,,,,,,,,,,,,,,,,,,,,,,,
,,,,,,,,,,,,,,,,,60e5868307d715a4d1445116,66,2022-02-12_11h46.56.174,lexical_decision_task_DD,2021.2.3,Win32,60.01680471,,,,,,,,,,,0.6494,1,,,,,,,,,,,,,,m,1,0.6494,,,,,,,,-0.408333362,-0.398148038,0,0,0,,0,122,122,3,1,FINGER,C,old,m,./images/FINGER.png,,,,,,,,,,,,,,,,,,,,,,,,,,,,,,,,,,,,
,,,,,,,,,,,,,,,,,60e5868307d715a4d1445116,66,2022-02-12_11h46.56.174,lexical_decision_task_DD,2021.2.3,Win32,60.01680471,,,,,,,,,,,0.9908,1,,,,,,,,,,,,,,m,1,0.9908,,,,,,,,-0.408333362,-0.398148038,0,0,0,,0,123,123,70,1,URINE,HB,old,m,./images/URINEHB.png,,,,,,,,,,,,,,,,,,,,,,,,,,,,,,,,,,,,
,,,,,,,,,,,,,,,,,60e5868307d715a4d1445116,66,2022-02-12_11h46.56.174,lexical_decision_task_DD,2021.2.3,Win32,60.01680471,,,,,,,,,,,0.6339,1,,,,,,,,,,,,,,m,1,0.6339,,,,,,,,-0.408333362,-0.398148038,0,0,0,,0,124,124,5,1,PASTA,LB,old,m,./images/PASTALB.png,,,,,,,,,,,,,,,,,,,,,,,,,,,,,,,,,,,,
,,,,,,,,,,,,,,,,,60e5868307d715a4d1445116,66,2022-02-12_11h46.56.174,lexical_decision_task_DD,2021.2.3,Win32,60.01680471,,,,,,,,,,,0.6053,1,,,,,,,,,,,,,,z,1,0.6053,,,,,,,,-0.408333362,-0.398148038,0,0,0,space,0,125,125,156,1,HIXES,C,old,z,./images/HIXES.png,1.3467,,,,,,,,,,,,,,,,,,,,,,,,,,,,,,,,,,,
,,,,,,,,,,,,,,,,,60e5868307d715a4d1445116,66,2022-02-12_11h46.56.174,lexical_decision_task_DD,2021.2.3,Win32,60.01680471,,,,,,,,,,,0.6201,1,,,,,,,,,,,,,,z,1,0.6201,,,,,,,,-0.408333362,-0.398148038,0,0,0,,0,126,126,147,1,ZOLES,C,old,z,./images/ZOLES.png,,,,,,,,,,,,,,,,,,,,,,,,,,,,,,,,,,,,
,,,,,,,,,,,,,,,,,60e5868307d715a4d1445116,66,2022-02-12_11h46.56.174,lexical_decision_task_DD,2021.2.3,Win32,60.01680471,,,,,,,,,,,1.4285,1,,,,,,,,,,,,,,z,1,1.4285,,,,,,,,-0.408333362,-0.398148038,0,0,0,,0,127,127,154,1,THINT,HB,old,z,./images/THINTHB.png,,,,,,,,,,,,,,,,,,,,,,,,,,,,,,,,,,,,
,,,,,,,,,,,,,,,,,60e5868307d715a4d1445116,66,2022-02-12_11h46.56.174,lexical_decision_task_DD,2021.2.3,Win32,60.01680471,,,,,,,,,,,0.9983,1,,,,,,,,,,,,,,z,1,0.9983,,,,,,,,-0.408333362,-0.398148038,0,0,0,,0,128,128,103,1,FLORT,HB,old,z,./images/FLORTHB.png,,,,,,,,,,,,,,,,,,,,,,,,,,,,,,,,,,,,
,,,,,,,,,,,,,,,,,60e5868307d715a4d1445116,66,2022-02-12_11h46.56.174,lexical_decision_task_DD,2021.2.3,Win32,60.01680471,,,,,,,,,,,0.6824,1,,,,,,,,,,,,,,z,1,0.6824,,,,,,,,-0.408333362,-0.398148038,0,0,0,,0,129,129,161,1,BLAPS,LB,old,z,./images/BLAPSLB.png,,,,,,,,,,,,,,,,,,,,,,,,,,,,,,,,,,,,
,,,,,,,,,,,,,,,,,60e5868307d715a4d1445116,66,2022-02-12_11h46.56.174,lexical_decision_task_DD,2021.2.3,Win32,60.01680471,,,,,,,,,,,0.6509,1,,,,,,,,,,,,,,m,1,0.6509,,,,,,,,-0.408333362,-0.398148038,0,0,0,,0,130,130,66,1,SWEAT,C,old,m,./images/SWEAT.png,,,,,,,,,,,,,,,,,,,,,,,,,,,,,,,,,,,,
,,,,,,,,,,,,,,,,,60e5868307d715a4d1445116,66,2022-02-12_11h46.56.174,lexical_decision_task_DD,2021.2.3,Win32,60.01680471,,,,,,,,,,,0.5464,1,,,,,,,,,,,,,,m,1,0.5464,,,,,,,,-0.408333362,-0.398148038,0,0,0,,0,131,131,26,1,SMOKER,LB,old,m,./images/SMOKERLB.png,,,,,,,,,,,,,,,,,,,,,,,,,,,,,,,,,,,,
,,,,,,,,,,,,,,,,,60e5868307d715a4d1445116,66,2022-02-12_11h46.56.174,lexical_decision_task_DD,2021.2.3,Win32,60.01680471,,,,,,,,,,,0.7218,1,,,,,,,,,,,,,,m,1,0.7218,,,,,,,,-0.408333362,-0.398148038,0,0,0,,0,132,132,27,1,ATTIC,C,old,m,./images/ATTIC.png,,,,,,,,,,,,,,,,,,,,,,,,,,,,,,,,,,,,
,,,,,,,,,,,,,,,,,60e5868307d715a4d1445116,66,2022-02-12_11h46.56.174,lexical_decision_task_DD,2021.2.3,Win32,60.01680471,,,,,,,,,,,0.7498,1,,,,,,,,,,,,,,m,1,0.7498,,,,,,,,-0.408333362,-0.398148038,0,0,0,,0,133,133,25,1,WRIST,HB,old,m,./images/WRISTHB.png,,,,,,,,,,,,,,,,,,,,,,,,,,,,,,,,,,,,
,,,,,,,,,,,,,,,,,60e5868307d715a4d1445116,66,2022-02-12_11h46.56.174,lexical_decision_task_DD,2021.2.3,Win32,60.01680471,,,,,,,,,,,0.6659,1,,,,,,,,,,,,,,m,1,0.6659,,,,,,,,-0.408333362,-0.398148038,0,0,0,,0,134,134,8,1,TULIP,LB,old,m,./images/TULIPLB.png,,,,,,,,,,,,,,,,,,,,,,,,,,,,,,,,,,,,
,,,,,,,,,,,,,,,,,60e5868307d715a4d1445116,66,2022-02-12_11h46.56.174,lexical_decision_task_DD,2021.2.3,Win32,60.01680471,,,,,,,,,,,0.5856,1,,,,,,,,,,,,,,m,1,0.5856,,,,,,,,-0.408333362,-0.398148038,0,0,0,,0,135,135,15,1,GREASE,C,old,m,./images/GREASE.png,,,,,,,,,,,,,,,,,,,,,,,,,,,,,,,,,,,,
,,,,,,,,,,,,,,,,,60e5868307d715a4d1445116,66,2022-02-12_11h46.56.174,lexical_decision_task_DD,2021.2.3,Win32,60.01680471,,,,,,,,,,,1.0487,1,,,,,,,,,,,,,,m,1,1.0487,,,,,,,,-0.408333362,-0.398148038,0,0,0,,0,136,136,13,1,MOTOR,HB,old,m,./images/MOTORHB.png,,,,,,,,,,,,,,,,,,,,,,,,,,,,,,,,,,,,
,,,,,,,,,,,,,,,,,60e5868307d715a4d1445116,66,2022-02-12_11h46.56.174,lexical_decision_task_DD,2021.2.3,Win32,60.01680471,,,,,,,,,,,0.6282,0,,,,,,,,,,,,,,m,0,0.6282,,,,,,,,-0.408333362,-0.398148038,0,0,0,,0,137,137,164,1,SGREW,LB,old,z,./images/SGREWLB.png,,,,,,,,,,,,,,,,,,,,,,,,,,,,,,,,,,,,
,,,,,,,,,,,,,,,,,60e5868307d715a4d1445116,66,2022-02-12_11h46.56.174,lexical_decision_task_DD,2021.2.3,Win32,60.01680471,,,,,,,,,,,1.9494,1,,,,,,,,,,,,,,z,1,1.9494,,,,,,,,-0.408333362,-0.398148038,0,0,0,,0,138,138,121,1,CEERS,HB,old,z,./images/CEERSHB.png,,,,,,,,,,,,,,,,,,,,,,,,,,,,,,,,,,,,
,,,,,,,,,,,,,,,,,60e5868307d715a4d1445116,66,2022-02-12_11h46.56.174,lexical_decision_task_DD,2021.2.3,Win32,60.01680471,,,,,,,,,,,0.7138,1,,,,,,,,,,,,,,m,1,0.7138,,,,,,,,-0.408333362,-0.398148038,0,0,0,,0,139,139,51,1,ONION,C,old,m,./images/ONION.png,,,,,,,,,,,,,,,,,,,,,,,,,,,,,,,,,,,,
,,,,,,,,,,,,,,,,,60e5868307d715a4d1445116,66,2022-02-12_11h46.56.174,lexical_decision_task_DD,2021.2.3,Win32,60.01680471,,,,,,,,,,,0.6882,1,,,,,,,,,,,,,,m,1,0.6882,,,,,,,,-0.403703733,-0.395370374,0,0,0,,0,140,140,81,1,POODLE,C,old,m,./images/POODLE.png,,,,,,,,,,,,,,,,,,,,,,,,,,,,,,,,,,,,
,,,,,,,,,,,,,,,,,60e5868307d715a4d1445116,66,2022-02-12_11h46.56.174,lexical_decision_task_DD,2021.2.3,Win32,60.01680471,,,,,,,,,,,0.7021,1,,,,,,,,,,,,,,m,1,0.7021,,,,,,,,-0.403703733,-0.395370374,0,0,0,,0,141,141,77,1,COUCH,LB,old,m,./images/COUCHLB.png,,,,,,,,,,,,,,,,,,,,,,,,,,,,,,,,,,,,
,,,,,,,,,,,,,,,,,60e5868307d715a4d1445116,66,2022-02-12_11h46.56.174,lexical_decision_task_DD,2021.2.3,Win32,60.01680471,,,,,,,,,,,0.7192,1,,,,,,,,,,,,,,m,1,0.7192,,,,,,,,-0.403703733,-0.395370374,0,0,0,,0,142,142,50,1,MALLET,LB,old,m,./images/MALLETLB.png,,,,,,,,,,,,,,,,,,,,,,,,,,,,,,,,,,,,
,,,,,,,,,,,,,,,,,60e5868307d715a4d1445116,66,2022-02-12_11h46.56.174,lexical_decision_task_DD,2021.2.3,Win32,60.01680471,,,,,,,,,,,0.7099,1,,,,,,,,,,,,,,m,1,0.7099,,,,,,,,-0.403703733,-0.395370374,0,0,0,,0,143,143,57,1,MOOSE,C,old,m,./images/MOOSE.png,,,,,,,,,,,,,,,,,,,,,,,,,,,,,,,,,,,,
,,,,,,,,,,,,,,,,,60e5868307d715a4d1445116,66,2022-02-12_11h46.56.174,lexical_decision_task_DD,2021.2.3,Win32,60.01680471,,,,,,,,,,,0.6673,1,,,,,,,,,,,,,,m,1,0.6673,,,,,,,,-0.403703733,-0.395370374,0,0,0,,0,144,144,41,1,STRING,LB,old,m,./images/STRINGLB.png,,,,,,,,,,,,,,,,,,,,,,,,,,,,,,,,,,,,
,,,,,,,,,,,,,,,,,60e5868307d715a4d1445116,66,2022-02-12_11h46.56.174,lexical_decision_task_DD,2021.2.3,Win32,60.01680471,,,,,,,,,,,0.7715,1,,,,,,,,,,,,,,z,1,0.7715,,,,,,,,-0.403703733,-0.395370374,0,0,0,,0,145,145,152,1,FRAIN,LB,old,z,./images/FRAINLB.png,,,,,,,,,,,,,,,,,,,,,,,,,,,,,,,,,,,,
,,,,,,,,,,,,,,,,,60e5868307d715a4d1445116,66,2022-02-12_11h46.56.174,lexical_decision_task_DD,2021.2.3,Win32,60.01680471,,,,,,,,,,,0.9218,1,,,,,,,,,,,,,,z,1,0.9218,,,,,,,,-0.403703733,-0.395370374,0,0,0,,0,146,146,157,1,INLER,HB,old,z,./images/INLERHB.png,,,,,,,,,,,,,,,,,,,,,,,,,,,,,,,,,,,,
,,,,,,,,,,,,,,,,,60e5868307d715a4d1445116,66,2022-02-12_11h46.56.174,lexical_decision_task_DD,2021.2.3,Win32,60.01680471,,,,,,,,,,,0.7818,1,,,,,,,,,,,,,,m,1,0.7818,,,,,,,,-0.403703733,-0.395370374,0,0,0,,0,147,147,23,1,WALRUS,LB,old,m,./images/WALRUSLB.png,,,,,,,,,,,,,,,,,,,,,,,,,,,,,,,,,,,,
,,,,,,,,,,,,,,,,,60e5868307d715a4d1445116,66,2022-02-12_11h46.56.174,lexical_decision_task_DD,2021.2.3,Win32,60.01680471,,,,,,,,,,,0.7856,1,,,,,,,,,,,,,,m,1,0.7856,,,,,,,,-0.403703733,-0.395370374,0,0,0,,0,148,148,9,1,RHINO,C,old,m,./images/RHINO.png,,,,,,,,,,,,,,,,,,,,,,,,,,,,,,,,,,,,
,,,,,,,,,,,,,,,,,60e5868307d715a4d1445116,66,2022-02-12_11h46.56.174,lexical_decision_task_DD,2021.2.3,Win32,60.01680471,,,,,,,,,,,1.3507,0,,,,,,,,,,,,,,m,0,1.3507,,,,,,,,-0.403703733,-0.395370374,0,0,0,,0,149,149,118,1,BAVEL,HB,old,z,./images/BAVELHB.png,,,,,,,,,,,,,,,,,,,,,,,,,,,,,,,,,,,,
,,,,,,,,,,,,,,,,,60e5868307d715a4d1445116,66,2022-02-12_11h46.56.174,lexical_decision_task_DD,2021.2.3,Win32,60.01680471,,,,,,,,,,,0.6649,1,,,,,,,,,,,,,,m,1,0.6649,,,,,,,,-0.403703733,-0.395370374,0,0,0,,0,150,150,14,1,PICKLE,LB,old,m,./images/PICKLELB.png,,,,,,,,,,,,,,,,,,,,,,,,,,,,,,,,,,,,
,,,,,,,,,,,,,,,,,60e5868307d715a4d1445116,66,2022-02-12_11h46.56.174,lexical_decision_task_DD,2021.2.3,Win32,60.01680471,,,,,,,,,,,1.0693,1,,,,,,,,,,,,,,z,1,1.0693,,,,,,,,-0.403703733,-0.395370374,0,0,0,,0,151,151,145,1,LAMEL,HB,old,z,./images/LAMELHB.png,,,,,,,,,,,,,,,,,,,,,,,,,,,,,,,,,,,,
,,,,,,,,,,,,,,,,,60e5868307d715a4d1445116,66,2022-02-12_11h46.56.174,lexical_decision_task_DD,2021.2.3,Win32,60.01680471,,,,,,,,,,,1.2961,1,,,,,,,,,,,,,,m,1,1.2961,,,,,,,,-0.403703733,-0.395370374,0,0,0,,0,152,152,49,1,DRUMS,HB,old,m,./images/DRUMSHB.png,,,,,,,,,,,,,,,,,,,,,,,,,,,,,,,,,,,,
,,,,,,,,,,,,,,,,,60e5868307d715a4d1445116,66,2022-02-12_11h46.56.174,lexical_decision_task_DD,2021.2.3,Win32,60.01680471,,,,,,,,,,,0.895,1,,,,,,,,,,,,,,m,1,0.895,,,,,,,,-0.403703733,-0.395370374,0,0,0,,0,153,153,67,1,SAILOR,HB,old,m,./images/SAILORHB.png,,,,,,,,,,,,,,,,,,,,,,,,,,,,,,,,,,,,
,,,,,,,,,,,,,,,,,60e5868307d715a4d1445116,66,2022-02-12_11h46.56.174,lexical_decision_task_DD,2021.2.3,Win32,60.01680471,,,,,,,,,,,0.8032,1,,,,,,,,,,,,,,m,1,0.8032,,,,,,,,-0.403703733,-0.395370374,0,0,0,,0,154,154,10,1,BELLY,HB,old,m,./images/BELLYHB.png,,,,,,,,,,,,,,,,,,,,,,,,,,,,,,,,,,,,
,,,,,,,,,,,,,,,,,60e5868307d715a4d1445116,66,2022-02-12_11h46.56.174,lexical_decision_task_DD,2021.2.3,Win32,60.01680471,,,,,,,,,,,0.576,1,,,,,,,,,,,,,,m,1,0.576,,,,,,,,-0.403703733,-0.395370374,0,0,0,,0,155,155,44,1,LIZARD,LB,old,m,./images/LIZARDLB.png,,,,,,,,,,,,,,,,,,,,,,,,,,,,,,,,,,,,
,,,,,,,,,,,,,,,,,60e5868307d715a4d1445116,66,2022-02-12_11h46.56.174,lexical_decision_task_DD,2021.2.3,Win32,60.01680471,,,,,,,,,,,0.7964,1,,,,,,,,,,,,,,z,1,0.7964,,,,,,,,-0.403703733,-0.395370374,0,0,0,,0,156,156,120,1,RINED,C,old,z,./images/RINED.png,,,,,,,,,,,,,,,,,,,,,,,,,,,,,,,,,,,,
,,,,,,,,,,,,,,,,,60e5868307d715a4d1445116,66,2022-02-12_11h46.56.174,lexical_decision_task_DD,2021.2.3,Win32,60.01680471,,,,,,,,,,,0.8591,1,,,,,,,,,,,,,,z,1,0.8591,,,,,,,,-0.403703733,-0.395370374,0,0,0,,0,157,157,111,1,HOSSE,C,old,z,./images/HOSSE.png,,,,,,,,,,,,,,,,,,,,,,,,,,,,,,,,,,,,
,,,,,,,,,,,,,,,,,60e5868307d715a4d1445116,66,2022-02-12_11h46.56.174,lexical_decision_task_DD,2021.2.3,Win32,60.01680471,,,,,,,,,,,0.7026,1,,,,,,,,,,,,,,m,1,0.7026,,,,,,,,-0.403703733,-0.395370374,0,0,0,,0,158,158,12,1,SHORE,C,old,m,./images/SHORE.png,,,,,,,,,,,,,,,,,,,,,,,,,,,,,,,,,,,,
,,,,,,,,,,,,,,,,,60e5868307d715a4d1445116,66,2022-02-12_11h46.56.174,lexical_decision_task_DD,2021.2.3,Win32,60.01680471,,,,,,,,,,,1.1391,1,,,,,,,,,,,,,,m,1,1.1391,,,,,,,,-0.403703733,-0.395370374,0,0,0,,0,159,159,1,1,PLANK,HB,old,m,./images/PLANKHB.png,,,,,,,,,,,,,,,,,,,,,,,,,,,,,,,,,,,,
,,,,,,,,,,,,,,,,,60e5868307d715a4d1445116,66,2022-02-12_11h46.56.174,lexical_decision_task_DD,2021.2.3,Win32,60.01680471,,,,,,,,,,,0.926,1,,,,,,,,,,,,,,z,1,0.926,,,,,,,,-0.403703733,-0.395370374,0,0,0,,0,160,160,130,1,CRILL,HB,old,z,./images/CRILLHB.png,,,,,,,,,,,,,,,,,,,,,,,,,,,,,,,,,,,,
,,,,,,,,,,,,,,,,,60e5868307d715a4d1445116,66,2022-02-12_11h46.56.174,lexical_decision_task_DD,2021.2.3,Win32,60.01680471,,,,,,,,,,,0.8758,1,,,,,,,,,,,,,,z,1,0.8758,,,,,,,,-0.403703733,-0.395370374,0,0,0,,0,161,161,138,1,PLICE,C,old,z,./images/PLICE.png,,,,,,,,,,,,,,,,,,,,,,,,,,,,,,,,,,,,
,,,,,,,,,,,,,,,,,60e5868307d715a4d1445116,66,2022-02-12_11h46.56.174,lexical_decision_task_DD,2021.2.3,Win32,60.01680471,,,,,,,,,,,1.0785,1,,,,,,,,,,,,,,z,1,1.0785,,,,,,,,-0.403703733,-0.395370374,0,0,0,,0,162,162,160,1,VEETS,HB,old,z,./images/VEETSHB.png,,,,,,,,,,,,,,,,,,,,,,,,,,,,,,,,,,,,
,,,,,,,,,,,,,,,,,60e5868307d715a4d1445116,66,2022-02-12_11h46.56.174,lexical_decision_task_DD,2021.2.3,Win32,60.01680471,,,,,,,,,,,1.116,1,,,,,,,,,,,,,,z,1,1.116,,,,,,,,-0.403703733,-0.395370374,0,0,0,,0,163,163,110,1,CRUNK,LB,old,z,./images/CRUNKLB.png,,,,,,,,,,,,,,,,,,,,,,,,,,,,,,,,,,,,
,,,,,,,,,,,,,,,,,60e5868307d715a4d1445116,66,2022-02-12_11h46.56.174,lexical_decision_task_DD,2021.2.3,Win32,60.01680471,,,,,,,,,,,0.8844,1,,,,,,,,,,,,,,m,1,0.8844,,,,,,,,-0.403703733,-0.395370374,0,0,0,,0,164,164,18,1,JAGUAR,C,old,m,./images/JAGUAR.png,,,,,,,,,,,,,,,,,,,,,,,,,,,,,,,,,,,,
,,,,,,,,,,,,,,,,,60e5868307d715a4d1445116,66,2022-02-12_11h46.56.174,lexical_decision_task_DD,2021.2.3,Win32,60.01680471,,,,,,,,,,,0.6467,1,,,,,,,,,,,,,,m,1,0.6467,,,,,,,,-0.403703733,-0.395370374,0,0,0,,0,165,165,59,1,BURIAL,LB,old,m,./images/BURIALLB.png,,,,,,,,,,,,,,,,,,,,,,,,,,,,,,,,,,,,
,,,,,,,,,,,,,,,,,60e5868307d715a4d1445116,66,2022-02-12_11h46.56.174,lexical_decision_task_DD,2021.2.3,Win32,60.01680471,,,,,,,,,,,0.794,1,,,,,,,,,,,,,,z,1,0.794,,,,,,,,-0.403703733,-0.395370374,0,0,0,,0,166,166,92,1,PAIMS,LB,old,z,./images/PAIMSLB.png,,,,,,,,,,,,,,,,,,,,,,,,,,,,,,,,,,,,
,,,,,,,,,,,,,,,,,60e5868307d715a4d1445116,66,2022-02-12_11h46.56.174,lexical_decision_task_DD,2021.2.3,Win32,60.01680471,,,,,,,,,,,1.0541,1,,,,,,,,,,,,,,z,1,1.0541,,,,,,,,-0.403703733,-0.395370374,0,0,0,,0,167,167,123,1,SEDGE,C,old,z,./images/SEDGE.png,,,,,,,,,,,,,,,,,,,,,,,,,,,,,,,,,,,,
,,,,,,,,,,,,,,,,,60e5868307d715a4d1445116,66,2022-02-12_11h46.56.174,lexical_decision_task_DD,2021.2.3,Win32,60.01680471,,,,,,,,,,,,,,,,,,,,,,,,,,,,,,,,,,,,,,,,,,,,,,,,How likely will it be that you will recognize the words presented slighly blurred on a scale of 0 (not likely) to 100 (most likely)?,,,,,-0.013888998,-0.404629632,1,0,0,jol_adv,5,9.2276,0,0,0,1,1,,,,,,,,,,,,,,,,,,,,,,
,,,,,,,,,,,,,,,,,60e5868307d715a4d1445116,66,2022-02-12_11h46.56.174,lexical_decision_task_DD,2021.2.3,Win32,60.01680471,,,,,,,,,,,,,,,,,,,,,,,,,,,,,,,,,,,,,,,,,,,,,,,,How likely will it be that you will recognize the words presented clearly on a scale of 0 (not likely) to 100 (most likely)?,,,,,,,,,,,6,6.3421,0,1,1,0,1,,,,,,,,,,,,,,,,,,,,,,
,,,,,,,,,,,,,,,,,60e5868307d715a4d1445116,66,2022-02-12_11h46.56.174,lexical_decision_task_DD,2021.2.3,Win32,60.01680471,,,,,,,,,,,,,,,,,,,,,,,,,,,,,,,,,,,,,,,,,,,,,,,,How likely will it be that you will recognize the words presented very blurred on a scale of 0 (not likely) to 100 (most likely)?,,,,,,,,,,,3,8.2835,0,2,2,2,1,,,,,,,,,,,,,,,,,,,,,,
space,38.4921,-0.087037085,-0.324073968,0,0,0,,,,,,1,test,"In the next phase you will be presented with the words from the the first phase. Your job is to decide whether you remember seeing the word or not. If you remember seeing the word press ""old"" or type ""m"". If you do not remember seeing the word press ""new"" or type ""z"". Please press the space bar or click on continue to begin. ",,,60e5868307d715a4d1445116,66,2022-02-12_11h46.56.174,lexical_decision_task_DD,2021.2.3,Win32,60.01680471,,,,,,,,,,,,,,,,,,,,,,,,,,,,,,,,,,,,,,,,,,,,,,,,,,,,,,,,,,,,,,,,,,0,0,0,0,1,,,,,,,,,,,,,,,,,
,,-0.009259368,-0.402777667,1,0,0,,,,,,1,test,"In the next phase you will be presented with the words from the the first phase. Your job is to decide whether you remember seeing the word or not. If you remember seeing the word press ""old"" or type ""m"". If you do not remember seeing the word press ""new"" or type ""z"". Please press the space bar or click on continue to begin. ",,,60e5868307d715a4d1445116,66,2022-02-12_11h46.56.174,lexical_decision_task_DD,2021.2.3,Win32,60.01680471,,,,,,,,,,,,,,,,,,,,,,,,,,,,,,,,,,,,,,,,,,,,,,,,,,,,,,,,,,,,,,,,,,1,0,1,0,1,instr_done_button,,,,,,,,,,,,,,,,
,,-0.009259368,-0.402777667,1,0,0,,,,,,1,test,"In the next phase you will be presented with the words from the the first phase. Your job is to decide whether you remember seeing the word or not. If you remember seeing the word press ""old"" or type ""m"". If you do not remember seeing the word press ""new"" or type ""z"". Please press the space bar or click on continue to begin. ",,,60e5868307d715a4d1445116,66,2022-02-12_11h46.56.174,lexical_decision_task_DD,2021.2.3,Win32,60.01680471,,,,,,,,,,,,,,,,,,,,,,,,,,,,,,,,,,,,,,,,,,,,,,,,,,,,,,,,,,,,,,,,,,2,0,2,0,1,instr_done_button,,,,,,,,,,,,,,,,
,,-0.013888998,-0.405555502,1,0,0,,,,,,1,test,"In the next phase you will be presented with the words from the the first phase. Your job is to decide whether you remember seeing the word or not. If you remember seeing the word press ""old"" or type ""m"". If you do not remember seeing the word press ""new"" or type ""z"". Please press the space bar or click on continue to begin. ",,,60e5868307d715a4d1445116,66,2022-02-12_11h46.56.174,lexical_decision_task_DD,2021.2.3,Win32,60.01680471,,,,,,,,,,,,,,,,,,,,,,,,,,,,,,,,,,,,,,,,,,,,,,,,,,,,,,,,,,,,,,,,,,3,0,3,0,1,instr_done_button,,,,,,,,,,,,,,,,
space,2.6508,-0.013888998,-0.405555502,0,0,0,,,,,,1,test,"In the next phase you will be presented with the words from the the first phase. Your job is to decide whether you remember seeing the word or not. If you remember seeing the word press ""old"" or type ""m"". If you do not remember seeing the word press ""new"" or type ""z"". Please press the space bar or click on continue to begin. ",,,60e5868307d715a4d1445116,66,2022-02-12_11h46.56.174,lexical_decision_task_DD,2021.2.3,Win32,60.01680471,,,,,,,,,,,,,,,,,,,,,,,,,,,,,,,,,,,,,,,,,,,,,,,,,,,,,,,,,,,,,,,,,,4,0,4,0,1,,,,,,,,,,,,,,,,,
,,,,,,,,,,,,,,,,,60e5868307d715a4d1445116,66,2022-02-12_11h46.56.174,lexical_decision_task_DD,2021.2.3,Win32,60.01680471,,,,,,,,,,,1.937,0,,,,,,,,,,,,,,,,,,,,,,,,-0.013888998,-0.405555502,0,0,0,,,,,,,PEBBLE,HB,z,m,./images/PEBBLEHB.png,,,,,,,,,,,,,,,,,,,,,m,0,1.937,,,,,,,,0,0,0,166,1,
,,,,,,,,,,,,,,,,,60e5868307d715a4d1445116,66,2022-02-12_11h46.56.174,lexical_decision_task_DD,2021.2.3,Win32,60.01680471,,,,,,,,,,,0.9064,0,,,,,,,,,,,,,,,,,,,,,,,,-0.013888998,-0.405555502,0,0,0,,,,,,,PISTOL,LB,z,m,./images/PISTOLLB.png,,,,,,,,,,,,,,,,,,,,,m,0,0.9064,,,,,,,,0,1,1,113,1,
,,,,,,,,,,,,,,,,,60e5868307d715a4d1445116,66,2022-02-12_11h46.56.174,lexical_decision_task_DD,2021.2.3,Win32,60.01680471,,,,,,,,,,,3.151,1,,,,,,,,,,,,,,,,,,,,,,,,-0.013888998,-0.405555502,0,0,0,,,,,,,FERRY,C,z,m,./images/FERRY.png,,,,,,,,,,,,,,,,,,,,,z,1,3.151,,,,,,,,0,2,2,141,1,
,,,,,,,,,,,,,,,,,60e5868307d715a4d1445116,66,2022-02-12_11h46.56.174,lexical_decision_task_DD,2021.2.3,Win32,60.01680471,,,,,,,,,,,1.2701,0,,,,,,,,,,,,,,,,,,,,,,,,-0.013888998,-0.405555502,0,0,0,,,,,,,RAZOR,HB,z,m,./images/RAZORHB.png,,,,,,,,,,,,,,,,,,,,,m,0,1.2701,,,,,,,,0,3,3,118,1,
,,,,,,,,,,,,,,,,,60e5868307d715a4d1445116,66,2022-02-12_11h46.56.174,lexical_decision_task_DD,2021.2.3,Win32,60.01680471,,,,,,,,,,,1.2178,0,,,,,,,,,,,,,,,,,,,,,,,,-0.013888998,-0.405555502,0,0,0,,,,,,,TIGER,HB,z,m,./images/TIGERHB.png,,,,,,,,,,,,,,,,,,,,,m,0,1.2178,,,,,,,,0,4,4,121,1,
,,,,,,,,,,,,,,,,,60e5868307d715a4d1445116,66,2022-02-12_11h46.56.174,lexical_decision_task_DD,2021.2.3,Win32,60.01680471,,,,,,,,,,,0.6921,1,,,,,,,,,,,,,,,,,,,,,,,,-0.013888998,-0.405555502,0,0,0,,,,,,,PEARL,HB,m,m,./images/PEARLHB.png,,,,,,,,,,,,,,,,,,,,,m,1,0.6921,,,,,,,,0,5,5,46,1,
,,,,,,,,,,,,,,,,,60e5868307d715a4d1445116,66,2022-02-12_11h46.56.174,lexical_decision_task_DD,2021.2.3,Win32,60.01680471,,,,,,,,,,,3.4505,1,,,,,,,,,,,,,,,,,,,,,,,,-0.013888998,-0.405555502,0,0,0,,,,,,,MUFFIN,HB,m,m,./images/MUFFINHB.png,,,,,,,,,,,,,,,,,,,,,m,1,3.4505,,,,,,,,0,6,6,55,1,
,,,,,,,,,,,,,,,,,60e5868307d715a4d1445116,66,2022-02-12_11h46.56.174,lexical_decision_task_DD,2021.2.3,Win32,60.01680471,,,,,,,,,,,0.8948,1,,,,,,,,,,,,,,,,,,,,,,,,-0.012963015,-0.406481427,0,0,0,,,,,,,STOOL,HB,z,m,./images/STOOLHB.png,,,,,,,,,,,,,,,,,,,,,z,1,0.8948,,,,,,,,0,7,7,127,1,
,,,,,,,,,,,,,,,,,60e5868307d715a4d1445116,66,2022-02-12_11h46.56.174,lexical_decision_task_DD,2021.2.3,Win32,60.01680471,,,,,,,,,,,0.8442,1,,,,,,,,,,,,,,,,,,,,,,,,-0.012963015,-0.406481427,0,0,0,,,,,,,DRUMS,HB,m,m,./images/DRUMSHB.png,,,,,,,,,,,,,,,,,,,,,m,1,0.8442,,,,,,,,0,8,8,49,1,
,,,,,,,,,,,,,,,,,60e5868307d715a4d1445116,66,2022-02-12_11h46.56.174,lexical_decision_task_DD,2021.2.3,Win32,60.01680471,,,,,,,,,,,1.9396,1,,,,,,,,,,,,,,,,,,,,,,,,-0.012963015,-0.406481427,0,0,0,,,,,,,CLIFF,LB,z,m,./images/CLIFFLB.png,,,,,,,,,,,,,,,,,,,,,z,1,1.9396,,,,,,,,0,9,9,92,1,
,,,,,,,,,,,,,,,,,60e5868307d715a4d1445116,66,2022-02-12_11h46.56.174,lexical_decision_task_DD,2021.2.3,Win32,60.01680471,,,,,,,,,,,1.0845,0,,,,,,,,,,,,,,,,,,,,,,,,-0.012963015,-0.406481427,0,0,0,,,,,,,DRILL,C,z,m,./images/DRILL.png,,,,,,,,,,,,,,,,,,,,,m,0,1.0845,,,,,,,,0,10,10,165,1,
,,,,,,,,,,,,,,,,,60e5868307d715a4d1445116,66,2022-02-12_11h46.56.174,lexical_decision_task_DD,2021.2.3,Win32,60.01680471,,,,,,,,,,,1.5334,1,,,,,,,,,,,,,,,,,,,,,,,,-0.014814867,-0.421296185,0,0,0,,,,,,,CANDY,C,z,m,./images/CANDY.png,,,,,,,,,,,,,,,,,,,,,z,1,1.5334,,,,,,,,0,11,11,123,1,
,,,,,,,,,,,,,,,,,60e5868307d715a4d1445116,66,2022-02-12_11h46.56.174,lexical_decision_task_DD,2021.2.3,Win32,60.01680471,,,,,,,,,,,1.6719,0,,,,,,,,,,,,,,,,,,,,,,,,-0.028703755,-0.499074015,0,0,0,,,,,,,BAKER,C,z,m,./images/BAKER.png,,,,,,,,,,,,,,,,,,,,,m,0,1.6719,,,,,,,,0,12,12,147,1,
,,,,,,,,,,,,,,,,,60e5868307d715a4d1445116,66,2022-02-12_11h46.56.174,lexical_decision_task_DD,2021.2.3,Win32,60.01680471,,,,,,,,,,,0.8238,1,,,,,,,,,,,,,,,,,,,,,,,,-0.028703755,-0.499074015,0,0,0,,,,,,,QUILL,HB,m,m,./images/QUILLHB.png,,,,,,,,,,,,,,,,,,,,,m,1,0.8238,,,,,,,,0,13,13,31,1,
,,,,,,,,,,,,,,,,,60e5868307d715a4d1445116,66,2022-02-12_11h46.56.174,lexical_decision_task_DD,2021.2.3,Win32,60.01680471,,,,,,,,,,,0.8289,1,,,,,,,,,,,,,,,,,,,,,,,,-0.028703755,-0.499074015,0,0,0,,,,,,,RHINO,C,m,m,./images/RHINO.png,,,,,,,,,,,,,,,,,,,,,m,1,0.8289,,,,,,,,0,14,14,9,1,
,,,,,,,,,,,,,,,,,60e5868307d715a4d1445116,66,2022-02-12_11h46.56.174,lexical_decision_task_DD,2021.2.3,Win32,60.01680471,,,,,,,,,,,1.4341,0,,,,,,,,,,,,,,,,,,,,,,,,-0.028703755,-0.499074015,0,0,0,,,,,,,PASTA,LB,m,m,./images/PASTALB.png,,,,,,,,,,,,,,,,,,,,,z,0,1.4341,,,,,,,,0,15,15,5,1,
,,,,,,,,,,,,,,,,,60e5868307d715a4d1445116,66,2022-02-12_11h46.56.174,lexical_decision_task_DD,2021.2.3,Win32,60.01680471,,,,,,,,,,,0.6861,1,,,,,,,,,,,,,,,,,,,,,,,,-0.028703755,-0.499074015,0,0,0,,,,,,,SNACK,HB,m,m,./images/SNACKHB.png,,,,,,,,,,,,,,,,,,,,,m,1,0.6861,,,,,,,,0,16,16,73,1,
,,,,,,,,,,,,,,,,,60e5868307d715a4d1445116,66,2022-02-12_11h46.56.174,lexical_decision_task_DD,2021.2.3,Win32,60.01680471,,,,,,,,,,,0.7678,1,,,,,,,,,,,,,,,,,,,,,,,,-0.028703755,-0.499074015,0,0,0,,,,,,,PENCE,HB,m,m,./images/PENCEHB.png,,,,,,,,,,,,,,,,,,,,,m,1,0.7678,,,,,,,,0,17,17,16,1,
,,,,,,,,,,,,,,,,,60e5868307d715a4d1445116,66,2022-02-12_11h46.56.174,lexical_decision_task_DD,2021.2.3,Win32,60.01680471,,,,,,,,,,,1.4092,1,,,,,,,,,,,,,,,,,,,,,,,,-0.028703755,-0.499074015,0,0,0,,,,,,,LAGOON,LB,z,m,./images/LAGOONLB.png,,,,,,,,,,,,,,,,,,,,,z,1,1.4092,,,,,,,,0,18,18,131,1,
,,,,,,,,,,,,,,,,,60e5868307d715a4d1445116,66,2022-02-12_11h46.56.174,lexical_decision_task_DD,2021.2.3,Win32,60.01680471,,,,,,,,,,,1.3836,1,,,,,,,,,,,,,,,,,,,,,,,,-0.028703755,-0.499074015,0,0,0,,,,,,,ARTIST,HB,z,m,./images/ARTISTHB.png,,,,,,,,,,,,,,,,,,,,,z,1,1.3836,,,,,,,,0,19,19,145,1,
,,,,,,,,,,,,,,,,,60e5868307d715a4d1445116,66,2022-02-12_11h46.56.174,lexical_decision_task_DD,2021.2.3,Win32,60.01680471,,,,,,,,,,,0.737,0,,,,,,,,,,,,,,,,,,,,,,,,-0.028703755,-0.499074015,0,0,0,,,,,,,CANYON,HB,m,m,./images/CANYONHB.png,,,,,,,,,,,,,,,,,,,,,z,0,0.737,,,,,,,,0,20,20,34,1,
,,,,,,,,,,,,,,,,,60e5868307d715a4d1445116,66,2022-02-12_11h46.56.174,lexical_decision_task_DD,2021.2.3,Win32,60.01680471,,,,,,,,,,,0.8269,1,,,,,,,,,,,,,,,,,,,,,,,,-0.028703755,-0.499074015,0,0,0,,,,,,,HOCKEY,LB,z,m,./images/HOCKEYLB.png,,,,,,,,,,,,,,,,,,,,,z,1,0.8269,,,,,,,,0,21,21,116,1,
,,,,,,,,,,,,,,,,,60e5868307d715a4d1445116,66,2022-02-12_11h46.56.174,lexical_decision_task_DD,2021.2.3,Win32,60.01680471,,,,,,,,,,,1.0738,1,,,,,,,,,,,,,,,,,,,,,,,,-0.028703755,-0.499074015,0,0,0,,,,,,,PEACH,LB,m,m,./images/PEACHLB.png,,,,,,,,,,,,,,,,,,,,,m,1,1.0738,,,,,,,,0,22,22,35,1,
,,,,,,,,,,,,,,,,,60e5868307d715a4d1445116,66,2022-02-12_11h46.56.174,lexical_decision_task_DD,2021.2.3,Win32,60.01680471,,,,,,,,,,,0.7509,1,,,,,,,,,,,,,,,,,,,,,,,,-0.028703755,-0.499074015,0,0,0,,,,,,,SAUCE,C,z,m,./images/SAUCE.png,,,,,,,,,,,,,,,,,,,,,z,1,0.7509,,,,,,,,0,23,23,135,1,
,,,,,,,,,,,,,,,,,60e5868307d715a4d1445116,66,2022-02-12_11h46.56.174,lexical_decision_task_DD,2021.2.3,Win32,60.01680471,,,,,,,,,,,0.7602,1,,,,,,,,,,,,,,,,,,,,,,,,-0.028703755,-0.499074015,0,0,0,,,,,,,FINGER,C,m,m,./images/FINGER.png,,,,,,,,,,,,,,,,,,,,,m,1,0.7602,,,,,,,,0,24,24,3,1,
,,,,,,,,,,,,,,,,,60e5868307d715a4d1445116,66,2022-02-12_11h46.56.174,lexical_decision_task_DD,2021.2.3,Win32,60.01680471,,,,,,,,,,,0.9679,1,,,,,,,,,,,,,,,,,,,,,,,,-0.028703755,-0.499074015,0,0,0,,,,,,,LLAMA,LB,z,m,./images/LLAMALB.png,,,,,,,,,,,,,,,,,,,,,z,1,0.9679,,,,,,,,0,25,25,119,1,
,,,,,,,,,,,,,,,,,60e5868307d715a4d1445116,66,2022-02-12_11h46.56.174,lexical_decision_task_DD,2021.2.3,Win32,60.01680471,,,,,,,,,,,1.0192,1,,,,,,,,,,,,,,,,,,,,,,,,-0.028703755,-0.499074015,0,0,0,,,,,,,KIDNEY,C,m,m,./images/KIDNEY.png,,,,,,,,,,,,,,,,,,,,,m,1,1.0192,,,,,,,,0,26,26,21,1,
,,,,,,,,,,,,,,,,,60e5868307d715a4d1445116,66,2022-02-12_11h46.56.174,lexical_decision_task_DD,2021.2.3,Win32,60.01680471,,,,,,,,,,,1.4753,1,,,,,,,,,,,,,,,,,,,,,,,,-0.028703755,-0.499074015,0,0,0,,,,,,,DANCER,C,z,m,./images/DANCER.png,,,,,,,,,,,,,,,,,,,,,z,1,1.4753,,,,,,,,0,27,27,105,1,
,,,,,,,,,,,,,,,,,60e5868307d715a4d1445116,66,2022-02-12_11h46.56.174,lexical_decision_task_DD,2021.2.3,Win32,60.01680471,,,,,,,,,,,0.8234,1,,,,,,,,,,,,,,,,,,,,,,,,-0.028703755,-0.499074015,0,0,0,,,,,,,PIMPLE,LB,m,m,./images/PIMPLELB.png,,,,,,,,,,,,,,,,,,,,,m,1,0.8234,,,,,,,,0,28,28,71,1,
,,,,,,,,,,,,,,,,,60e5868307d715a4d1445116,66,2022-02-12_11h46.56.174,lexical_decision_task_DD,2021.2.3,Win32,60.01680471,,,,,,,,,,,0.9376,1,,,,,,,,,,,,,,,,,,,,,,,,-0.028703755,-0.499074015,0,0,0,,,,,,,STREAM,LB,z,m,./images/STREAMLB.png,,,,,,,,,,,,,,,,,,,,,z,1,0.9376,,,,,,,,0,29,29,125,1,
,,,,,,,,,,,,,,,,,60e5868307d715a4d1445116,66,2022-02-12_11h46.56.174,lexical_decision_task_DD,2021.2.3,Win32,60.01680471,,,,,,,,,,,0.851,1,,,,,,,,,,,,,,,,,,,,,,,,-0.028703755,-0.499074015,0,0,0,,,,,,,POSTER,LB,z,m,./images/POSTERLB.png,,,,,,,,,,,,,,,,,,,,,z,1,0.851,,,,,,,,0,30,30,137,1,
,,,,,,,,,,,,,,,,,60e5868307d715a4d1445116,66,2022-02-12_11h46.56.174,lexical_decision_task_DD,2021.2.3,Win32,60.01680471,,,,,,,,,,,1.086,0,,,,,,,,,,,,,,,,,,,,,,,,-0.028703755,-0.499074015,0,0,0,,,,,,,CHALK,HB,z,m,./images/CHALKHB.png,,,,,,,,,,,,,,,,,,,,,m,0,1.086,,,,,,,,0,31,31,109,1,
,,,,,,,,,,,,,,,,,60e5868307d715a4d1445116,66,2022-02-12_11h46.56.174,lexical_decision_task_DD,2021.2.3,Win32,60.01680471,,,,,,,,,,,0.8015,1,,,,,,,,,,,,,,,,,,,,,,,,-0.028703755,-0.499074015,0,0,0,,,,,,,CLOTH,LB,z,m,./images/CLOTHLB.png,,,,,,,,,,,,,,,,,,,,,z,1,0.8015,,,,,,,,0,32,32,107,1,
,,,,,,,,,,,,,,,,,60e5868307d715a4d1445116,66,2022-02-12_11h46.56.174,lexical_decision_task_DD,2021.2.3,Win32,60.01680471,,,,,,,,,,,1.2172,1,,,,,,,,,,,,,,,,,,,,,,,,-0.028703755,-0.499074015,0,0,0,,,,,,,COLLAR,C,z,m,./images/COLLAR.png,,,,,,,,,,,,,,,,,,,,,z,1,1.2172,,,,,,,,0,33,33,99,1,
,,,,,,,,,,,,,,,,,60e5868307d715a4d1445116,66,2022-02-12_11h46.56.174,lexical_decision_task_DD,2021.2.3,Win32,60.01680471,,,,,,,,,,,0.7046,1,,,,,,,,,,,,,,,,,,,,,,,,-0.028703755,-0.499074015,0,0,0,,,,,,,CANDLE,HB,m,m,./images/CANDLEHB.png,,,,,,,,,,,,,,,,,,,,,m,1,0.7046,,,,,,,,0,34,34,61,1,
,,,,,,,,,,,,,,,,,60e5868307d715a4d1445116,66,2022-02-12_11h46.56.174,lexical_decision_task_DD,2021.2.3,Win32,60.01680471,,,,,,,,,,,0.6676,1,,,,,,,,,,,,,,,,,,,,,,,,-0.028703755,-0.499074015,0,0,0,,,,,,,WALRUS,LB,m,m,./images/WALRUSLB.png,,,,,,,,,,,,,,,,,,,,,m,1,0.6676,,,,,,,,0,35,35,23,1,
,,,,,,,,,,,,,,,,,60e5868307d715a4d1445116,66,2022-02-12_11h46.56.174,lexical_decision_task_DD,2021.2.3,Win32,60.01680471,,,,,,,,,,,0.6393,1,,,,,,,,,,,,,,,,,,,,,,,,-0.028703755,-0.499074015,0,0,0,,,,,,,PICKLE,LB,m,m,./images/PICKLELB.png,,,,,,,,,,,,,,,,,,,,,m,1,0.6393,,,,,,,,0,36,36,14,1,
,,,,,,,,,,,,,,,,,60e5868307d715a4d1445116,66,2022-02-12_11h46.56.174,lexical_decision_task_DD,2021.2.3,Win32,60.01680471,,,,,,,,,,,0.6509,0,,,,,,,,,,,,,,,,,,,,,,,,-0.028703755,-0.499074015,0,0,0,,,,,,,WALNUT,C,z,m,./images/WALNUT.png,,,,,,,,,,,,,,,,,,,,,m,0,0.6509,,,,,,,,0,37,37,84,1,
,,,,,,,,,,,,,,,,,60e5868307d715a4d1445116,66,2022-02-12_11h46.56.174,lexical_decision_task_DD,2021.2.3,Win32,60.01680471,,,,,,,,,,,0.9174,1,,,,,,,,,,,,,,,,,,,,,,,,-0.028703755,-0.499074015,0,0,0,,,,,,,TRIPOD,C,m,m,./images/TRIPOD.png,,,,,,,,,,,,,,,,,,,,,m,1,0.9174,,,,,,,,0,38,38,54,1,
,,,,,,,,,,,,,,,,,60e5868307d715a4d1445116,66,2022-02-12_11h46.56.174,lexical_decision_task_DD,2021.2.3,Win32,60.01680471,,,,,,,,,,,1.0001,1,,,,,,,,,,,,,,,,,,,,,,,,-0.028703755,-0.499074015,0,0,0,,,,,,,MIDGET,HB,z,m,./images/MIDGETHB.png,,,,,,,,,,,,,,,,,,,,,z,1,1.0001,,,,,,,,0,39,39,160,1,
,,,,,,,,,,,,,,,,,60e5868307d715a4d1445116,66,2022-02-12_11h46.56.174,lexical_decision_task_DD,2021.2.3,Win32,60.01680471,,,,,,,,,,,0.9252,1,,,,,,,,,,,,,,,,,,,,,,,,-0.028703755,-0.499074015,0,0,0,,,,,,,PLANK,HB,m,m,./images/PLANKHB.png,,,,,,,,,,,,,,,,,,,,,m,1,0.9252,,,,,,,,0,40,40,1,1,
,,,,,,,,,,,,,,,,,60e5868307d715a4d1445116,66,2022-02-12_11h46.56.174,lexical_decision_task_DD,2021.2.3,Win32,60.01680471,,,,,,,,,,,1.0075,1,,,,,,,,,,,,,,,,,,,,,,,,0.014814761,-0.402777667,1,0,0,,,,,,,BUBBLE,LB,z,m,./images/BUBBLELB.png,,,,,,,,,,,,,,,,,,,,,z,1,1.0075,,,,,,,,0,41,41,155,1,break_done_button
,,,,,,,,,,,,,,,,,60e5868307d715a4d1445116,66,2022-02-12_11h46.56.174,lexical_decision_task_DD,2021.2.3,Win32,60.01680471,,,,,,,,,,,1.0084,1,,,,,,,,,,,,,,,,,,,,,,,,0.014814761,-0.402777667,0,0,0,,,,,,,JELLY,HB,m,m,./images/JELLYHB.png,,,,,,,,,,,,,,,,,,,,,m,1,1.0084,,,,,,,,0,42,42,64,1,
,,,,,,,,,,,,,,,,,60e5868307d715a4d1445116,66,2022-02-12_11h46.56.174,lexical_decision_task_DD,2021.2.3,Win32,60.01680471,,,,,,,,,,,1.4345,1,,,,,,,,,,,,,,,,,,,,,,,,0.01944439,-0.394444391,0,0,0,,,,,,,FENCE,LB,z,m,./images/FENCELB.png,,,,,,,,,,,,,,,,,,,,,z,1,1.4345,,,,,,,,0,43,43,98,1,
,,,,,,,,,,,,,,,,,60e5868307d715a4d1445116,66,2022-02-12_11h46.56.174,lexical_decision_task_DD,2021.2.3,Win32,60.01680471,,,,,,,,,,,0.9338,1,,,,,,,,,,,,,,,,,,,,,,,,0.01944439,-0.394444391,0,0,0,,,,,,,DIVER,C,z,m,./images/DIVER.png,,,,,,,,,,,,,,,,,,,,,z,1,0.9338,,,,,,,,0,44,44,93,1,
,,,,,,,,,,,,,,,,,60e5868307d715a4d1445116,66,2022-02-12_11h46.56.174,lexical_decision_task_DD,2021.2.3,Win32,60.01680471,,,,,,,,,,,0.8422,1,,,,,,,,,,,,,,,,,,,,,,,,0.01944439,-0.394444391,0,0,0,,,,,,,BAMBOO,LB,z,m,./images/BAMBOOLB.png,,,,,,,,,,,,,,,,,,,,,z,1,0.8422,,,,,,,,0,45,45,89,1,
,,,,,,,,,,,,,,,,,60e5868307d715a4d1445116,66,2022-02-12_11h46.56.174,lexical_decision_task_DD,2021.2.3,Win32,60.01680471,,,,,,,,,,,0.8063,0,,,,,,,,,,,,,,,,,,,,,,,,0.01944439,-0.394444391,0,0,0,,,,,,,BANNER,HB,m,m,./images/BANNERHB.png,,,,,,,,,,,,,,,,,,,,,z,0,0.8063,,,,,,,,0,46,46,52,1,
,,,,,,,,,,,,,,,,,60e5868307d715a4d1445116,66,2022-02-12_11h46.56.174,lexical_decision_task_DD,2021.2.3,Win32,60.01680471,,,,,,,,,,,0.7178,1,,,,,,,,,,,,,,,,,,,,,,,,0.01944439,-0.394444391,0,0,0,,,,,,,SUNSET,HB,m,m,./images/SUNSETHB.png,,,,,,,,,,,,,,,,,,,,,m,1,0.7178,,,,,,,,0,47,47,82,1,
,,,,,,,,,,,,,,,,,60e5868307d715a4d1445116,66,2022-02-12_11h46.56.174,lexical_decision_task_DD,2021.2.3,Win32,60.01680471,,,,,,,,,,,0.8933,1,,,,,,,,,,,,,,,,,,,,,,,,0.01944439,-0.394444391,0,0,0,,,,,,,CHAIN,C,z,m,./images/CHAIN.png,,,,,,,,,,,,,,,,,,,,,z,1,0.8933,,,,,,,,0,48,48,126,1,
,,,,,,,,,,,,,,,,,60e5868307d715a4d1445116,66,2022-02-12_11h46.56.174,lexical_decision_task_DD,2021.2.3,Win32,60.01680471,,,,,,,,,,,1.2106,0,,,,,,,,,,,,,,,,,,,,,,,,0.01944439,-0.394444391,0,0,0,,,,,,,SQUARE,C,m,m,./images/SQUARE.png,,,,,,,,,,,,,,,,,,,,,z,0,1.2106,,,,,,,,0,49,49,6,1,
,,,,,,,,,,,,,,,,,60e5868307d715a4d1445116,66,2022-02-12_11h46.56.174,lexical_decision_task_DD,2021.2.3,Win32,60.01680471,,,,,,,,,,,1.1248,1,,,,,,,,,,,,,,,,,,,,,,,,0.01944439,-0.394444391,0,0,0,,,,,,,ALLEY,HB,z,m,./images/ALLEYHB.png,,,,,,,,,,,,,,,,,,,,,z,1,1.1248,,,,,,,,0,50,50,139,1,
,,,,,,,,,,,,,,,,,60e5868307d715a4d1445116,66,2022-02-12_11h46.56.174,lexical_decision_task_DD,2021.2.3,Win32,60.01680471,,,,,,,,,,,1.3674,0,,,,,,,,,,,,,,,,,,,,,,,,0.01944439,-0.394444391,0,0,0,,,,,,,FLASK,C,z,m,./images/FLASK.png,,,,,,,,,,,,,,,,,,,,,m,0,1.3674,,,,,,,,0,51,51,156,1,
,,,,,,,,,,,,,,,,,60e5868307d715a4d1445116,66,2022-02-12_11h46.56.174,lexical_decision_task_DD,2021.2.3,Win32,60.01680471,,,,,,,,,,,2.1223,1,,,,,,,,,,,,,,,,,,,,,,,,0.01944439,-0.394444391,0,0,0,,,,,,,MONKEY,C,z,m,./images/MONKEY.png,,,,,,,,,,,,,,,,,,,,,z,1,2.1223,,,,,,,,0,52,52,129,1,
,,,,,,,,,,,,,,,,,60e5868307d715a4d1445116,66,2022-02-12_11h46.56.174,lexical_decision_task_DD,2021.2.3,Win32,60.01680471,,,,,,,,,,,0.934,1,,,,,,,,,,,,,,,,,,,,,,,,0.01944439,-0.394444391,0,0,0,,,,,,,LADDER,LB,m,m,./images/LADDERLB.png,,,,,,,,,,,,,,,,,,,,,m,1,0.934,,,,,,,,0,53,53,38,1,
,,,,,,,,,,,,,,,,,60e5868307d715a4d1445116,66,2022-02-12_11h46.56.174,lexical_decision_task_DD,2021.2.3,Win32,60.01680471,,,,,,,,,,,1.4354,1,,,,,,,,,,,,,,,,,,,,,,,,0.01944439,-0.394444391,0,0,0,,,,,,,BIRTH,HB,m,m,./images/BIRTHHB.png,,,,,,,,,,,,,,,,,,,,,m,1,1.4354,,,,,,,,0,54,54,37,1,
,,,,,,,,,,,,,,,,,60e5868307d715a4d1445116,66,2022-02-12_11h46.56.174,lexical_decision_task_DD,2021.2.3,Win32,60.01680471,,,,,,,,,,,0.8345,1,,,,,,,,,,,,,,,,,,,,,,,,0.01944439,-0.394444391,0,0,0,,,,,,,CLOWN,HB,z,m,./images/CLOWNHB.png,,,,,,,,,,,,,,,,,,,,,z,1,0.8345,,,,,,,,0,55,55,106,1,
,,,,,,,,,,,,,,,,,60e5868307d715a4d1445116,66,2022-02-12_11h46.56.174,lexical_decision_task_DD,2021.2.3,Win32,60.01680471,,,,,,,,,,,1.1535,1,,,,,,,,,,,,,,,,,,,,,,,,0.01944439,-0.394444391,0,0,0,,,,,,,MOTOR,HB,m,m,./images/MOTORHB.png,,,,,,,,,,,,,,,,,,,,,m,1,1.1535,,,,,,,,0,56,56,13,1,
,,,,,,,,,,,,,,,,,60e5868307d715a4d1445116,66,2022-02-12_11h46.56.174,lexical_decision_task_DD,2021.2.3,Win32,60.01680471,,,,,,,,,,,0.8373,1,,,,,,,,,,,,,,,,,,,,,,,,0.01944439,-0.394444391,0,0,0,,,,,,,SMOKER,LB,m,m,./images/SMOKERLB.png,,,,,,,,,,,,,,,,,,,,,m,1,0.8373,,,,,,,,0,57,57,26,1,
,,,,,,,,,,,,,,,,,60e5868307d715a4d1445116,66,2022-02-12_11h46.56.174,lexical_decision_task_DD,2021.2.3,Win32,60.01680471,,,,,,,,,,,0.788,1,,,,,,,,,,,,,,,,,,,,,,,,0.01944439,-0.394444391,0,0,0,,,,,,,FALCON,HB,m,m,./images/FALCONHB.png,,,,,,,,,,,,,,,,,,,,,m,1,0.788,,,,,,,,0,58,58,28,1,
,,,,,,,,,,,,,,,,,60e5868307d715a4d1445116,66,2022-02-12_11h46.56.174,lexical_decision_task_DD,2021.2.3,Win32,60.01680471,,,,,,,,,,,0.7336,1,,,,,,,,,,,,,,,,,,,,,,,,0.01944439,-0.394444391,0,0,0,,,,,,,GREASE,C,m,m,./images/GREASE.png,,,,,,,,,,,,,,,,,,,,,m,1,0.7336,,,,,,,,0,59,59,15,1,
,,,,,,,,,,,,,,,,,60e5868307d715a4d1445116,66,2022-02-12_11h46.56.174,lexical_decision_task_DD,2021.2.3,Win32,60.01680471,,,,,,,,,,,0.9261,1,,,,,,,,,,,,,,,,,,,,,,,,0.01944439,-0.394444391,0,0,0,,,,,,,SNAKE,HB,z,m,./images/SNAKEHB.png,,,,,,,,,,,,,,,,,,,,,z,1,0.9261,,,,,,,,0,60,60,124,1,
,,,,,,,,,,,,,,,,,60e5868307d715a4d1445116,66,2022-02-12_11h46.56.174,lexical_decision_task_DD,2021.2.3,Win32,60.01680471,,,,,,,,,,,0.8172,1,,,,,,,,,,,,,,,,,,,,,,,,0.01944439,-0.394444391,0,0,0,,,,,,,NOOSE,C,m,m,./images/NOOSE.png,,,,,,,,,,,,,,,,,,,,,m,1,0.8172,,,,,,,,0,61,61,72,1,
,,,,,,,,,,,,,,,,,60e5868307d715a4d1445116,66,2022-02-12_11h46.56.174,lexical_decision_task_DD,2021.2.3,Win32,60.01680471,,,,,,,,,,,0.8925,1,,,,,,,,,,,,,,,,,,,,,,,,0.01944439,-0.394444391,0,0,0,,,,,,,BANANA,HB,z,m,./images/BANANAHB.png,,,,,,,,,,,,,,,,,,,,,z,1,0.8925,,,,,,,,0,62,62,154,1,
,,,,,,,,,,,,,,,,,60e5868307d715a4d1445116,66,2022-02-12_11h46.56.174,lexical_decision_task_DD,2021.2.3,Win32,60.01680471,,,,,,,,,,,1.5908,0,,,,,,,,,,,,,,,,,,,,,,,,0.01944439,-0.394444391,0,0,0,,,,,,,SWEAT,C,m,m,./images/SWEAT.png,,,,,,,,,,,,,,,,,,,,,z,0,1.5908,,,,,,,,0,63,63,66,1,
,,,,,,,,,,,,,,,,,60e5868307d715a4d1445116,66,2022-02-12_11h46.56.174,lexical_decision_task_DD,2021.2.3,Win32,60.01680471,,,,,,,,,,,0.7399,1,,,,,,,,,,,,,,,,,,,,,,,,0.01944439,-0.394444391,0,0,0,,,,,,,GRANNY,LB,z,m,./images/GRANNYLB.png,,,,,,,,,,,,,,,,,,,,,z,1,0.7399,,,,,,,,0,64,64,104,1,
,,,,,,,,,,,,,,,,,60e5868307d715a4d1445116,66,2022-02-12_11h46.56.174,lexical_decision_task_DD,2021.2.3,Win32,60.01680471,,,,,,,,,,,1.0515,0,,,,,,,,,,,,,,,,,,,,,,,,0.01944439,-0.394444391,0,0,0,,,,,,,PILOT,LB,z,m,./images/PILOTLB.png,,,,,,,,,,,,,,,,,,,,,m,0,1.0515,,,,,,,,0,65,65,134,1,
,,,,,,,,,,,,,,,,,60e5868307d715a4d1445116,66,2022-02-12_11h46.56.174,lexical_decision_task_DD,2021.2.3,Win32,60.01680471,,,,,,,,,,,2.3727,0,,,,,,,,,,,,,,,,,,,,,,,,0.01944439,-0.394444391,0,0,0,,,,,,,SWING,HB,m,m,./images/SWINGHB.png,,,,,,,,,,,,,,,,,,,,,z,0,2.3727,,,,,,,,0,66,66,40,1,
,,,,,,,,,,,,,,,,,60e5868307d715a4d1445116,66,2022-02-12_11h46.56.174,lexical_decision_task_DD,2021.2.3,Win32,60.01680471,,,,,,,,,,,2.0891,1,,,,,,,,,,,,,,,,,,,,,,,,0.01944439,-0.394444391,0,0,0,,,,,,,CRADLE,LB,m,m,./images/CRADLELB.png,,,,,,,,,,,,,,,,,,,,,m,1,2.0891,,,,,,,,0,67,67,20,1,
,,,,,,,,,,,,,,,,,60e5868307d715a4d1445116,66,2022-02-12_11h46.56.174,lexical_decision_task_DD,2021.2.3,Win32,60.01680471,,,,,,,,,,,1.001,1,,,,,,,,,,,,,,,,,,,,,,,,0.01944439,-0.394444391,0,0,0,,,,,,,PLANET,LB,z,m,./images/PLANETLB.png,,,,,,,,,,,,,,,,,,,,,z,1,1.001,,,,,,,,0,68,68,164,1,
,,,,,,,,,,,,,,,,,60e5868307d715a4d1445116,66,2022-02-12_11h46.56.174,lexical_decision_task_DD,2021.2.3,Win32,60.01680471,,,,,,,,,,,1.0017,1,,,,,,,,,,,,,,,,,,,,,,,,0.01944439,-0.394444391,0,0,0,,,,,,,BOILER,C,z,m,./images/BOILER.png,,,,,,,,,,,,,,,,,,,,,z,1,1.0017,,,,,,,,0,69,69,120,1,
,,,,,,,,,,,,,,,,,60e5868307d715a4d1445116,66,2022-02-12_11h46.56.174,lexical_decision_task_DD,2021.2.3,Win32,60.01680471,,,,,,,,,,,0.9072,1,,,,,,,,,,,,,,,,,,,,,,,,0.01944439,-0.394444391,0,0,0,,,,,,,FOLDER,C,m,m,./images/FOLDER.png,,,,,,,,,,,,,,,,,,,,,m,1,0.9072,,,,,,,,0,70,70,42,1,
,,,,,,,,,,,,,,,,,60e5868307d715a4d1445116,66,2022-02-12_11h46.56.174,lexical_decision_task_DD,2021.2.3,Win32,60.01680471,,,,,,,,,,,0.9344,0,,,,,,,,,,,,,,,,,,,,,,,,0.01944439,-0.394444391,0,0,0,,,,,,,STRING,LB,m,m,./images/STRINGLB.png,,,,,,,,,,,,,,,,,,,,,z,0,0.9344,,,,,,,,0,71,71,41,1,
,,,,,,,,,,,,,,,,,60e5868307d715a4d1445116,66,2022-02-12_11h46.56.174,lexical_decision_task_DD,2021.2.3,Win32,60.01680471,,,,,,,,,,,1.6041,1,,,,,,,,,,,,,,,,,,,,,,,,0.01944439,-0.394444391,0,0,0,,,,,,,BARREL,LB,m,m,./images/BARRELLB.png,,,,,,,,,,,,,,,,,,,,,m,1,1.6041,,,,,,,,0,72,72,32,1,
,,,,,,,,,,,,,,,,,60e5868307d715a4d1445116,66,2022-02-12_11h46.56.174,lexical_decision_task_DD,2021.2.3,Win32,60.01680471,,,,,,,,,,,0.7279,1,,,,,,,,,,,,,,,,,,,,,,,,0.01944439,-0.394444391,0,0,0,,,,,,,TOWEL,HB,z,m,./images/TOWELHB.png,,,,,,,,,,,,,,,,,,,,,z,1,0.7279,,,,,,,,0,73,73,85,1,
,,,,,,,,,,,,,,,,,60e5868307d715a4d1445116,66,2022-02-12_11h46.56.174,lexical_decision_task_DD,2021.2.3,Win32,60.01680471,,,,,,,,,,,0.6557,1,,,,,,,,,,,,,,,,,,,,,,,,0.01944439,-0.394444391,0,0,0,,,,,,,BEARD,LB,m,m,./images/BEARDLB.png,,,,,,,,,,,,,,,,,,,,,m,1,0.6557,,,,,,,,0,74,74,2,1,
,,,,,,,,,,,,,,,,,60e5868307d715a4d1445116,66,2022-02-12_11h46.56.174,lexical_decision_task_DD,2021.2.3,Win32,60.01680471,,,,,,,,,,,0.8406,1,,,,,,,,,,,,,,,,,,,,,,,,0.01944439,-0.394444391,0,0,0,,,,,,,BRUSH,LB,z,m,./images/BRUSHLB.png,,,,,,,,,,,,,,,,,,,,,z,1,0.8406,,,,,,,,0,75,75,143,1,
,,,,,,,,,,,,,,,,,60e5868307d715a4d1445116,66,2022-02-12_11h46.56.174,lexical_decision_task_DD,2021.2.3,Win32,60.01680471,,,,,,,,,,,1.0012,1,,,,,,,,,,,,,,,,,,,,,,,,0.01944439,-0.394444391,0,0,0,,,,,,,STEAK,HB,z,m,./images/STEAKHB.png,,,,,,,,,,,,,,,,,,,,,z,1,1.0012,,,,,,,,0,76,76,115,1,
,,,,,,,,,,,,,,,,,60e5868307d715a4d1445116,66,2022-02-12_11h46.56.174,lexical_decision_task_DD,2021.2.3,Win32,60.01680471,,,,,,,,,,,0.8888,0,,,,,,,,,,,,,,,,,,,,,,,,0.01944439,-0.394444391,0,0,0,,,,,,,LIZARD,LB,m,m,./images/LIZARDLB.png,,,,,,,,,,,,,,,,,,,,,z,0,0.8888,,,,,,,,0,77,77,44,1,
,,,,,,,,,,,,,,,,,60e5868307d715a4d1445116,66,2022-02-12_11h46.56.174,lexical_decision_task_DD,2021.2.3,Win32,60.01680471,,,,,,,,,,,0.8191,1,,,,,,,,,,,,,,,,,,,,,,,,0.01944439,-0.394444391,0,0,0,,,,,,,WEASEL,LB,m,m,./images/WEASELLB.png,,,,,,,,,,,,,,,,,,,,,m,1,0.8191,,,,,,,,0,78,78,80,1,
,,,,,,,,,,,,,,,,,60e5868307d715a4d1445116,66,2022-02-12_11h46.56.174,lexical_decision_task_DD,2021.2.3,Win32,60.01680471,,,,,,,,,,,0.9184,1,,,,,,,,,,,,,,,,,,,,,,,,0.01944439,-0.394444391,0,0,0,,,,,,,CANOE,HB,z,m,./images/CANOEHB.png,,,,,,,,,,,,,,,,,,,,,z,1,0.9184,,,,,,,,0,79,79,142,1,
,,,,,,,,,,,,,,,,,60e5868307d715a4d1445116,66,2022-02-12_11h46.56.174,lexical_decision_task_DD,2021.2.3,Win32,60.01680471,,,,,,,,,,,0.7694,1,,,,,,,,,,,,,,,,,,,,,,,,0.01944439,-0.394444391,0,0,0,,,,,,,PAINT,HB,m,m,./images/PAINTHB.png,,,,,,,,,,,,,,,,,,,,,m,1,0.7694,,,,,,,,0,80,80,7,1,
,,,,,,,,,,,,,,,,,60e5868307d715a4d1445116,66,2022-02-12_11h46.56.174,lexical_decision_task_DD,2021.2.3,Win32,60.01680471,,,,,,,,,,,0.7582,0,,,,,,,,,,,,,,,,,,,,,,,,0.01944439,-0.394444391,0,0,0,,,,,,,SHELF,C,m,m,./images/SHELF.png,,,,,,,,,,,,,,,,,,,,,z,0,0.7582,,,,,,,,0,81,81,39,1,
,,,,,,,,,,,,,,,,,60e5868307d715a4d1445116,66,2022-02-12_11h46.56.174,lexical_decision_task_DD,2021.2.3,Win32,60.01680471,,,,,,,,,,,0.7373,1,,,,,,,,,,,,,,,,,,,,,,,,0.01944439,-0.394444391,0,0,0,,,,,,,POODLE,C,m,m,./images/POODLE.png,,,,,,,,,,,,,,,,,,,,,m,1,0.7373,,,,,,,,0,82,82,81,1,
,,,,,,,,,,,,,,,,,60e5868307d715a4d1445116,66,2022-02-12_11h46.56.174,lexical_decision_task_DD,2021.2.3,Win32,60.01680471,,,,,,,,,,,0.8079,1,,,,,,,,,,,,,,,,,,,,,,,,0.01944439,-0.394444391,0,0,0,space,,,,,,HEATER,LB,z,m,./images/HEATERLB.png,2.9506,,,,,,,,,,,,,,,,,,,,z,1,0.8079,,,,,,,,0,83,83,140,1,
,,,,,,,,,,,,,,,,,60e5868307d715a4d1445116,66,2022-02-12_11h46.56.174,lexical_decision_task_DD,2021.2.3,Win32,60.01680471,,,,,,,,,,,1.0774,1,,,,,,,,,,,,,,,,,,,,,,,,0.01944439,-0.394444391,0,0,0,,,,,,,BLOKE,C,z,m,./images/BLOKE.png,,,,,,,,,,,,,,,,,,,,,z,1,1.0774,,,,,,,,0,84,84,96,1,
,,,,,,,,,,,,,,,,,60e5868307d715a4d1445116,66,2022-02-12_11h46.56.174,lexical_decision_task_DD,2021.2.3,Win32,60.01680471,,,,,,,,,,,0.9175,1,,,,,,,,,,,,,,,,,,,,,,,,0.01944439,-0.394444391,0,0,0,,,,,,,PACKET,LB,m,m,./images/PACKETLB.png,,,,,,,,,,,,,,,,,,,,,m,1,0.9175,,,,,,,,0,85,85,56,1,
,,,,,,,,,,,,,,,,,60e5868307d715a4d1445116,66,2022-02-12_11h46.56.174,lexical_decision_task_DD,2021.2.3,Win32,60.01680471,,,,,,,,,,,0.8775,1,,,,,,,,,,,,,,,,,,,,,,,,0.01944439,-0.394444391,0,0,0,,,,,,,BURIAL,LB,m,m,./images/BURIALLB.png,,,,,,,,,,,,,,,,,,,,,m,1,0.8775,,,,,,,,0,86,86,59,1,
,,,,,,,,,,,,,,,,,60e5868307d715a4d1445116,66,2022-02-12_11h46.56.174,lexical_decision_task_DD,2021.2.3,Win32,60.01680471,,,,,,,,,,,0.6936,1,,,,,,,,,,,,,,,,,,,,,,,,0.01944439,-0.394444391,0,0,0,,,,,,,TORCH,LB,m,m,./images/TORCHLB.png,,,,,,,,,,,,,,,,,,,,,m,1,0.6936,,,,,,,,0,87,87,68,1,
,,,,,,,,,,,,,,,,,60e5868307d715a4d1445116,66,2022-02-12_11h46.56.174,lexical_decision_task_DD,2021.2.3,Win32,60.01680471,,,,,,,,,,,0.8173,1,,,,,,,,,,,,,,,,,,,,,,,,0.01944439,-0.394444391,0,0,0,,,,,,,CASINO,HB,z,m,./images/CASINOHB.png,,,,,,,,,,,,,,,,,,,,,z,1,0.8173,,,,,,,,0,88,88,112,1,
,,,,,,,,,,,,,,,,,60e5868307d715a4d1445116,66,2022-02-12_11h46.56.174,lexical_decision_task_DD,2021.2.3,Win32,60.01680471,,,,,,,,,,,0.8539,1,,,,,,,,,,,,,,,,,,,,,,,,0.01944439,-0.394444391,0,0,0,,,,,,,MUMMY,HB,z,m,./images/MUMMYHB.png,,,,,,,,,,,,,,,,,,,,,z,1,0.8539,,,,,,,,0,89,89,130,1,
,,,,,,,,,,,,,,,,,60e5868307d715a4d1445116,66,2022-02-12_11h46.56.174,lexical_decision_task_DD,2021.2.3,Win32,60.01680471,,,,,,,,,,,0.8384,1,,,,,,,,,,,,,,,,,,,,,,,,0.01944439,-0.394444391,0,0,0,,,,,,,JUMPER,LB,z,m,./images/JUMPERLB.png,,,,,,,,,,,,,,,,,,,,,z,1,0.8384,,,,,,,,0,90,90,158,1,
,,,,,,,,,,,,,,,,,60e5868307d715a4d1445116,66,2022-02-12_11h46.56.174,lexical_decision_task_DD,2021.2.3,Win32,60.01680471,,,,,,,,,,,0.7427,1,,,,,,,,,,,,,,,,,,,,,,,,0.01944439,-0.394444391,0,0,0,,,,,,,DONKEY,HB,z,m,./images/DONKEYHB.png,,,,,,,,,,,,,,,,,,,,,z,1,0.7427,,,,,,,,0,91,91,103,1,
,,,,,,,,,,,,,,,,,60e5868307d715a4d1445116,66,2022-02-12_11h46.56.174,lexical_decision_task_DD,2021.2.3,Win32,60.01680471,,,,,,,,,,,0.755,1,,,,,,,,,,,,,,,,,,,,,,,,0.01944439,-0.394444391,0,0,0,,,,,,,GRAPE,HB,z,m,./images/GRAPEHB.png,,,,,,,,,,,,,,,,,,,,,z,1,0.755,,,,,,,,0,92,92,100,1,
,,,,,,,,,,,,,,,,,60e5868307d715a4d1445116,66,2022-02-12_11h46.56.174,lexical_decision_task_DD,2021.2.3,Win32,60.01680471,,,,,,,,,,,0.7108,1,,,,,,,,,,,,,,,,,,,,,,,,0.01944439,-0.394444391,0,0,0,,,,,,,MELON,HB,m,m,./images/MELONHB.png,,,,,,,,,,,,,,,,,,,,,m,1,0.7108,,,,,,,,0,93,93,22,1,
,,,,,,,,,,,,,,,,,60e5868307d715a4d1445116,66,2022-02-12_11h46.56.174,lexical_decision_task_DD,2021.2.3,Win32,60.01680471,,,,,,,,,,,0.757,0,,,,,,,,,,,,,,,,,,,,,,,,0.01944439,-0.394444391,0,0,0,,,,,,,INFANT,HB,m,m,./images/INFANTHB.png,,,,,,,,,,,,,,,,,,,,,z,0,0.757,,,,,,,,0,94,94,76,1,
,,,,,,,,,,,,,,,,,60e5868307d715a4d1445116,66,2022-02-12_11h46.56.174,lexical_decision_task_DD,2021.2.3,Win32,60.01680471,,,,,,,,,,,0.7193,1,,,,,,,,,,,,,,,,,,,,,,,,0.01944439,-0.394444391,0,0,0,,,,,,,SPINE,LB,z,m,./images/SPINELB.png,,,,,,,,,,,,,,,,,,,,,z,1,0.7193,,,,,,,,0,95,95,149,1,
,,,,,,,,,,,,,,,,,60e5868307d715a4d1445116,66,2022-02-12_11h46.56.174,lexical_decision_task_DD,2021.2.3,Win32,60.01680471,,,,,,,,,,,1.3784,1,,,,,,,,,,,,,,,,,,,,,,,,0.01944439,-0.394444391,0,0,0,,,,,,,STAIN,C,z,m,./images/STAIN.png,,,,,,,,,,,,,,,,,,,,,z,1,1.3784,,,,,,,,0,96,96,90,1,
,,,,,,,,,,,,,,,,,60e5868307d715a4d1445116,66,2022-02-12_11h46.56.174,lexical_decision_task_DD,2021.2.3,Win32,60.01680471,,,,,,,,,,,0.9413,0,,,,,,,,,,,,,,,,,,,,,,,,0.01944439,-0.394444391,0,0,0,,,,,,,MIRROR,C,m,m,./images/MIRROR.png,,,,,,,,,,,,,,,,,,,,,z,0,0.9413,,,,,,,,0,97,97,63,1,
,,,,,,,,,,,,,,,,,60e5868307d715a4d1445116,66,2022-02-12_11h46.56.174,lexical_decision_task_DD,2021.2.3,Win32,60.01680471,,,,,,,,,,,0.742,1,,,,,,,,,,,,,,,,,,,,,,,,0.01944439,-0.394444391,0,0,0,,,,,,,ATTIC,C,m,m,./images/ATTIC.png,,,,,,,,,,,,,,,,,,,,,m,1,0.742,,,,,,,,0,98,98,27,1,
,,,,,,,,,,,,,,,,,60e5868307d715a4d1445116,66,2022-02-12_11h46.56.174,lexical_decision_task_DD,2021.2.3,Win32,60.01680471,,,,,,,,,,,0.9858,1,,,,,,,,,,,,,,,,,,,,,,,,0.01944439,-0.394444391,0,0,0,,,,,,,STOVE,LB,z,m,./images/STOVELB.png,,,,,,,,,,,,,,,,,,,,,z,1,0.9858,,,,,,,,0,99,99,86,1,
,,,,,,,,,,,,,,,,,60e5868307d715a4d1445116,66,2022-02-12_11h46.56.174,lexical_decision_task_DD,2021.2.3,Win32,60.01680471,,,,,,,,,,,0.7277,0,,,,,,,,,,,,,,,,,,,,,,,,0.01944439,-0.394444391,0,0,0,,,,,,,TWINS,C,m,m,./images/TWINS.png,,,,,,,,,,,,,,,,,,,,,z,0,0.7277,,,,,,,,0,100,100,60,1,
,,,,,,,,,,,,,,,,,60e5868307d715a4d1445116,66,2022-02-12_11h46.56.174,lexical_decision_task_DD,2021.2.3,Win32,60.01680471,,,,,,,,,,,0.867,0,,,,,,,,,,,,,,,,,,,,,,,,0.01944439,-0.394444391,0,0,0,,,,,,,FARMER,LB,m,m,./images/FARMERLB.png,,,,,,,,,,,,,,,,,,,,,z,0,0.867,,,,,,,,0,101,101,65,1,
,,,,,,,,,,,,,,,,,60e5868307d715a4d1445116,66,2022-02-12_11h46.56.174,lexical_decision_task_DD,2021.2.3,Win32,60.01680471,,,,,,,,,,,0.8009,1,,,,,,,,,,,,,,,,,,,,,,,,0.01944439,-0.394444391,0,0,0,,,,,,,SLOPE,C,z,m,./images/SLOPE.png,,,,,,,,,,,,,,,,,,,,,z,1,0.8009,,,,,,,,0,102,102,114,1,
,,,,,,,,,,,,,,,,,60e5868307d715a4d1445116,66,2022-02-12_11h46.56.174,lexical_decision_task_DD,2021.2.3,Win32,60.01680471,,,,,,,,,,,0.668,1,,,,,,,,,,,,,,,,,,,,,,,,0.01944439,-0.394444391,0,0,0,,,,,,,BISHOP,HB,z,m,./images/BISHOPHB.png,,,,,,,,,,,,,,,,,,,,,z,1,0.668,,,,,,,,0,103,103,133,1,
,,,,,,,,,,,,,,,,,60e5868307d715a4d1445116,66,2022-02-12_11h46.56.174,lexical_decision_task_DD,2021.2.3,Win32,60.01680471,,,,,,,,,,,0.6518,1,,,,,,,,,,,,,,,,,,,,,,,,0.01944439,-0.394444391,0,0,0,,,,,,,MEDAL,LB,z,m,./images/MEDALLB.png,,,,,,,,,,,,,,,,,,,,,z,1,0.6518,,,,,,,,0,104,104,95,1,
,,,,,,,,,,,,,,,,,60e5868307d715a4d1445116,66,2022-02-12_11h46.56.174,lexical_decision_task_DD,2021.2.3,Win32,60.01680471,,,,,,,,,,,1.1244,1,,,,,,,,,,,,,,,,,,,,,,,,0.01944439,-0.394444391,0,0,0,,,,,,,CHERRY,C,z,m,./images/CHERRY.png,,,,,,,,,,,,,,,,,,,,,z,1,1.1244,,,,,,,,0,105,105,138,1,
,,,,,,,,,,,,,,,,,60e5868307d715a4d1445116,66,2022-02-12_11h46.56.174,lexical_decision_task_DD,2021.2.3,Win32,60.01680471,,,,,,,,,,,0.616,1,,,,,,,,,,,,,,,,,,,,,,,,0.01944439,-0.394444391,0,0,0,,,,,,,MUSCLE,HB,m,m,./images/MUSCLEHB.png,,,,,,,,,,,,,,,,,,,,,m,1,0.616,,,,,,,,0,106,106,4,1,
,,,,,,,,,,,,,,,,,60e5868307d715a4d1445116,66,2022-02-12_11h46.56.174,lexical_decision_task_DD,2021.2.3,Win32,60.01680471,,,,,,,,,,,0.938,1,,,,,,,,,,,,,,,,,,,,,,,,0.01944439,-0.394444391,0,0,0,,,,,,,FLESH,C,z,m,./images/FLESH.png,,,,,,,,,,,,,,,,,,,,,z,1,0.938,,,,,,,,0,107,107,108,1,
,,,,,,,,,,,,,,,,,60e5868307d715a4d1445116,66,2022-02-12_11h46.56.174,lexical_decision_task_DD,2021.2.3,Win32,60.01680471,,,,,,,,,,,1.1379,0,,,,,,,,,,,,,,,,,,,,,,,,0.01944439,-0.394444391,0,0,0,,,,,,,CARPET,LB,m,m,./images/CARPETLB.png,,,,,,,,,,,,,,,,,,,,,z,0,1.1379,,,,,,,,0,108,108,53,1,
,,,,,,,,,,,,,,,,,60e5868307d715a4d1445116,66,2022-02-12_11h46.56.174,lexical_decision_task_DD,2021.2.3,Win32,60.01680471,,,,,,,,,,,0.9028,1,,,,,,,,,,,,,,,,,,,,,,,,0.01944439,-0.394444391,0,0,0,,,,,,,BUTTER,C,z,m,./images/BUTTER.png,,,,,,,,,,,,,,,,,,,,,z,1,0.9028,,,,,,,,0,109,109,111,1,
,,,,,,,,,,,,,,,,,60e5868307d715a4d1445116,66,2022-02-12_11h46.56.174,lexical_decision_task_DD,2021.2.3,Win32,60.01680471,,,,,,,,,,,0.5847,1,,,,,,,,,,,,,,,,,,,,,,,,0.01944439,-0.394444391,0,0,0,,,,,,,BASKET,LB,z,m,./images/BASKETLB.png,,,,,,,,,,,,,,,,,,,,,z,1,0.5847,,,,,,,,0,110,110,128,1,
,,,,,,,,,,,,,,,,,60e5868307d715a4d1445116,66,2022-02-12_11h46.56.174,lexical_decision_task_DD,2021.2.3,Win32,60.01680471,,,,,,,,,,,0.8929,1,,,,,,,,,,,,,,,,,,,,,,,,0.01944439,-0.394444391,0,0,0,,,,,,,MALLET,LB,m,m,./images/MALLETLB.png,,,,,,,,,,,,,,,,,,,,,m,1,0.8929,,,,,,,,0,111,111,50,1,
,,,,,,,,,,,,,,,,,60e5868307d715a4d1445116,66,2022-02-12_11h46.56.174,lexical_decision_task_DD,2021.2.3,Win32,60.01680471,,,,,,,,,,,0.729,1,,,,,,,,,,,,,,,,,,,,,,,,0.01944439,-0.394444391,0,0,0,,,,,,,RULER,HB,z,m,./images/RULERHB.png,,,,,,,,,,,,,,,,,,,,,z,1,0.729,,,,,,,,0,112,112,163,1,
,,,,,,,,,,,,,,,,,60e5868307d715a4d1445116,66,2022-02-12_11h46.56.174,lexical_decision_task_DD,2021.2.3,Win32,60.01680471,,,,,,,,,,,0.9195,1,,,,,,,,,,,,,,,,,,,,,,,,0.01944439,-0.394444391,0,0,0,,,,,,,ONION,C,m,m,./images/ONION.png,,,,,,,,,,,,,,,,,,,,,m,1,0.9195,,,,,,,,0,113,113,51,1,
,,,,,,,,,,,,,,,,,60e5868307d715a4d1445116,66,2022-02-12_11h46.56.174,lexical_decision_task_DD,2021.2.3,Win32,60.01680471,,,,,,,,,,,0.851,1,,,,,,,,,,,,,,,,,,,,,,,,0.01944439,-0.394444391,0,0,0,,,,,,,DESERT,HB,z,m,./images/DESERTHB.png,,,,,,,,,,,,,,,,,,,,,z,1,0.851,,,,,,,,0,114,114,136,1,
,,,,,,,,,,,,,,,,,60e5868307d715a4d1445116,66,2022-02-12_11h46.56.174,lexical_decision_task_DD,2021.2.3,Win32,60.01680471,,,,,,,,,,,0.793,1,,,,,,,,,,,,,,,,,,,,,,,,0.01944439,-0.394444391,0,0,0,,,,,,,WHEEL,LB,z,m,./images/WHEELLB.png,,,,,,,,,,,,,,,,,,,,,z,1,0.793,,,,,,,,0,115,115,161,1,
,,,,,,,,,,,,,,,,,60e5868307d715a4d1445116,66,2022-02-12_11h46.56.174,lexical_decision_task_DD,2021.2.3,Win32,60.01680471,,,,,,,,,,,1.4873,1,,,,,,,,,,,,,,,,,,,,,,,,0.01944439,-0.394444391,0,0,0,,,,,,,GRAIN,C,m,m,./images/GRAIN.png,,,,,,,,,,,,,,,,,,,,,m,1,1.4873,,,,,,,,0,116,116,75,1,
,,,,,,,,,,,,,,,,,60e5868307d715a4d1445116,66,2022-02-12_11h46.56.174,lexical_decision_task_DD,2021.2.3,Win32,60.01680471,,,,,,,,,,,0.7774,1,,,,,,,,,,,,,,,,,,,,,,,,0.01944439,-0.394444391,0,0,0,,,,,,,COUCH,LB,m,m,./images/COUCHLB.png,,,,,,,,,,,,,,,,,,,,,m,1,0.7774,,,,,,,,0,117,117,77,1,
,,,,,,,,,,,,,,,,,60e5868307d715a4d1445116,66,2022-02-12_11h46.56.174,lexical_decision_task_DD,2021.2.3,Win32,60.01680471,,,,,,,,,,,0.6841,1,,,,,,,,,,,,,,,,,,,,,,,,0.01944439,-0.394444391,0,0,0,,,,,,,TULIP,LB,m,m,./images/TULIPLB.png,,,,,,,,,,,,,,,,,,,,,m,1,0.6841,,,,,,,,0,118,118,8,1,
,,,,,,,,,,,,,,,,,60e5868307d715a4d1445116,66,2022-02-12_11h46.56.174,lexical_decision_task_DD,2021.2.3,Win32,60.01680471,,,,,,,,,,,0.637,1,,,,,,,,,,,,,,,,,,,,,,,,0.01944439,-0.394444391,0,0,0,,,,,,,THROAT,C,m,m,./images/THROAT.png,,,,,,,,,,,,,,,,,,,,,m,1,0.637,,,,,,,,0,119,119,36,1,
,,,,,,,,,,,,,,,,,60e5868307d715a4d1445116,66,2022-02-12_11h46.56.174,lexical_decision_task_DD,2021.2.3,Win32,60.01680471,,,,,,,,,,,0.7541,1,,,,,,,,,,,,,,,,,,,,,,,,0.01944439,-0.394444391,0,0,0,,,,,,,SKIING,LB,m,m,./images/SKIINGLB.png,,,,,,,,,,,,,,,,,,,,,m,1,0.7541,,,,,,,,0,120,120,17,1,
,,,,,,,,,,,,,,,,,60e5868307d715a4d1445116,66,2022-02-12_11h46.56.174,lexical_decision_task_DD,2021.2.3,Win32,60.01680471,,,,,,,,,,,0.6675,1,,,,,,,,,,,,,,,,,,,,,,,,0.01944439,-0.394444391,0,0,0,,,,,,,BUNNY,HB,z,m,./images/BUNNYHB.png,,,,,,,,,,,,,,,,,,,,,z,1,0.6675,,,,,,,,0,121,121,97,1,
,,,,,,,,,,,,,,,,,60e5868307d715a4d1445116,66,2022-02-12_11h46.56.174,lexical_decision_task_DD,2021.2.3,Win32,60.01680471,,,,,,,,,,,0.9849,1,,,,,,,,,,,,,,,,,,,,,,,,0.01944439,-0.394444391,0,0,0,,,,,,,DOUGH,HB,m,m,./images/DOUGHHB.png,,,,,,,,,,,,,,,,,,,,,m,1,0.9849,,,,,,,,0,122,122,19,1,
,,,,,,,,,,,,,,,,,60e5868307d715a4d1445116,66,2022-02-12_11h46.56.174,lexical_decision_task_DD,2021.2.3,Win32,60.01680471,,,,,,,,,,,2.3072,0,,,,,,,,,,,,,,,,,,,,,,,,0.01944439,-0.394444391,0,0,0,,,,,,,SAILOR,HB,m,m,./images/SAILORHB.png,,,,,,,,,,,,,,,,,,,,,z,0,2.3072,,,,,,,,0,123,123,67,1,
,,,,,,,,,,,,,,,,,60e5868307d715a4d1445116,66,2022-02-12_11h46.56.174,lexical_decision_task_DD,2021.2.3,Win32,60.01680471,,,,,,,,,,,0.6674,1,,,,,,,,,,,,,,,,,,,,,,,,0.01944439,-0.394444391,0,0,0,,,,,,,GLOVE,HB,z,m,./images/GLOVEHB.png,,,,,,,,,,,,,,,,,,,,,z,1,0.6674,,,,,,,,0,124,124,157,1,
,,,,,,,,,,,,,,,,,60e5868307d715a4d1445116,66,2022-02-12_11h46.56.174,lexical_decision_task_DD,2021.2.3,Win32,60.01680471,,,,,,,,,,,0.805,0,,,,,,,,,,,,,,,,,,,,,,,,0.01944439,-0.394444391,0,0,0,space,,,,,,BERRY,LB,m,m,./images/BERRYLB.png,1.9375,,,,,,,,,,,,,,,,,,,,z,0,0.805,,,,,,,,0,125,125,47,1,
,,,,,,,,,,,,,,,,,60e5868307d715a4d1445116,66,2022-02-12_11h46.56.174,lexical_decision_task_DD,2021.2.3,Win32,60.01680471,,,,,,,,,,,0.8564,1,,,,,,,,,,,,,,,,,,,,,,,,0.01944439,-0.412036926,0,0,0,,,,,,,BABOON,HB,m,m,./images/BABOONHB.png,,,,,,,,,,,,,,,,,,,,,m,1,0.8564,,,,,,,,0,126,126,58,1,
,,,,,,,,,,,,,,,,,60e5868307d715a4d1445116,66,2022-02-12_11h46.56.174,lexical_decision_task_DD,2021.2.3,Win32,60.01680471,,,,,,,,,,,1.3897,0,,,,,,,,,,,,,,,,,,,,,,,,0.01944439,-0.412036926,0,0,0,,,,,,,BELLY,HB,m,m,./images/BELLYHB.png,,,,,,,,,,,,,,,,,,,,,z,0,1.3897,,,,,,,,0,127,127,10,1,
,,,,,,,,,,,,,,,,,60e5868307d715a4d1445116,66,2022-02-12_11h46.56.174,lexical_decision_task_DD,2021.2.3,Win32,60.01680471,,,,,,,,,,,0.7005,1,,,,,,,,,,,,,,,,,,,,,,,,0.01944439,-0.412036926,0,0,0,,,,,,,COOKER,C,m,m,./images/COOKER.png,,,,,,,,,,,,,,,,,,,,,m,1,0.7005,,,,,,,,0,128,128,69,1,
,,,,,,,,,,,,,,,,,60e5868307d715a4d1445116,66,2022-02-12_11h46.56.174,lexical_decision_task_DD,2021.2.3,Win32,60.01680471,,,,,,,,,,,0.6185,1,,,,,,,,,,,,,,,,,,,,,,,,0.01944439,-0.412036926,0,0,0,,,,,,,MOOSE,C,m,m,./images/MOOSE.png,,,,,,,,,,,,,,,,,,,,,m,1,0.6185,,,,,,,,0,129,129,57,1,
,,,,,,,,,,,,,,,,,60e5868307d715a4d1445116,66,2022-02-12_11h46.56.174,lexical_decision_task_DD,2021.2.3,Win32,60.01680471,,,,,,,,,,,0.6422,1,,,,,,,,,,,,,,,,,,,,,,,,0.01944439,-0.412036926,0,0,0,,,,,,,JAGUAR,C,m,m,./images/JAGUAR.png,,,,,,,,,,,,,,,,,,,,,m,1,0.6422,,,,,,,,0,130,130,18,1,
,,,,,,,,,,,,,,,,,60e5868307d715a4d1445116,66,2022-02-12_11h46.56.174,lexical_decision_task_DD,2021.2.3,Win32,60.01680471,,,,,,,,,,,0.7677,1,,,,,,,,,,,,,,,,,,,,,,,,0.01944439,-0.412036926,0,0,0,,,,,,,PARCEL,C,z,m,./images/PARCEL.png,,,,,,,,,,,,,,,,,,,,,z,1,0.7677,,,,,,,,0,131,131,102,1,
,,,,,,,,,,,,,,,,,60e5868307d715a4d1445116,66,2022-02-12_11h46.56.174,lexical_decision_task_DD,2021.2.3,Win32,60.01680471,,,,,,,,,,,0.7433,1,,,,,,,,,,,,,,,,,,,,,,,,0.01944439,-0.412036926,0,0,0,,,,,,,VALLEY,LB,z,m,./images/VALLEYLB.png,,,,,,,,,,,,,,,,,,,,,z,1,0.7433,,,,,,,,0,132,132,152,1,
,,,,,,,,,,,,,,,,,60e5868307d715a4d1445116,66,2022-02-12_11h46.56.174,lexical_decision_task_DD,2021.2.3,Win32,60.01680471,,,,,,,,,,,0.8767,1,,,,,,,,,,,,,,,,,,,,,,,,0.01944439,-0.412036926,0,0,0,,,,,,,CRATER,C,z,m,./images/CRATER.png,,,,,,,,,,,,,,,,,,,,,z,1,0.8767,,,,,,,,0,133,133,87,1,
