key_resp.keys,instr_done_touch.x,instr_done_touch.y,instr_done_touch.leftButton,instr_done_touch.midButton,instr_done_touch.rightButton,instr_done_touch.clicked_name,instruction_pages.thisRepN,instruction_pages.thisTrialN,instruction_pages.thisN,instruction_pages.thisIndex,instruction_pages.ran,pageN,phase,instruct_text,has_image,instruct_image,participant,age,date,expName,psychopyVersion,OS,frameRate,key_resp.rt,response.keys,response.corr,response.rt,touch_resp.x,touch_resp.y,touch_resp.leftButton,touch_resp.midButton,touch_resp.rightButton,touch_resp.time,touch_resp.clicked_name,rt,corr,practrials.thisRepN,practrials.thisTrialN,practrials.thisN,practrials.thisIndex,practrials.ran,TrialID,Target,corrAns,end_of_practice_trials_pages.thisRepN,end_of_practice_trials_pages.thisTrialN,end_of_practice_trials_pages.thisN,end_of_practice_trials_pages.thisIndex,end_of_practice_trials_pages.ran,key_resp_2.keys,key_resp_2.corr,key_resp_2.rt,targ_click.x,targ_click.y,targ_click.leftButton,targ_click.midButton,targ_click.rightButton,targ_click.time,targ_click.clicked_name,break_done_touch.x,break_done_touch.y,break_done_touch.leftButton,break_done_touch.midButton,break_done_touch.rightButton,break_done_keyboard.keys,maintrials.thisRepN,maintrials.thisTrialN,maintrials.thisN,maintrials.thisIndex,maintrials.ran,string,blur,study,lex,stim_path,break_done_keyboard.rt,mouse_2.x,mouse_2.y,mouse_2.leftButton,mouse_2.midButton,mouse_2.rightButton,mouse_2.clicked_name,slider.response,slider.rt,trials.thisRepN,trials.thisTrialN,trials.thisN,trials.thisIndex,trials.ran,test_instructions.thisRepN,test_instructions.thisTrialN,test_instructions.thisN,test_instructions.thisIndex,test_instructions.ran,key_resp_3.keys,key_resp_3.corr,key_resp_3.rt,test_click.x,test_click.y,test_click.leftButton,test_click.midButton,test_click.rightButton,test_click.time,test_click.clicked_name,test_phase.thisRepN,test_phase.thisTrialN,test_phase.thisN,test_phase.thisIndex,test_phase.ran
,0.049296875,-0.424140625,1,0,0,instr_done_button,0,0,0,0,1,1,instructions,"INSTRUCTIONS
At the start of each trial, look at the plus sign  (+) in the center of the screen.  This tells you that a trial is about to begin and where to look. Second, the plus sign will disappear and a string of letters will appear. Your task is to determine if the string of letters is a word or not. If the item is a word press the M key (on keyboard)  or touch the word button (phone/tablet).  If the item is not a word,  press the  Z key (on keyboard)  or touch the nonword button (on phone/tablet). 
Press the space bar or touch  continue.",0,,60fde0b2f2b1d36e006ad138,19,2022-02-12_16h39.38.668,lexical_decision_task_DD,2021.2.3,MacIntel,60.0024001,,,,,,,,,,,,,,,,,,,,,,,,,,,,,,,,,,,,,,,,,,,,,,,,,,,,,,,,,,,,,,,,,,,,,,,,,,,,,,,,,,,,,,
space,0.049296875,-0.424140625,0,0,0,,0,1,1,1,1,2,instructions,"If your device has a keyboard, press the 'Z' key for nonwords and the 'M' key for words.





Press the space bar or touch the button below to continue.",0,keyboard-example.gif,60fde0b2f2b1d36e006ad138,19,2022-02-12_16h39.38.668,lexical_decision_task_DD,2021.2.3,MacIntel,60.0024001,6.3403,,,,,,,,,,,,,,,,,,,,,,,,,,,,,,,,,,,,,,,,,,,,,,,,,,,,,,,,,,,,,,,,,,,,,,,,,,,,,,,,,,,,,
space,0.049296875,-0.424140625,0,0,0,,0,2,2,2,1,3,instructions,"If you are using a touchscreen only device, use the buttons on the screen. Do not use the mouse.





Press the space bar or touch the button below to continue.",0,touchscreen-example.gif,60fde0b2f2b1d36e006ad138,19,2022-02-12_16h39.38.668,lexical_decision_task_DD,2021.2.3,MacIntel,60.0024001,3.4345,,,,,,,,,,,,,,,,,,,,,,,,,,,,,,,,,,,,,,,,,,,,,,,,,,,,,,,,,,,,,,,,,,,,,,,,,,,,,,,,,,,,,
space,0.049296875,-0.424140625,0,0,0,,0,3,3,3,1,4,instructions,"It is very important that you respond as quickly and accurately as possible, as each letter string will only be on the screen for two seconds. If you do not respond within this time, the message 'Too slow!' will be displayed and the experiment will progress to the next letter string. The first 20 trials will be practice trials and you will receive feedback on your answers. 

Press the space bar or touch the button below to start the practice trials.",0,,60fde0b2f2b1d36e006ad138,19,2022-02-12_16h39.38.668,lexical_decision_task_DD,2021.2.3,MacIntel,60.0024001,4.1155,,,,,,,,,,,,,,,,,,,,,,,,,,,,,,,,,,,,,,,,,,,,,,,,,,,,,,,,,,,,,,,,,,,,,,,,,,,,,,,,,,,,,
,,,,,,,,,,,,,,,,,60fde0b2f2b1d36e006ad138,19,2022-02-12_16h39.38.668,lexical_decision_task_DD,2021.2.3,MacIntel,60.0024001,,z,1,0.9817,,,,,,,,0.9817,1,0,0,0,8,1,1001,ASLERT,z,,,,,,,,,,,,,,,,,,,,,,,,,,,,,,,,,,,,,,,,,,,,,,,,,,,,,,,,,,,,,,,,,
,,,,,,,,,,,,,,,,,60fde0b2f2b1d36e006ad138,19,2022-02-12_16h39.38.668,lexical_decision_task_DD,2021.2.3,MacIntel,60.0024001,,m,1,0.5939,,,,,,,,0.5939,1,0,1,1,7,1,1001,VOLUME,m,,,,,,,,,,,,,,,,,,,,,,,,,,,,,,,,,,,,,,,,,,,,,,,,,,,,,,,,,,,,,,,,,
,,,,,,,,,,,,,,,,,60fde0b2f2b1d36e006ad138,19,2022-02-12_16h39.38.668,lexical_decision_task_DD,2021.2.3,MacIntel,60.0024001,,m,1,0.6307,,,,,,,,0.6307,1,0,2,2,6,1,1001,ZOMBIE,m,,,,,,,,,,,,,,,,,,,,,,,,,,,,,,,,,,,,,,,,,,,,,,,,,,,,,,,,,,,,,,,,,
,,,,,,,,,,,,,,,,,60fde0b2f2b1d36e006ad138,19,2022-02-12_16h39.38.668,lexical_decision_task_DD,2021.2.3,MacIntel,60.0024001,,m,1,0.6967,,,,,,,,0.6967,1,0,3,3,5,1,1001,OBTAIN,m,,,,,,,,,,,,,,,,,,,,,,,,,,,,,,,,,,,,,,,,,,,,,,,,,,,,,,,,,,,,,,,,,
,,,,,,,,,,,,,,,,,60fde0b2f2b1d36e006ad138,19,2022-02-12_16h39.38.668,lexical_decision_task_DD,2021.2.3,MacIntel,60.0024001,,z,1,0.5856,,,,,,,,0.5856,1,0,4,4,14,1,1001,THRALE,z,,,,,,,,,,,,,,,,,,,,,,,,,,,,,,,,,,,,,,,,,,,,,,,,,,,,,,,,,,,,,,,,,
,,,,,,,,,,,,,,,,,60fde0b2f2b1d36e006ad138,19,2022-02-12_16h39.38.668,lexical_decision_task_DD,2021.2.3,MacIntel,60.0024001,,z,1,0.7471,,,,,,,,0.7471,1,0,5,5,10,1,1001,INLADE,z,,,,,,,,,,,,,,,,,,,,,,,,,,,,,,,,,,,,,,,,,,,,,,,,,,,,,,,,,,,,,,,,,
,,,,,,,,,,,,,,,,,60fde0b2f2b1d36e006ad138,19,2022-02-12_16h39.38.668,lexical_decision_task_DD,2021.2.3,MacIntel,60.0024001,,z,1,0.8605,,,,,,,,0.8605,1,0,6,6,15,1,1001,WHAISE,z,,,,,,,,,,,,,,,,,,,,,,,,,,,,,,,,,,,,,,,,,,,,,,,,,,,,,,,,,,,,,,,,,
,,,,,,,,,,,,,,,,,60fde0b2f2b1d36e006ad138,19,2022-02-12_16h39.38.668,lexical_decision_task_DD,2021.2.3,MacIntel,60.0024001,,m,1,0.5553,,,,,,,,0.5553,1,0,7,7,1,1,1001,ADJUST,m,,,,,,,,,,,,,,,,,,,,,,,,,,,,,,,,,,,,,,,,,,,,,,,,,,,,,,,,,,,,,,,,,
,,,,,,,,,,,,,,,,,60fde0b2f2b1d36e006ad138,19,2022-02-12_16h39.38.668,lexical_decision_task_DD,2021.2.3,MacIntel,60.0024001,,m,1,0.5452,,,,,,,,0.5452,1,0,8,8,4,1,1001,SQUEAK,m,,,,,,,,,,,,,,,,,,,,,,,,,,,,,,,,,,,,,,,,,,,,,,,,,,,,,,,,,,,,,,,,,
,,,,,,,,,,,,,,,,,60fde0b2f2b1d36e006ad138,19,2022-02-12_16h39.38.668,lexical_decision_task_DD,2021.2.3,MacIntel,60.0024001,,m,1,0.7321,,,,,,,,0.7321,1,0,9,9,3,1,1001,MATRIX,m,,,,,,,,,,,,,,,,,,,,,,,,,,,,,,,,,,,,,,,,,,,,,,,,,,,,,,,,,,,,,,,,,
,,,,,,,,,,,,,,,,,60fde0b2f2b1d36e006ad138,19,2022-02-12_16h39.38.668,lexical_decision_task_DD,2021.2.3,MacIntel,60.0024001,,z,1,0.8302,,,,,,,,0.8302,1,0,10,10,12,1,1001,SPRINY,z,,,,,,,,,,,,,,,,,,,,,,,,,,,,,,,,,,,,,,,,,,,,,,,,,,,,,,,,,,,,,,,,,
,,,,,,,,,,,,,,,,,60fde0b2f2b1d36e006ad138,19,2022-02-12_16h39.38.668,lexical_decision_task_DD,2021.2.3,MacIntel,60.0024001,,m,1,0.9628,,,,,,,,0.9628,1,0,11,11,0,1,1001,UTOPIA,m,,,,,,,,,,,,,,,,,,,,,,,,,,,,,,,,,,,,,,,,,,,,,,,,,,,,,,,,,,,,,,,,,
,,,,,,,,,,,,,,,,,60fde0b2f2b1d36e006ad138,19,2022-02-12_16h39.38.668,lexical_decision_task_DD,2021.2.3,MacIntel,60.0024001,,z,1,0.8671,,,,,,,,0.8671,1,0,12,12,13,1,1001,ROUPET,z,,,,,,,,,,,,,,,,,,,,,,,,,,,,,,,,,,,,,,,,,,,,,,,,,,,,,,,,,,,,,,,,,
,,,,,,,,,,,,,,,,,60fde0b2f2b1d36e006ad138,19,2022-02-12_16h39.38.668,lexical_decision_task_DD,2021.2.3,MacIntel,60.0024001,,z,1,0.8327,,,,,,,,0.8327,1,0,13,13,11,1,1001,RASHET,z,,,,,,,,,,,,,,,,,,,,,,,,,,,,,,,,,,,,,,,,,,,,,,,,,,,,,,,,,,,,,,,,,
,,,,,,,,,,,,,,,,,60fde0b2f2b1d36e006ad138,19,2022-02-12_16h39.38.668,lexical_decision_task_DD,2021.2.3,MacIntel,60.0024001,,z,1,0.9327,,,,,,,,0.9327,1,0,14,14,9,1,1001,FARINY,z,,,,,,,,,,,,,,,,,,,,,,,,,,,,,,,,,,,,,,,,,,,,,,,,,,,,,,,,,,,,,,,,,
,,,,,,,,,,,,,,,,,60fde0b2f2b1d36e006ad138,19,2022-02-12_16h39.38.668,lexical_decision_task_DD,2021.2.3,MacIntel,60.0024001,,m,1,0.6485,,,,,,,,0.6485,1,0,15,15,2,1,1001,ALMOND,m,,,,,,,,,,,,,,,,,,,,,,,,,,,,,,,,,,,,,,,,,,,,,,,,,,,,,,,,,,,,,,,,,
space,0.04983941,-0.422248264,0,0,0,,,,,,,1,end_of_practice,"You have completed the practice trials. During the experimental trials, you will not receive feedback. 
Before you begin, please ensure that you are in a comfortable and quiet location and will not be disturbed for about 15 minutes, as we cannot use your data if you do not complete all the trials. 
 When you are ready to start the experimental trials, please press space or touch the button below.",,,60fde0b2f2b1d36e006ad138,19,2022-02-12_16h39.38.668,lexical_decision_task_DD,2021.2.3,MacIntel,60.0024001,6.0878,,,,,,,,,,,,,,,,,,,,,0,0,0,0,1,,,,,,,,,,,,,,,,,,,,,,,,,,,,,,,,,,,,,,,,,,,,,,,,,,,,,,,,,,,,
,,,,,,,,,,,,,,,,,60fde0b2f2b1d36e006ad138,19,2022-02-12_16h39.38.668,lexical_decision_task_DD,2021.2.3,MacIntel,60.0024001,,,,,,,,,,,,2.0354,1,,,,,,,,,,,,,,z,1,2.0354,,,,,,,,0.04983941,-0.422248264,0,0,0,,0,0,0,98,1,BAMPS,LB,old,z,./images/BAMPSLB.png,,,,,,,,,,,,,,,,,,,,,,,,,,,,,,,,,,
,,,,,,,,,,,,,,,,,60fde0b2f2b1d36e006ad138,19,2022-02-12_16h39.38.668,lexical_decision_task_DD,2021.2.3,MacIntel,60.0024001,,,,,,,,,,,,0.7274,1,,,,,,,,,,,,,,m,1,0.7274,,,,,,,,0.04983941,-0.422248264,0,0,0,,0,1,1,15,1,GREASE,C,old,m,./images/GREASE.png,,,,,,,,,,,,,,,,,,,,,,,,,,,,,,,,,,
,,,,,,,,,,,,,,,,,60fde0b2f2b1d36e006ad138,19,2022-02-12_16h39.38.668,lexical_decision_task_DD,2021.2.3,MacIntel,60.0024001,,,,,,,,,,,,0.8156,1,,,,,,,,,,,,,,z,1,0.8156,,,,,,,,0.04983941,-0.422248264,0,0,0,,0,2,2,148,1,JOMS,HB,old,z,./images/JOMSHB.png,,,,,,,,,,,,,,,,,,,,,,,,,,,,,,,,,,
,,,,,,,,,,,,,,,,,60fde0b2f2b1d36e006ad138,19,2022-02-12_16h39.38.668,lexical_decision_task_DD,2021.2.3,MacIntel,60.0024001,,,,,,,,,,,,0.8621,1,,,,,,,,,,,,,,m,1,0.8621,,,,,,,,0.04983941,-0.422248264,0,0,0,,0,3,3,56,1,PACKET,LB,old,m,./images/PACKETLB.png,,,,,,,,,,,,,,,,,,,,,,,,,,,,,,,,,,
,,,,,,,,,,,,,,,,,60fde0b2f2b1d36e006ad138,19,2022-02-12_16h39.38.668,lexical_decision_task_DD,2021.2.3,MacIntel,60.0024001,,,,,,,,,,,,0.6967,1,,,,,,,,,,,,,,z,1,0.6967,,,,,,,,0.04983941,-0.422248264,0,0,0,,0,4,4,116,1,BALGY,LB,old,z,./images/BALGYLB.png,,,,,,,,,,,,,,,,,,,,,,,,,,,,,,,,,,
,,,,,,,,,,,,,,,,,60fde0b2f2b1d36e006ad138,19,2022-02-12_16h39.38.668,lexical_decision_task_DD,2021.2.3,MacIntel,60.0024001,,,,,,,,,,,,0.7891,1,,,,,,,,,,,,,,m,1,0.7891,,,,,,,,0.04983941,-0.422248264,0,0,0,,0,5,5,77,1,COUCH,LB,old,m,./images/COUCHLB.png,,,,,,,,,,,,,,,,,,,,,,,,,,,,,,,,,,
,,,,,,,,,,,,,,,,,60fde0b2f2b1d36e006ad138,19,2022-02-12_16h39.38.668,lexical_decision_task_DD,2021.2.3,MacIntel,60.0024001,,,,,,,,,,,,1.1448,1,,,,,,,,,,,,,,z,1,1.1448,,,,,,,,0.04983941,-0.422248264,0,0,0,,0,6,6,139,1,BLEAR,HB,old,z,./images/BLEARHB.png,,,,,,,,,,,,,,,,,,,,,,,,,,,,,,,,,,
,,,,,,,,,,,,,,,,,60fde0b2f2b1d36e006ad138,19,2022-02-12_16h39.38.668,lexical_decision_task_DD,2021.2.3,MacIntel,60.0024001,,,,,,,,,,,,0.9161,1,,,,,,,,,,,,,,z,1,0.9161,,,,,,,,0.04983941,-0.422248264,0,0,0,,0,7,7,121,1,CEERS,HB,old,z,./images/CEERSHB.png,,,,,,,,,,,,,,,,,,,,,,,,,,,,,,,,,,
,,,,,,,,,,,,,,,,,60fde0b2f2b1d36e006ad138,19,2022-02-12_16h39.38.668,lexical_decision_task_DD,2021.2.3,MacIntel,60.0024001,,,,,,,,,,,,0.8008,1,,,,,,,,,,,,,,z,1,0.8008,,,,,,,,0.04983941,-0.422248264,0,0,0,,0,8,8,104,1,GITTY,LB,old,z,./images/GITTYLB.png,,,,,,,,,,,,,,,,,,,,,,,,,,,,,,,,,,
,,,,,,,,,,,,,,,,,60fde0b2f2b1d36e006ad138,19,2022-02-12_16h39.38.668,lexical_decision_task_DD,2021.2.3,MacIntel,60.0024001,,,,,,,,,,,,0.8159,1,,,,,,,,,,,,,,z,1,0.8159,,,,,,,,0.04983941,-0.422248264,0,0,0,,0,9,9,131,1,NACES,LB,old,z,./images/NACESLB.png,,,,,,,,,,,,,,,,,,,,,,,,,,,,,,,,,,
,,,,,,,,,,,,,,,,,60fde0b2f2b1d36e006ad138,19,2022-02-12_16h39.38.668,lexical_decision_task_DD,2021.2.3,MacIntel,60.0024001,,,,,,,,,,,,0.7311,1,,,,,,,,,,,,,,z,1,0.7311,,,,,,,,0.04983941,-0.422248264,0,0,0,,0,10,10,160,1,VEETS,HB,old,z,./images/VEETSHB.png,,,,,,,,,,,,,,,,,,,,,,,,,,,,,,,,,,
,,,,,,,,,,,,,,,,,60fde0b2f2b1d36e006ad138,19,2022-02-12_16h39.38.668,lexical_decision_task_DD,2021.2.3,MacIntel,60.0024001,,,,,,,,,,,,0.7303,1,,,,,,,,,,,,,,m,1,0.7303,,,,,,,,0.04983941,-0.422248264,0,0,0,,0,11,11,10,1,BELLY,HB,old,m,./images/BELLYHB.png,,,,,,,,,,,,,,,,,,,,,,,,,,,,,,,,,,
,,,,,,,,,,,,,,,,,60fde0b2f2b1d36e006ad138,19,2022-02-12_16h39.38.668,lexical_decision_task_DD,2021.2.3,MacIntel,60.0024001,,,,,,,,,,,,0.6443,1,,,,,,,,,,,,,,m,1,0.6443,,,,,,,,0.04983941,-0.422248264,0,0,0,,0,12,12,79,1,CRUST,HB,old,m,./images/CRUSTHB.png,,,,,,,,,,,,,,,,,,,,,,,,,,,,,,,,,,
,,,,,,,,,,,,,,,,,60fde0b2f2b1d36e006ad138,19,2022-02-12_16h39.38.668,lexical_decision_task_DD,2021.2.3,MacIntel,60.0024001,,,,,,,,,,,,0.6965,1,,,,,,,,,,,,,,m,1,0.6965,,,,,,,,0.04983941,-0.422248264,0,0,0,,0,13,13,80,1,WEASEL,LB,old,m,./images/WEASELLB.png,,,,,,,,,,,,,,,,,,,,,,,,,,,,,,,,,,
,,,,,,,,,,,,,,,,,60fde0b2f2b1d36e006ad138,19,2022-02-12_16h39.38.668,lexical_decision_task_DD,2021.2.3,MacIntel,60.0024001,,,,,,,,,,,,1.2776,1,,,,,,,,,,,,,,z,1,1.2776,,,,,,,,0.04983941,-0.422248264,0,0,0,,0,14,14,135,1,JOODY,C,old,z,./images/JOODY.png,,,,,,,,,,,,,,,,,,,,,,,,,,,,,,,,,,
,,,,,,,,,,,,,,,,,60fde0b2f2b1d36e006ad138,19,2022-02-12_16h39.38.668,lexical_decision_task_DD,2021.2.3,MacIntel,60.0024001,,,,,,,,,,,,0.7978,1,,,,,,,,,,,,,,m,1,0.7978,,,,,,,,0.04983941,-0.422248264,0,0,0,,0,15,15,68,1,TORCH,LB,old,m,./images/TORCHLB.png,,,,,,,,,,,,,,,,,,,,,,,,,,,,,,,,,,
,,,,,,,,,,,,,,,,,60fde0b2f2b1d36e006ad138,19,2022-02-12_16h39.38.668,lexical_decision_task_DD,2021.2.3,MacIntel,60.0024001,,,,,,,,,,,,0.6633,1,,,,,,,,,,,,,,m,1,0.6633,,,,,,,,0.04983941,-0.422248264,0,0,0,,0,16,16,24,1,SCREW,C,old,m,./images/SCREW.png,,,,,,,,,,,,,,,,,,,,,,,,,,,,,,,,,,
,,,,,,,,,,,,,,,,,60fde0b2f2b1d36e006ad138,19,2022-02-12_16h39.38.668,lexical_decision_task_DD,2021.2.3,MacIntel,60.0024001,,,,,,,,,,,,0.8346,1,,,,,,,,,,,,,,z,1,0.8346,,,,,,,,0.04983941,-0.422248264,0,0,0,,0,17,17,165,1,TROWN,C,old,z,./images/TROWN.png,,,,,,,,,,,,,,,,,,,,,,,,,,,,,,,,,,
,,,,,,,,,,,,,,,,,60fde0b2f2b1d36e006ad138,19,2022-02-12_16h39.38.668,lexical_decision_task_DD,2021.2.3,MacIntel,60.0024001,,,,,,,,,,,,0.6169,1,,,,,,,,,,,,,,m,1,0.6169,,,,,,,,0.04983941,-0.422248264,0,0,0,,0,18,18,33,1,MAGGOT,C,old,m,./images/MAGGOT.png,,,,,,,,,,,,,,,,,,,,,,,,,,,,,,,,,,
,,,,,,,,,,,,,,,,,60fde0b2f2b1d36e006ad138,19,2022-02-12_16h39.38.668,lexical_decision_task_DD,2021.2.3,MacIntel,60.0024001,,,,,,,,,,,,0.7189,1,,,,,,,,,,,,,,m,1,0.7189,,,,,,,,0.04983941,-0.422248264,0,0,0,,0,19,19,5,1,PASTA,LB,old,m,./images/PASTALB.png,,,,,,,,,,,,,,,,,,,,,,,,,,,,,,,,,,
,,,,,,,,,,,,,,,,,60fde0b2f2b1d36e006ad138,19,2022-02-12_16h39.38.668,lexical_decision_task_DD,2021.2.3,MacIntel,60.0024001,,,,,,,,,,,,0.6655,1,,,,,,,,,,,,,,m,1,0.6655,,,,,,,,0.04983941,-0.422248264,0,0,0,,0,20,20,22,1,MELON,HB,old,m,./images/MELONHB.png,,,,,,,,,,,,,,,,,,,,,,,,,,,,,,,,,,
,,,,,,,,,,,,,,,,,60fde0b2f2b1d36e006ad138,19,2022-02-12_16h39.38.668,lexical_decision_task_DD,2021.2.3,MacIntel,60.0024001,,,,,,,,,,,,0.5323,1,,,,,,,,,,,,,,m,1,0.5323,,,,,,,,0.04983941,-0.422248264,0,0,0,,0,21,21,48,1,SPORT,C,old,m,./images/SPORT.png,,,,,,,,,,,,,,,,,,,,,,,,,,,,,,,,,,
,,,,,,,,,,,,,,,,,60fde0b2f2b1d36e006ad138,19,2022-02-12_16h39.38.668,lexical_decision_task_DD,2021.2.3,MacIntel,60.0024001,,,,,,,,,,,,0.9948,1,,,,,,,,,,,,,,z,1,0.9948,,,,,,,,0.04983941,-0.422248264,0,0,0,,0,22,22,130,1,CRILL,HB,old,z,./images/CRILLHB.png,,,,,,,,,,,,,,,,,,,,,,,,,,,,,,,,,,
,,,,,,,,,,,,,,,,,60fde0b2f2b1d36e006ad138,19,2022-02-12_16h39.38.668,lexical_decision_task_DD,2021.2.3,MacIntel,60.0024001,,,,,,,,,,,,0.7305,1,,,,,,,,,,,,,,z,1,0.7305,,,,,,,,0.04983941,-0.422248264,0,0,0,,0,23,23,84,1,HAXES,C,old,z,./images/HAXES.png,,,,,,,,,,,,,,,,,,,,,,,,,,,,,,,,,,
,,,,,,,,,,,,,,,,,60fde0b2f2b1d36e006ad138,19,2022-02-12_16h39.38.668,lexical_decision_task_DD,2021.2.3,MacIntel,60.0024001,,,,,,,,,,,,0.7341,1,,,,,,,,,,,,,,z,1,0.7341,,,,,,,,0.04983941,-0.422248264,0,0,0,,0,24,24,122,1,BLOOT,LB,old,z,./images/BLOOTLB.png,,,,,,,,,,,,,,,,,,,,,,,,,,,,,,,,,,
,,,,,,,,,,,,,,,,,60fde0b2f2b1d36e006ad138,19,2022-02-12_16h39.38.668,lexical_decision_task_DD,2021.2.3,MacIntel,60.0024001,,,,,,,,,,,,0.6136,1,,,,,,,,,,,,,,m,1,0.6136,,,,,,,,0.04983941,-0.422248264,0,0,0,,0,25,25,38,1,LADDER,LB,old,m,./images/LADDERLB.png,,,,,,,,,,,,,,,,,,,,,,,,,,,,,,,,,,
,,,,,,,,,,,,,,,,,60fde0b2f2b1d36e006ad138,19,2022-02-12_16h39.38.668,lexical_decision_task_DD,2021.2.3,MacIntel,60.0024001,,,,,,,,,,,,0.6315,1,,,,,,,,,,,,,,m,1,0.6315,,,,,,,,0.04983941,-0.422248264,0,0,0,,0,26,26,2,1,BEARD,LB,old,m,./images/BEARDLB.png,,,,,,,,,,,,,,,,,,,,,,,,,,,,,,,,,,
,,,,,,,,,,,,,,,,,60fde0b2f2b1d36e006ad138,19,2022-02-12_16h39.38.668,lexical_decision_task_DD,2021.2.3,MacIntel,60.0024001,,,,,,,,,,,,0.6096,1,,,,,,,,,,,,,,m,1,0.6096,,,,,,,,0.04983941,-0.422248264,0,0,0,,0,27,27,36,1,THROAT,C,old,m,./images/THROAT.png,,,,,,,,,,,,,,,,,,,,,,,,,,,,,,,,,,
,,,,,,,,,,,,,,,,,60fde0b2f2b1d36e006ad138,19,2022-02-12_16h39.38.668,lexical_decision_task_DD,2021.2.3,MacIntel,60.0024001,,,,,,,,,,,,0.731,1,,,,,,,,,,,,,,z,1,0.731,,,,,,,,0.04983941,-0.422248264,0,0,0,,0,28,28,93,1,SMONE,C,old,z,./images/SMONE.png,,,,,,,,,,,,,,,,,,,,,,,,,,,,,,,,,,
,,,,,,,,,,,,,,,,,60fde0b2f2b1d36e006ad138,19,2022-02-12_16h39.38.668,lexical_decision_task_DD,2021.2.3,MacIntel,60.0024001,,,,,,,,,,,,0.629,1,,,,,,,,,,,,,,z,1,0.629,,,,,,,,0.04983941,-0.422248264,0,0,0,,0,29,29,102,1,DULLE,C,old,z,./images/DULLE.png,,,,,,,,,,,,,,,,,,,,,,,,,,,,,,,,,,
,,,,,,,,,,,,,,,,,60fde0b2f2b1d36e006ad138,19,2022-02-12_16h39.38.668,lexical_decision_task_DD,2021.2.3,MacIntel,60.0024001,,,,,,,,,,,,0.7016,1,,,,,,,,,,,,,,z,1,0.7016,,,,,,,,0.04983941,-0.422248264,0,0,0,,0,30,30,118,1,BAVEL,HB,old,z,./images/BAVELHB.png,,,,,,,,,,,,,,,,,,,,,,,,,,,,,,,,,,
,,,,,,,,,,,,,,,,,60fde0b2f2b1d36e006ad138,19,2022-02-12_16h39.38.668,lexical_decision_task_DD,2021.2.3,MacIntel,60.0024001,,,,,,,,,,,,0.7088,1,,,,,,,,,,,,,,z,1,0.7088,,,,,,,,0.04983941,-0.422248264,0,0,0,,0,31,31,141,1,PLEET,C,old,z,./images/PLEET.png,,,,,,,,,,,,,,,,,,,,,,,,,,,,,,,,,,
,,,,,,,,,,,,,,,,,60fde0b2f2b1d36e006ad138,19,2022-02-12_16h39.38.668,lexical_decision_task_DD,2021.2.3,MacIntel,60.0024001,,,,,,,,,,,,0.7437,1,,,,,,,,,,,,,,z,1,0.7437,,,,,,,,0.04983941,-0.422248264,0,0,0,,0,32,32,99,1,BACKY,C,old,z,./images/BACKY.png,,,,,,,,,,,,,,,,,,,,,,,,,,,,,,,,,,
,,,,,,,,,,,,,,,,,60fde0b2f2b1d36e006ad138,19,2022-02-12_16h39.38.668,lexical_decision_task_DD,2021.2.3,MacIntel,60.0024001,,,,,,,,,,,,0.5644,1,,,,,,,,,,,,,,m,1,0.5644,,,,,,,,0.04983941,-0.422248264,0,0,0,,0,33,33,40,1,SWING,HB,old,m,./images/SWINGHB.png,,,,,,,,,,,,,,,,,,,,,,,,,,,,,,,,,,
,,,,,,,,,,,,,,,,,60fde0b2f2b1d36e006ad138,19,2022-02-12_16h39.38.668,lexical_decision_task_DD,2021.2.3,MacIntel,60.0024001,,,,,,,,,,,,0.6648,1,,,,,,,,,,,,,,m,1,0.6648,,,,,,,,0.04983941,-0.422248264,0,0,0,,0,34,34,59,1,BURIAL,LB,old,m,./images/BURIALLB.png,,,,,,,,,,,,,,,,,,,,,,,,,,,,,,,,,,
,,,,,,,,,,,,,,,,,60fde0b2f2b1d36e006ad138,19,2022-02-12_16h39.38.668,lexical_decision_task_DD,2021.2.3,MacIntel,60.0024001,,,,,,,,,,,,0.6653,1,,,,,,,,,,,,,,z,1,0.6653,,,,,,,,0.04983941,-0.422248264,0,0,0,,0,35,35,149,1,VEASE,LB,old,z,./images/VEASELB.png,,,,,,,,,,,,,,,,,,,,,,,,,,,,,,,,,,
,,,,,,,,,,,,,,,,,60fde0b2f2b1d36e006ad138,19,2022-02-12_16h39.38.668,lexical_decision_task_DD,2021.2.3,MacIntel,60.0024001,,,,,,,,,,,,0.5595,1,,,,,,,,,,,,,,m,1,0.5595,,,,,,,,0.04983941,-0.422248264,0,0,0,,0,36,36,30,1,STORM,C,old,m,./images/STORM.png,,,,,,,,,,,,,,,,,,,,,,,,,,,,,,,,,,
,,,,,,,,,,,,,,,,,60fde0b2f2b1d36e006ad138,19,2022-02-12_16h39.38.668,lexical_decision_task_DD,2021.2.3,MacIntel,60.0024001,,,,,,,,,,,,0.6969,1,,,,,,,,,,,,,,z,1,0.6969,,,,,,,,0.04983941,-0.422248264,0,0,0,,0,37,37,152,1,FRAIN,LB,old,z,./images/FRAINLB.png,,,,,,,,,,,,,,,,,,,,,,,,,,,,,,,,,,
,,,,,,,,,,,,,,,,,60fde0b2f2b1d36e006ad138,19,2022-02-12_16h39.38.668,lexical_decision_task_DD,2021.2.3,MacIntel,60.0024001,,,,,,,,,,,,0.7252,1,,,,,,,,,,,,,,z,1,0.7252,,,,,,,,0.04983941,-0.422248264,0,0,0,,0,38,38,144,1,NAIRY,C,old,z,./images/NAIRY.png,,,,,,,,,,,,,,,,,,,,,,,,,,,,,,,,,,
,,,,,,,,,,,,,,,,,60fde0b2f2b1d36e006ad138,19,2022-02-12_16h39.38.668,lexical_decision_task_DD,2021.2.3,MacIntel,60.0024001,,,,,,,,,,,,0.7259,1,,,,,,,,,,,,,,m,1,0.7259,,,,,,,,0.04983941,-0.422248264,0,0,0,,0,39,39,34,1,CANYON,HB,old,m,./images/CANYONHB.png,,,,,,,,,,,,,,,,,,,,,,,,,,,,,,,,,,
,,,,,,,,,,,,,,,,,60fde0b2f2b1d36e006ad138,19,2022-02-12_16h39.38.668,lexical_decision_task_DD,2021.2.3,MacIntel,60.0024001,,,,,,,,,,,,0.6946,1,,,,,,,,,,,,,,z,1,0.6946,,,,,,,,0.04983941,-0.422248264,0,0,0,,0,40,40,124,1,TUNCH,HB,old,z,./images/TUNCHHB.png,,,,,,,,,,,,,,,,,,,,,,,,,,,,,,,,,,
,,,,,,,,,,,,,,,,,60fde0b2f2b1d36e006ad138,19,2022-02-12_16h39.38.668,lexical_decision_task_DD,2021.2.3,MacIntel,60.0024001,,,,,,,,,,,,0.5736,1,,,,,,,,,,,,,,m,1,0.5736,,,,,,,,0.04983941,-0.422248264,0,0,0,space,0,41,41,57,1,MOOSE,C,old,m,./images/MOOSE.png,15.7835,,,,,,,,,,,,,,,,,,,,,,,,,,,,,,,,,
,,,,,,,,,,,,,,,,,60fde0b2f2b1d36e006ad138,19,2022-02-12_16h39.38.668,lexical_decision_task_DD,2021.2.3,MacIntel,60.0024001,,,,,,,,,,,,0.6671,1,,,,,,,,,,,,,,z,1,0.6671,,,,,,,,0.04983941,-0.422248264,0,0,0,,0,42,42,167,1,ZONET,LB,old,z,./images/ZONETLB.png,,,,,,,,,,,,,,,,,,,,,,,,,,,,,,,,,,
,,,,,,,,,,,,,,,,,60fde0b2f2b1d36e006ad138,19,2022-02-12_16h39.38.668,lexical_decision_task_DD,2021.2.3,MacIntel,60.0024001,,,,,,,,,,,,0.5806,1,,,,,,,,,,,,,,m,1,0.5806,,,,,,,,0.04983941,-0.422248264,0,0,0,,0,43,43,29,1,CRUMB,LB,old,m,./images/CRUMBLB.png,,,,,,,,,,,,,,,,,,,,,,,,,,,,,,,,,,
,,,,,,,,,,,,,,,,,60fde0b2f2b1d36e006ad138,19,2022-02-12_16h39.38.668,lexical_decision_task_DD,2021.2.3,MacIntel,60.0024001,,,,,,,,,,,,0.5658,1,,,,,,,,,,,,,,z,1,0.5658,,,,,,,,0.04983941,-0.422248264,0,0,0,,0,44,44,101,1,GLEET,LB,old,z,./images/GLEETLB.png,,,,,,,,,,,,,,,,,,,,,,,,,,,,,,,,,,
,,,,,,,,,,,,,,,,,60fde0b2f2b1d36e006ad138,19,2022-02-12_16h39.38.668,lexical_decision_task_DD,2021.2.3,MacIntel,60.0024001,,,,,,,,,,,,0.7783,1,,,,,,,,,,,,,,m,1,0.7783,,,,,,,,0.04983941,-0.422248264,0,0,0,,0,45,45,8,1,TULIP,LB,old,m,./images/TULIPLB.png,,,,,,,,,,,,,,,,,,,,,,,,,,,,,,,,,,
,,,,,,,,,,,,,,,,,60fde0b2f2b1d36e006ad138,19,2022-02-12_16h39.38.668,lexical_decision_task_DD,2021.2.3,MacIntel,60.0024001,,,,,,,,,,,,0.7302,0,,,,,,,,,,,,,,z,0,0.7302,,,,,,,,0.04983941,-0.422248264,0,0,0,,0,46,46,76,1,INFANT,HB,old,m,./images/INFANTHB.png,,,,,,,,,,,,,,,,,,,,,,,,,,,,,,,,,,
,,,,,,,,,,,,,,,,,60fde0b2f2b1d36e006ad138,19,2022-02-12_16h39.38.668,lexical_decision_task_DD,2021.2.3,MacIntel,60.0024001,,,,,,,,,,,,0.6969,1,,,,,,,,,,,,,,m,1,0.6969,,,,,,,,0.04983941,-0.422248264,0,0,0,,0,47,47,11,1,BONNET,LB,old,m,./images/BONNETLB.png,,,,,,,,,,,,,,,,,,,,,,,,,,,,,,,,,,
,,,,,,,,,,,,,,,,,60fde0b2f2b1d36e006ad138,19,2022-02-12_16h39.38.668,lexical_decision_task_DD,2021.2.3,MacIntel,60.0024001,,,,,,,,,,,,1.4763,1,,,,,,,,,,,,,,z,1,1.4763,,,,,,,,0.04983941,-0.422248264,0,0,0,,0,48,48,127,1,NINDY,HB,old,z,./images/NINDYHB.png,,,,,,,,,,,,,,,,,,,,,,,,,,,,,,,,,,
,,,,,,,,,,,,,,,,,60fde0b2f2b1d36e006ad138,19,2022-02-12_16h39.38.668,lexical_decision_task_DD,2021.2.3,MacIntel,60.0024001,,,,,,,,,,,,0.5682,1,,,,,,,,,,,,,,m,1,0.5682,,,,,,,,0.04983941,-0.422248264,0,0,0,,0,49,49,53,1,CARPET,LB,old,m,./images/CARPETLB.png,,,,,,,,,,,,,,,,,,,,,,,,,,,,,,,,,,
,,,,,,,,,,,,,,,,,60fde0b2f2b1d36e006ad138,19,2022-02-12_16h39.38.668,lexical_decision_task_DD,2021.2.3,MacIntel,60.0024001,,,,,,,,,,,,0.6281,1,,,,,,,,,,,,,,z,1,0.6281,,,,,,,,0.04983941,-0.422248264,0,0,0,,0,50,50,113,1,LINEW,LB,old,z,./images/LINEWLB.png,,,,,,,,,,,,,,,,,,,,,,,,,,,,,,,,,,
,,,,,,,,,,,,,,,,,60fde0b2f2b1d36e006ad138,19,2022-02-12_16h39.38.668,lexical_decision_task_DD,2021.2.3,MacIntel,60.0024001,,,,,,,,,,,,0.6454,1,,,,,,,,,,,,,,m,1,0.6454,,,,,,,,0.04983941,-0.422248264,0,0,0,,0,51,51,46,1,PEARL,HB,old,m,./images/PEARLHB.png,,,,,,,,,,,,,,,,,,,,,,,,,,,,,,,,,,
,,,,,,,,,,,,,,,,,60fde0b2f2b1d36e006ad138,19,2022-02-12_16h39.38.668,lexical_decision_task_DD,2021.2.3,MacIntel,60.0024001,,,,,,,,,,,,0.9322,1,,,,,,,,,,,,,,z,1,0.9322,,,,,,,,0.04983941,-0.422248264,0,0,0,,0,52,52,115,1,MAWNS,HB,old,z,./images/MAWNSHB.png,,,,,,,,,,,,,,,,,,,,,,,,,,,,,,,,,,
,,,,,,,,,,,,,,,,,60fde0b2f2b1d36e006ad138,19,2022-02-12_16h39.38.668,lexical_decision_task_DD,2021.2.3,MacIntel,60.0024001,,,,,,,,,,,,0.7115,1,,,,,,,,,,,,,,z,1,0.7115,,,,,,,,0.04983941,-0.422248264,0,0,0,,0,53,53,120,1,RINED,C,old,z,./images/RINED.png,,,,,,,,,,,,,,,,,,,,,,,,,,,,,,,,,,
,,,,,,,,,,,,,,,,,60fde0b2f2b1d36e006ad138,19,2022-02-12_16h39.38.668,lexical_decision_task_DD,2021.2.3,MacIntel,60.0024001,,,,,,,,,,,,0.6265,1,,,,,,,,,,,,,,z,1,0.6265,,,,,,,,0.04983941,-0.422248264,0,0,0,,0,54,54,89,1,DRIEK,LB,old,z,./images/DRIEKLB.png,,,,,,,,,,,,,,,,,,,,,,,,,,,,,,,,,,
,,,,,,,,,,,,,,,,,60fde0b2f2b1d36e006ad138,19,2022-02-12_16h39.38.668,lexical_decision_task_DD,2021.2.3,MacIntel,60.0024001,,,,,,,,,,,,0.5775,1,,,,,,,,,,,,,,z,1,0.5775,,,,,,,,0.04983941,-0.422248264,0,0,0,,0,55,55,132,1,SCIFF,C,old,z,./images/SCIFF.png,,,,,,,,,,,,,,,,,,,,,,,,,,,,,,,,,,
,,,,,,,,,,,,,,,,,60fde0b2f2b1d36e006ad138,19,2022-02-12_16h39.38.668,lexical_decision_task_DD,2021.2.3,MacIntel,60.0024001,,,,,,,,,,,,0.5929,1,,,,,,,,,,,,,,z,1,0.5929,,,,,,,,0.04983941,-0.422248264,0,0,0,,0,56,56,162,1,LEICH,C,old,z,./images/LEICH.png,,,,,,,,,,,,,,,,,,,,,,,,,,,,,,,,,,
,,,,,,,,,,,,,,,,,60fde0b2f2b1d36e006ad138,19,2022-02-12_16h39.38.668,lexical_decision_task_DD,2021.2.3,MacIntel,60.0024001,,,,,,,,,,,,0.8489,0,,,,,,,,,,,,,,m,0,0.8489,,,,,,,,0.04983941,-0.422248264,0,0,0,,0,57,57,106,1,CLUMS,HB,old,z,./images/CLUMSHB.png,,,,,,,,,,,,,,,,,,,,,,,,,,,,,,,,,,
,,,,,,,,,,,,,,,,,60fde0b2f2b1d36e006ad138,19,2022-02-12_16h39.38.668,lexical_decision_task_DD,2021.2.3,MacIntel,60.0024001,,,,,,,,,,,,0.8277,1,,,,,,,,,,,,,,z,1,0.8277,,,,,,,,0.04983941,-0.422248264,0,0,0,,0,58,58,145,1,LAMEL,HB,old,z,./images/LAMELHB.png,,,,,,,,,,,,,,,,,,,,,,,,,,,,,,,,,,
,,,,,,,,,,,,,,,,,60fde0b2f2b1d36e006ad138,19,2022-02-12_16h39.38.668,lexical_decision_task_DD,2021.2.3,MacIntel,60.0024001,,,,,,,,,,,,0.6303,1,,,,,,,,,,,,,,m,1,0.6303,,,,,,,,0.04983941,-0.422248264,0,0,0,,0,59,59,9,1,RHINO,C,old,m,./images/RHINO.png,,,,,,,,,,,,,,,,,,,,,,,,,,,,,,,,,,
,,,,,,,,,,,,,,,,,60fde0b2f2b1d36e006ad138,19,2022-02-12_16h39.38.668,lexical_decision_task_DD,2021.2.3,MacIntel,60.0024001,,,,,,,,,,,,0.6627,1,,,,,,,,,,,,,,z,1,0.6627,,,,,,,,0.04983941,-0.422248264,0,0,0,,0,60,60,161,1,BLAPS,LB,old,z,./images/BLAPSLB.png,,,,,,,,,,,,,,,,,,,,,,,,,,,,,,,,,,
,,,,,,,,,,,,,,,,,60fde0b2f2b1d36e006ad138,19,2022-02-12_16h39.38.668,lexical_decision_task_DD,2021.2.3,MacIntel,60.0024001,,,,,,,,,,,,0.6116,1,,,,,,,,,,,,,,z,1,0.6116,,,,,,,,0.04983941,-0.422248264,0,0,0,,0,61,61,147,1,ZOLES,C,old,z,./images/ZOLES.png,,,,,,,,,,,,,,,,,,,,,,,,,,,,,,,,,,
,,,,,,,,,,,,,,,,,60fde0b2f2b1d36e006ad138,19,2022-02-12_16h39.38.668,lexical_decision_task_DD,2021.2.3,MacIntel,60.0024001,,,,,,,,,,,,0.7165,1,,,,,,,,,,,,,,m,1,0.7165,,,,,,,,0.04983941,-0.422248264,0,0,0,,0,62,62,1,1,PLANK,HB,old,m,./images/PLANKHB.png,,,,,,,,,,,,,,,,,,,,,,,,,,,,,,,,,,
,,,,,,,,,,,,,,,,,60fde0b2f2b1d36e006ad138,19,2022-02-12_16h39.38.668,lexical_decision_task_DD,2021.2.3,MacIntel,60.0024001,,,,,,,,,,,,0.7113,1,,,,,,,,,,,,,,m,1,0.7113,,,,,,,,0.04983941,-0.422248264,0,0,0,,0,63,63,6,1,SQUARE,C,old,m,./images/SQUARE.png,,,,,,,,,,,,,,,,,,,,,,,,,,,,,,,,,,
,,,,,,,,,,,,,,,,,60fde0b2f2b1d36e006ad138,19,2022-02-12_16h39.38.668,lexical_decision_task_DD,2021.2.3,MacIntel,60.0024001,,,,,,,,,,,,0.9104,0,,,,,,,,,,,,,,m,0,0.9104,,,,,,,,0.04983941,-0.422248264,0,0,0,,0,64,64,142,1,PLASK,HB,old,z,./images/PLASKHB.png,,,,,,,,,,,,,,,,,,,,,,,,,,,,,,,,,,
,,,,,,,,,,,,,,,,,60fde0b2f2b1d36e006ad138,19,2022-02-12_16h39.38.668,lexical_decision_task_DD,2021.2.3,MacIntel,60.0024001,,,,,,,,,,,,0.7309,1,,,,,,,,,,,,,,z,1,0.7309,,,,,,,,0.04983941,-0.422248264,0,0,0,,0,65,65,108,1,GRUET,C,old,z,./images/GRUET.png,,,,,,,,,,,,,,,,,,,,,,,,,,,,,,,,,,
,,,,,,,,,,,,,,,,,60fde0b2f2b1d36e006ad138,19,2022-02-12_16h39.38.668,lexical_decision_task_DD,2021.2.3,MacIntel,60.0024001,,,,,,,,,,,,0.6288,1,,,,,,,,,,,,,,m,1,0.6288,,,,,,,,0.04983941,-0.422248264,0,0,0,,0,66,66,3,1,FINGER,C,old,m,./images/FINGER.png,,,,,,,,,,,,,,,,,,,,,,,,,,,,,,,,,,
,,,,,,,,,,,,,,,,,60fde0b2f2b1d36e006ad138,19,2022-02-12_16h39.38.668,lexical_decision_task_DD,2021.2.3,MacIntel,60.0024001,,,,,,,,,,,,0.6109,1,,,,,,,,,,,,,,m,1,0.6109,,,,,,,,0.04983941,-0.422248264,0,0,0,,0,67,67,81,1,POODLE,C,old,m,./images/POODLE.png,,,,,,,,,,,,,,,,,,,,,,,,,,,,,,,,,,
,,,,,,,,,,,,,,,,,60fde0b2f2b1d36e006ad138,19,2022-02-12_16h39.38.668,lexical_decision_task_DD,2021.2.3,MacIntel,60.0024001,,,,,,,,,,,,0.7947,1,,,,,,,,,,,,,,z,1,0.7947,,,,,,,,0.04983941,-0.422248264,0,0,0,,0,68,68,87,1,TRING,C,old,z,./images/TRING.png,,,,,,,,,,,,,,,,,,,,,,,,,,,,,,,,,,
,,,,,,,,,,,,,,,,,60fde0b2f2b1d36e006ad138,19,2022-02-12_16h39.38.668,lexical_decision_task_DD,2021.2.3,MacIntel,60.0024001,,,,,,,,,,,,0.8759,1,,,,,,,,,,,,,,m,1,0.8759,,,,,,,,0.04983941,-0.422248264,0,0,0,,0,69,69,25,1,WRIST,HB,old,m,./images/WRISTHB.png,,,,,,,,,,,,,,,,,,,,,,,,,,,,,,,,,,
,,,,,,,,,,,,,,,,,60fde0b2f2b1d36e006ad138,19,2022-02-12_16h39.38.668,lexical_decision_task_DD,2021.2.3,MacIntel,60.0024001,,,,,,,,,,,,1.5445,1,,,,,,,,,,,,,,z,1,1.5445,,,,,,,,0.04983941,-0.422248264,0,0,0,,0,70,70,110,1,CRUNK,LB,old,z,./images/CRUNKLB.png,,,,,,,,,,,,,,,,,,,,,,,,,,,,,,,,,,
,,,,,,,,,,,,,,,,,60fde0b2f2b1d36e006ad138,19,2022-02-12_16h39.38.668,lexical_decision_task_DD,2021.2.3,MacIntel,60.0024001,,,,,,,,,,,,0.8812,0,,,,,,,,,,,,,,m,0,0.8812,,,,,,,,0.04983941,-0.422248264,0,0,0,,0,71,71,157,1,INLER,HB,old,z,./images/INLERHB.png,,,,,,,,,,,,,,,,,,,,,,,,,,,,,,,,,,
,,,,,,,,,,,,,,,,,60fde0b2f2b1d36e006ad138,19,2022-02-12_16h39.38.668,lexical_decision_task_DD,2021.2.3,MacIntel,60.0024001,,,,,,,,,,,,1.0321,1,,,,,,,,,,,,,,m,1,1.0321,,,,,,,,0.04983941,-0.422248264,0,0,0,,0,72,72,16,1,PENCE,HB,old,m,./images/PENCEHB.png,,,,,,,,,,,,,,,,,,,,,,,,,,,,,,,,,,
,,,,,,,,,,,,,,,,,60fde0b2f2b1d36e006ad138,19,2022-02-12_16h39.38.668,lexical_decision_task_DD,2021.2.3,MacIntel,60.0024001,,,,,,,,,,,,0.6138,1,,,,,,,,,,,,,,z,1,0.6138,,,,,,,,0.04983941,-0.422248264,0,0,0,,0,73,73,126,1,GUELS,C,old,z,./images/GUELS.png,,,,,,,,,,,,,,,,,,,,,,,,,,,,,,,,,,
,,,,,,,,,,,,,,,,,60fde0b2f2b1d36e006ad138,19,2022-02-12_16h39.38.668,lexical_decision_task_DD,2021.2.3,MacIntel,60.0024001,,,,,,,,,,,,0.7997,1,,,,,,,,,,,,,,m,1,0.7997,,,,,,,,0.04983941,-0.422248264,0,0,0,,0,74,74,69,1,COOKER,C,old,m,./images/COOKER.png,,,,,,,,,,,,,,,,,,,,,,,,,,,,,,,,,,
,,,,,,,,,,,,,,,,,60fde0b2f2b1d36e006ad138,19,2022-02-12_16h39.38.668,lexical_decision_task_DD,2021.2.3,MacIntel,60.0024001,,,,,,,,,,,,0.7786,1,,,,,,,,,,,,,,m,1,0.7786,,,,,,,,0.04983941,-0.422248264,0,0,0,,0,75,75,12,1,SHORE,C,old,m,./images/SHORE.png,,,,,,,,,,,,,,,,,,,,,,,,,,,,,,,,,,
,,,,,,,,,,,,,,,,,60fde0b2f2b1d36e006ad138,19,2022-02-12_16h39.38.668,lexical_decision_task_DD,2021.2.3,MacIntel,60.0024001,,,,,,,,,,,,0.9616,1,,,,,,,,,,,,,,m,1,0.9616,,,,,,,,0.04983941,-0.422248264,0,0,0,,0,76,76,58,1,BABOON,HB,old,m,./images/BABOONHB.png,,,,,,,,,,,,,,,,,,,,,,,,,,,,,,,,,,
,,,,,,,,,,,,,,,,,60fde0b2f2b1d36e006ad138,19,2022-02-12_16h39.38.668,lexical_decision_task_DD,2021.2.3,MacIntel,60.0024001,,,,,,,,,,,,0.7978,1,,,,,,,,,,,,,,z,1,0.7978,,,,,,,,0.04983941,-0.422248264,0,0,0,,0,77,77,97,1,CHIDS,HB,old,z,./images/CHIDSHB.png,,,,,,,,,,,,,,,,,,,,,,,,,,,,,,,,,,
,,,,,,,,,,,,,,,,,60fde0b2f2b1d36e006ad138,19,2022-02-12_16h39.38.668,lexical_decision_task_DD,2021.2.3,MacIntel,60.0024001,,,,,,,,,,,,0.6098,1,,,,,,,,,,,,,,m,1,0.6098,,,,,,,,0.04983941,-0.422248264,0,0,0,,0,78,78,54,1,TRIPOD,C,old,m,./images/TRIPOD.png,,,,,,,,,,,,,,,,,,,,,,,,,,,,,,,,,,
,,,,,,,,,,,,,,,,,60fde0b2f2b1d36e006ad138,19,2022-02-12_16h39.38.668,lexical_decision_task_DD,2021.2.3,MacIntel,60.0024001,,,,,,,,,,,,0.7841,1,,,,,,,,,,,,,,m,1,0.7841,,,,,,,,0.04983941,-0.422248264,0,0,0,,0,79,79,17,1,SKIING,LB,old,m,./images/SKIINGLB.png,,,,,,,,,,,,,,,,,,,,,,,,,,,,,,,,,,
,,,,,,,,,,,,,,,,,60fde0b2f2b1d36e006ad138,19,2022-02-12_16h39.38.668,lexical_decision_task_DD,2021.2.3,MacIntel,60.0024001,,,,,,,,,,,,0.8455,1,,,,,,,,,,,,,,m,1,0.8455,,,,,,,,0.04983941,-0.422248264,0,0,0,,0,80,80,52,1,BANNER,HB,old,m,./images/BANNERHB.png,,,,,,,,,,,,,,,,,,,,,,,,,,,,,,,,,,
,,,,,,,,,,,,,,,,,60fde0b2f2b1d36e006ad138,19,2022-02-12_16h39.38.668,lexical_decision_task_DD,2021.2.3,MacIntel,60.0024001,,,,,,,,,,,,0.7495,1,,,,,,,,,,,,,,m,1,0.7495,,,,,,,,0.04983941,-0.422248264,0,0,0,,0,81,81,21,1,KIDNEY,C,old,m,./images/KIDNEY.png,,,,,,,,,,,,,,,,,,,,,,,,,,,,,,,,,,
,,,,,,,,,,,,,,,,,60fde0b2f2b1d36e006ad138,19,2022-02-12_16h39.38.668,lexical_decision_task_DD,2021.2.3,MacIntel,60.0024001,,,,,,,,,,,,0.7126,1,,,,,,,,,,,,,,z,1,0.7126,,,,,,,,0.04983941,-0.422248264,0,0,0,,0,82,82,134,1,TROSS,LB,old,z,./images/TROSSLB.png,,,,,,,,,,,,,,,,,,,,,,,,,,,,,,,,,,
,,,,,,,,,,,,,,,,,60fde0b2f2b1d36e006ad138,19,2022-02-12_16h39.38.668,lexical_decision_task_DD,2021.2.3,MacIntel,60.0024001,,,,,,,,,,,,0.6052,1,,,,,,,,,,,,,,m,1,0.6052,,,,,,,,0.04983941,-0.422248264,0,0,0,space,0,83,83,20,1,CRADLE,LB,old,m,./images/CRADLELB.png,19.1006,,,,,,,,,,,,,,,,,,,,,,,,,,,,,,,,,
,,,,,,,,,,,,,,,,,60fde0b2f2b1d36e006ad138,19,2022-02-12_16h39.38.668,lexical_decision_task_DD,2021.2.3,MacIntel,60.0024001,,,,,,,,,,,,0.7179,1,,,,,,,,,,,,,,m,1,0.7179,,,,,,,,0.04983941,-0.422248264,0,0,0,,0,84,84,74,1,CEMENT,LB,old,m,./images/CEMENTLB.png,,,,,,,,,,,,,,,,,,,,,,,,,,,,,,,,,,
,,,,,,,,,,,,,,,,,60fde0b2f2b1d36e006ad138,19,2022-02-12_16h39.38.668,lexical_decision_task_DD,2021.2.3,MacIntel,60.0024001,,,,,,,,,,,,1.7796,0,,,,,,,,,,,,,,z,0,1.7796,,,,,,,,0.04983941,-0.422248264,0,0,0,,0,85,85,72,1,NOOSE,C,old,m,./images/NOOSE.png,,,,,,,,,,,,,,,,,,,,,,,,,,,,,,,,,,
,,,,,,,,,,,,,,,,,60fde0b2f2b1d36e006ad138,19,2022-02-12_16h39.38.668,lexical_decision_task_DD,2021.2.3,MacIntel,60.0024001,,,,,,,,,,,,0.7852,1,,,,,,,,,,,,,,m,1,0.7852,,,,,,,,0.04983941,-0.422248264,0,0,0,,0,86,86,19,1,DOUGH,HB,old,m,./images/DOUGHHB.png,,,,,,,,,,,,,,,,,,,,,,,,,,,,,,,,,,
,,,,,,,,,,,,,,,,,60fde0b2f2b1d36e006ad138,19,2022-02-12_16h39.38.668,lexical_decision_task_DD,2021.2.3,MacIntel,60.0024001,,,,,,,,,,,,0.6325,1,,,,,,,,,,,,,,m,1,0.6325,,,,,,,,0.04983941,-0.422248264,0,0,0,,0,87,87,47,1,BERRY,LB,old,m,./images/BERRYLB.png,,,,,,,,,,,,,,,,,,,,,,,,,,,,,,,,,,
,,,,,,,,,,,,,,,,,60fde0b2f2b1d36e006ad138,19,2022-02-12_16h39.38.668,lexical_decision_task_DD,2021.2.3,MacIntel,60.0024001,,,,,,,,,,,,0.8703,1,,,,,,,,,,,,,,z,1,0.8703,,,,,,,,0.04983941,-0.422248264,0,0,0,,0,88,88,91,1,SHENS,HB,old,z,./images/SHENSHB.png,,,,,,,,,,,,,,,,,,,,,,,,,,,,,,,,,,
,,,,,,,,,,,,,,,,,60fde0b2f2b1d36e006ad138,19,2022-02-12_16h39.38.668,lexical_decision_task_DD,2021.2.3,MacIntel,60.0024001,,,,,,,,,,,,1.1159,1,,,,,,,,,,,,,,z,1,1.1159,,,,,,,,0.04983941,-0.422248264,0,0,0,,0,89,89,100,1,DRIBS,HB,old,z,./images/DRIBSHB.png,,,,,,,,,,,,,,,,,,,,,,,,,,,,,,,,,,
,,,,,,,,,,,,,,,,,60fde0b2f2b1d36e006ad138,19,2022-02-12_16h39.38.668,lexical_decision_task_DD,2021.2.3,MacIntel,60.0024001,,,,,,,,,,,,0.6771,1,,,,,,,,,,,,,,z,1,0.6771,,,,,,,,0.04983941,-0.422248264,0,0,0,,0,90,90,164,1,SGREW,LB,old,z,./images/SGREWLB.png,,,,,,,,,,,,,,,,,,,,,,,,,,,,,,,,,,
,,,,,,,,,,,,,,,,,60fde0b2f2b1d36e006ad138,19,2022-02-12_16h39.38.668,lexical_decision_task_DD,2021.2.3,MacIntel,60.0024001,,,,,,,,,,,,0.5844,1,,,,,,,,,,,,,,m,1,0.5844,,,,,,,,0.04983941,-0.422248264,0,0,0,,0,91,91,62,1,PURSE,LB,old,m,./images/PURSELB.png,,,,,,,,,,,,,,,,,,,,,,,,,,,,,,,,,,
,,,,,,,,,,,,,,,,,60fde0b2f2b1d36e006ad138,19,2022-02-12_16h39.38.668,lexical_decision_task_DD,2021.2.3,MacIntel,60.0024001,,,,,,,,,,,,2.0636,1,,,,,,,,,,,,,,z,1,2.0636,,,,,,,,0.04983941,-0.422248264,0,0,0,,0,92,92,154,1,THINT,HB,old,z,./images/THINTHB.png,,,,,,,,,,,,,,,,,,,,,,,,,,,,,,,,,,
,,,,,,,,,,,,,,,,,60fde0b2f2b1d36e006ad138,19,2022-02-12_16h39.38.668,lexical_decision_task_DD,2021.2.3,MacIntel,60.0024001,,,,,,,,,,,,0.7807,1,,,,,,,,,,,,,,m,1,0.7807,,,,,,,,0.04983941,-0.422248264,0,0,0,,0,93,93,37,1,BIRTH,HB,old,m,./images/BIRTHHB.png,,,,,,,,,,,,,,,,,,,,,,,,,,,,,,,,,,
,,,,,,,,,,,,,,,,,60fde0b2f2b1d36e006ad138,19,2022-02-12_16h39.38.668,lexical_decision_task_DD,2021.2.3,MacIntel,60.0024001,,,,,,,,,,,,0.5801,1,,,,,,,,,,,,,,z,1,0.5801,,,,,,,,0.04983941,-0.422248264,0,0,0,,0,94,94,117,1,STEEG,C,old,z,./images/STEEG.png,,,,,,,,,,,,,,,,,,,,,,,,,,,,,,,,,,
,,,,,,,,,,,,,,,,,60fde0b2f2b1d36e006ad138,19,2022-02-12_16h39.38.668,lexical_decision_task_DD,2021.2.3,MacIntel,60.0024001,,,,,,,,,,,,0.7646,1,,,,,,,,,,,,,,z,1,0.7646,,,,,,,,0.04983941,-0.422248264,0,0,0,,0,95,95,103,1,FLORT,HB,old,z,./images/FLORTHB.png,,,,,,,,,,,,,,,,,,,,,,,,,,,,,,,,,,
,,,,,,,,,,,,,,,,,60fde0b2f2b1d36e006ad138,19,2022-02-12_16h39.38.668,lexical_decision_task_DD,2021.2.3,MacIntel,60.0024001,,,,,,,,,,,,0.613,1,,,,,,,,,,,,,,m,1,0.613,,,,,,,,0.04983941,-0.422248264,0,0,0,,0,96,96,39,1,SHELF,C,old,m,./images/SHELF.png,,,,,,,,,,,,,,,,,,,,,,,,,,,,,,,,,,
,,,,,,,,,,,,,,,,,60fde0b2f2b1d36e006ad138,19,2022-02-12_16h39.38.668,lexical_decision_task_DD,2021.2.3,MacIntel,60.0024001,,,,,,,,,,,,0.5958,1,,,,,,,,,,,,,,m,1,0.5958,,,,,,,,0.04983941,-0.422248264,0,0,0,,0,97,97,63,1,MIRROR,C,old,m,./images/MIRROR.png,,,,,,,,,,,,,,,,,,,,,,,,,,,,,,,,,,
,,,,,,,,,,,,,,,,,60fde0b2f2b1d36e006ad138,19,2022-02-12_16h39.38.668,lexical_decision_task_DD,2021.2.3,MacIntel,60.0024001,,,,,,,,,,,,0.7148,1,,,,,,,,,,,,,,m,1,0.7148,,,,,,,,0.04983941,-0.422248264,0,0,0,,0,98,98,13,1,MOTOR,HB,old,m,./images/MOTORHB.png,,,,,,,,,,,,,,,,,,,,,,,,,,,,,,,,,,
,,,,,,,,,,,,,,,,,60fde0b2f2b1d36e006ad138,19,2022-02-12_16h39.38.668,lexical_decision_task_DD,2021.2.3,MacIntel,60.0024001,,,,,,,,,,,,1.2475,1,,,,,,,,,,,,,,m,1,1.2475,,,,,,,,0.04983941,-0.422248264,0,0,0,,0,99,99,67,1,SAILOR,HB,old,m,./images/SAILORHB.png,,,,,,,,,,,,,,,,,,,,,,,,,,,,,,,,,,
,,,,,,,,,,,,,,,,,60fde0b2f2b1d36e006ad138,19,2022-02-12_16h39.38.668,lexical_decision_task_DD,2021.2.3,MacIntel,60.0024001,,,,,,,,,,,,0.9956,1,,,,,,,,,,,,,,z,1,0.9956,,,,,,,,0.04983941,-0.422248264,0,0,0,,0,100,100,88,1,GLUSH,HB,old,z,./images/GLUSHHB.png,,,,,,,,,,,,,,,,,,,,,,,,,,,,,,,,,,
,,,,,,,,,,,,,,,,,60fde0b2f2b1d36e006ad138,19,2022-02-12_16h39.38.668,lexical_decision_task_DD,2021.2.3,MacIntel,60.0024001,,,,,,,,,,,,0.7305,1,,,,,,,,,,,,,,m,1,0.7305,,,,,,,,0.04983941,-0.422248264,0,0,0,,0,101,101,7,1,PAINT,HB,old,m,./images/PAINTHB.png,,,,,,,,,,,,,,,,,,,,,,,,,,,,,,,,,,
,,,,,,,,,,,,,,,,,60fde0b2f2b1d36e006ad138,19,2022-02-12_16h39.38.668,lexical_decision_task_DD,2021.2.3,MacIntel,60.0024001,,,,,,,,,,,,0.8431,1,,,,,,,,,,,,,,z,1,0.8431,,,,,,,,0.04983941,-0.422248264,0,0,0,,0,102,102,92,1,PAIMS,LB,old,z,./images/PAIMSLB.png,,,,,,,,,,,,,,,,,,,,,,,,,,,,,,,,,,
,,,,,,,,,,,,,,,,,60fde0b2f2b1d36e006ad138,19,2022-02-12_16h39.38.668,lexical_decision_task_DD,2021.2.3,MacIntel,60.0024001,,,,,,,,,,,,0.7464,1,,,,,,,,,,,,,,z,1,0.7464,,,,,,,,0.04983941,-0.422248264,0,0,0,,0,103,103,128,1,GRIFT,LB,old,z,./images/GRIFTLB.png,,,,,,,,,,,,,,,,,,,,,,,,,,,,,,,,,,
,,,,,,,,,,,,,,,,,60fde0b2f2b1d36e006ad138,19,2022-02-12_16h39.38.668,lexical_decision_task_DD,2021.2.3,MacIntel,60.0024001,,,,,,,,,,,,0.7322,1,,,,,,,,,,,,,,z,1,0.7322,,,,,,,,0.04983941,-0.422248264,0,0,0,,0,104,104,146,1,MOOST,LB,old,z,./images/MOOSTLB.png,,,,,,,,,,,,,,,,,,,,,,,,,,,,,,,,,,
,,,,,,,,,,,,,,,,,60fde0b2f2b1d36e006ad138,19,2022-02-12_16h39.38.668,lexical_decision_task_DD,2021.2.3,MacIntel,60.0024001,,,,,,,,,,,,0.6981,1,,,,,,,,,,,,,,z,1,0.6981,,,,,,,,0.04983941,-0.422248264,0,0,0,,0,105,105,143,1,MONGS,LB,old,z,./images/MONGSLB.png,,,,,,,,,,,,,,,,,,,,,,,,,,,,,,,,,,
,,,,,,,,,,,,,,,,,60fde0b2f2b1d36e006ad138,19,2022-02-12_16h39.38.668,lexical_decision_task_DD,2021.2.3,MacIntel,60.0024001,,,,,,,,,,,,0.6831,1,,,,,,,,,,,,,,z,1,0.6831,,,,,,,,0.04983941,-0.422248264,0,0,0,,0,106,106,111,1,HOSSE,C,old,z,./images/HOSSE.png,,,,,,,,,,,,,,,,,,,,,,,,,,,,,,,,,,
,,,,,,,,,,,,,,,,,60fde0b2f2b1d36e006ad138,19,2022-02-12_16h39.38.668,lexical_decision_task_DD,2021.2.3,MacIntel,60.0024001,,,,,,,,,,,,0.862,1,,,,,,,,,,,,,,z,1,0.862,,,,,,,,0.04983941,-0.422248264,0,0,0,,0,107,107,107,1,FASKS,LB,old,z,./images/FASKSLB.png,,,,,,,,,,,,,,,,,,,,,,,,,,,,,,,,,,
,,,,,,,,,,,,,,,,,60fde0b2f2b1d36e006ad138,19,2022-02-12_16h39.38.668,lexical_decision_task_DD,2021.2.3,MacIntel,60.0024001,,,,,,,,,,,,0.6958,1,,,,,,,,,,,,,,z,1,0.6958,,,,,,,,0.04983941,-0.422248264,0,0,0,,0,108,108,140,1,DOVET,LB,old,z,./images/DOVETLB.png,,,,,,,,,,,,,,,,,,,,,,,,,,,,,,,,,,
,,,,,,,,,,,,,,,,,60fde0b2f2b1d36e006ad138,19,2022-02-12_16h39.38.668,lexical_decision_task_DD,2021.2.3,MacIntel,60.0024001,,,,,,,,,,,,1.302,1,,,,,,,,,,,,,,m,1,1.302,,,,,,,,0.04983941,-0.422248264,0,0,0,,0,109,109,23,1,WALRUS,LB,old,m,./images/WALRUSLB.png,,,,,,,,,,,,,,,,,,,,,,,,,,,,,,,,,,
,,,,,,,,,,,,,,,,,60fde0b2f2b1d36e006ad138,19,2022-02-12_16h39.38.668,lexical_decision_task_DD,2021.2.3,MacIntel,60.0024001,,,,,,,,,,,,1.0143,1,,,,,,,,,,,,,,z,1,1.0143,,,,,,,,0.04983941,-0.422248264,0,0,0,,0,110,110,133,1,POWDY,HB,old,z,./images/POWDYHB.png,,,,,,,,,,,,,,,,,,,,,,,,,,,,,,,,,,
,,,,,,,,,,,,,,,,,60fde0b2f2b1d36e006ad138,19,2022-02-12_16h39.38.668,lexical_decision_task_DD,2021.2.3,MacIntel,60.0024001,,,,,,,,,,,,0.8029,1,,,,,,,,,,,,,,m,1,0.8029,,,,,,,,0.04983941,-0.422248264,0,0,0,,0,111,111,64,1,JELLY,HB,old,m,./images/JELLYHB.png,,,,,,,,,,,,,,,,,,,,,,,,,,,,,,,,,,
,,,,,,,,,,,,,,,,,60fde0b2f2b1d36e006ad138,19,2022-02-12_16h39.38.668,lexical_decision_task_DD,2021.2.3,MacIntel,60.0024001,,,,,,,,,,,,0.5773,1,,,,,,,,,,,,,,m,1,0.5773,,,,,,,,0.04983941,-0.422248264,0,0,0,,0,112,112,45,1,KITTEN,C,old,m,./images/KITTEN.png,,,,,,,,,,,,,,,,,,,,,,,,,,,,,,,,,,
,,,,,,,,,,,,,,,,,60fde0b2f2b1d36e006ad138,19,2022-02-12_16h39.38.668,lexical_decision_task_DD,2021.2.3,MacIntel,60.0024001,,,,,,,,,,,,0.681,1,,,,,,,,,,,,,,z,1,0.681,,,,,,,,0.04983941,-0.422248264,0,0,0,,0,113,113,105,1,MOKER,C,old,z,./images/MOKER.png,,,,,,,,,,,,,,,,,,,,,,,,,,,,,,,,,,
,,,,,,,,,,,,,,,,,60fde0b2f2b1d36e006ad138,19,2022-02-12_16h39.38.668,lexical_decision_task_DD,2021.2.3,MacIntel,60.0024001,,,,,,,,,,,,0.6468,0,,,,,,,,,,,,,,m,0,0.6468,,,,,,,,0.04983941,-0.422248264,0,0,0,,0,114,114,166,1,SHORY,HB,old,z,./images/SHORYHB.png,,,,,,,,,,,,,,,,,,,,,,,,,,,,,,,,,,
,,,,,,,,,,,,,,,,,60fde0b2f2b1d36e006ad138,19,2022-02-12_16h39.38.668,lexical_decision_task_DD,2021.2.3,MacIntel,60.0024001,,,,,,,,,,,,1.0767,1,,,,,,,,,,,,,,z,1,1.0767,,,,,,,,0.04983941,-0.422248264,0,0,0,,0,115,115,114,1,RIKES,C,old,z,./images/RIKES.png,,,,,,,,,,,,,,,,,,,,,,,,,,,,,,,,,,
,,,,,,,,,,,,,,,,,60fde0b2f2b1d36e006ad138,19,2022-02-12_16h39.38.668,lexical_decision_task_DD,2021.2.3,MacIntel,60.0024001,,,,,,,,,,,,0.6313,1,,,,,,,,,,,,,,m,1,0.6313,,,,,,,,0.04983941,-0.422248264,0,0,0,,0,116,116,32,1,BARREL,LB,old,m,./images/BARRELLB.png,,,,,,,,,,,,,,,,,,,,,,,,,,,,,,,,,,
,,,,,,,,,,,,,,,,,60fde0b2f2b1d36e006ad138,19,2022-02-12_16h39.38.668,lexical_decision_task_DD,2021.2.3,MacIntel,60.0024001,,,,,,,,,,,,0.6804,1,,,,,,,,,,,,,,m,1,0.6804,,,,,,,,0.04983941,-0.422248264,0,0,0,,0,117,117,41,1,STRING,LB,old,m,./images/STRINGLB.png,,,,,,,,,,,,,,,,,,,,,,,,,,,,,,,,,,
,,,,,,,,,,,,,,,,,60fde0b2f2b1d36e006ad138,19,2022-02-12_16h39.38.668,lexical_decision_task_DD,2021.2.3,MacIntel,60.0024001,,,,,,,,,,,,0.6315,0,,,,,,,,,,,,,,m,0,0.6315,,,,,,,,0.04983941,-0.422248264,0,0,0,,0,118,118,159,1,CUDDY,C,old,z,./images/CUDDY.png,,,,,,,,,,,,,,,,,,,,,,,,,,,,,,,,,,
,,,,,,,,,,,,,,,,,60fde0b2f2b1d36e006ad138,19,2022-02-12_16h39.38.668,lexical_decision_task_DD,2021.2.3,MacIntel,60.0024001,,,,,,,,,,,,0.7847,1,,,,,,,,,,,,,,m,1,0.7847,,,,,,,,0.04983941,-0.422248264,0,0,0,,0,119,119,65,1,FARMER,LB,old,m,./images/FARMERLB.png,,,,,,,,,,,,,,,,,,,,,,,,,,,,,,,,,,
,,,,,,,,,,,,,,,,,60fde0b2f2b1d36e006ad138,19,2022-02-12_16h39.38.668,lexical_decision_task_DD,2021.2.3,MacIntel,60.0024001,,,,,,,,,,,,0.654,1,,,,,,,,,,,,,,m,1,0.654,,,,,,,,0.04983941,-0.422248264,0,0,0,,0,120,120,71,1,PIMPLE,LB,old,m,./images/PIMPLELB.png,,,,,,,,,,,,,,,,,,,,,,,,,,,,,,,,,,
,,,,,,,,,,,,,,,,,60fde0b2f2b1d36e006ad138,19,2022-02-12_16h39.38.668,lexical_decision_task_DD,2021.2.3,MacIntel,60.0024001,,,,,,,,,,,,0.9345,1,,,,,,,,,,,,,,m,1,0.9345,,,,,,,,0.04983941,-0.422248264,0,0,0,,0,121,121,70,1,URINE,HB,old,m,./images/URINEHB.png,,,,,,,,,,,,,,,,,,,,,,,,,,,,,,,,,,
,,,,,,,,,,,,,,,,,60fde0b2f2b1d36e006ad138,19,2022-02-12_16h39.38.668,lexical_decision_task_DD,2021.2.3,MacIntel,60.0024001,,,,,,,,,,,,0.7481,1,,,,,,,,,,,,,,m,1,0.7481,,,,,,,,0.04983941,-0.422248264,0,0,0,,0,122,122,14,1,PICKLE,LB,old,m,./images/PICKLELB.png,,,,,,,,,,,,,,,,,,,,,,,,,,,,,,,,,,
,,,,,,,,,,,,,,,,,60fde0b2f2b1d36e006ad138,19,2022-02-12_16h39.38.668,lexical_decision_task_DD,2021.2.3,MacIntel,60.0024001,,,,,,,,,,,,0.7834,1,,,,,,,,,,,,,,m,1,0.7834,,,,,,,,0.04983941,-0.422248264,0,0,0,,0,123,123,31,1,QUILL,HB,old,m,./images/QUILLHB.png,,,,,,,,,,,,,,,,,,,,,,,,,,,,,,,,,,
,,,,,,,,,,,,,,,,,60fde0b2f2b1d36e006ad138,19,2022-02-12_16h39.38.668,lexical_decision_task_DD,2021.2.3,MacIntel,60.0024001,,,,,,,,,,,,0.7854,1,,,,,,,,,,,,,,m,1,0.7854,,,,,,,,0.04983941,-0.422248264,0,0,0,,0,124,124,82,1,SUNSET,HB,old,m,./images/SUNSETHB.png,,,,,,,,,,,,,,,,,,,,,,,,,,,,,,,,,,
,,,,,,,,,,,,,,,,,60fde0b2f2b1d36e006ad138,19,2022-02-12_16h39.38.668,lexical_decision_task_DD,2021.2.3,MacIntel,60.0024001,,,,,,,,,,,,1.4815,1,,,,,,,,,,,,,,z,1,1.4815,,,,,,,,0.04983941,-0.422248264,0,0,0,space,0,125,125,109,1,BURGE,HB,old,z,./images/BURGEHB.png,2.1845,,,,,,,,,,,,,,,,,,,,,,,,,,,,,,,,,
,,,,,,,,,,,,,,,,,60fde0b2f2b1d36e006ad138,19,2022-02-12_16h39.38.668,lexical_decision_task_DD,2021.2.3,MacIntel,60.0024001,,,,,,,,,,,,0.9146,1,,,,,,,,,,,,,,z,1,0.9146,,,,,,,,0.04983941,-0.422248264,0,0,0,,0,126,126,94,1,BLANS,HB,old,z,./images/BLANSHB.png,,,,,,,,,,,,,,,,,,,,,,,,,,,,,,,,,,
,,,,,,,,,,,,,,,,,60fde0b2f2b1d36e006ad138,19,2022-02-12_16h39.38.668,lexical_decision_task_DD,2021.2.3,MacIntel,60.0024001,,,,,,,,,,,,0.912,0,,,,,,,,,,,,,,z,0,0.912,,,,,,,,0.04983941,-0.422248264,0,0,0,,0,127,127,49,1,DRUMS,HB,old,m,./images/DRUMSHB.png,,,,,,,,,,,,,,,,,,,,,,,,,,,,,,,,,,
,,,,,,,,,,,,,,,,,60fde0b2f2b1d36e006ad138,19,2022-02-12_16h39.38.668,lexical_decision_task_DD,2021.2.3,MacIntel,60.0024001,,,,,,,,,,,,1.0421,1,,,,,,,,,,,,,,z,1,1.0421,,,,,,,,0.04983941,-0.422248264,0,0,0,,0,128,128,85,1,CHULK,HB,old,z,./images/CHULKHB.png,,,,,,,,,,,,,,,,,,,,,,,,,,,,,,,,,,
,,,,,,,,,,,,,,,,,60fde0b2f2b1d36e006ad138,19,2022-02-12_16h39.38.668,lexical_decision_task_DD,2021.2.3,MacIntel,60.0024001,,,,,,,,,,,,0.9294,1,,,,,,,,,,,,,,z,1,0.9294,,,,,,,,0.04983941,-0.422248264,0,0,0,,0,129,129,129,1,PRANS,C,old,z,./images/PRANS.png,,,,,,,,,,,,,,,,,,,,,,,,,,,,,,,,,,
,,,,,,,,,,,,,,,,,60fde0b2f2b1d36e006ad138,19,2022-02-12_16h39.38.668,lexical_decision_task_DD,2021.2.3,MacIntel,60.0024001,,,,,,,,,,,,0.6957,1,,,,,,,,,,,,,,m,1,0.6957,,,,,,,,0.04983941,-0.422248264,0,0,0,,0,130,130,18,1,JAGUAR,C,old,m,./images/JAGUAR.png,,,,,,,,,,,,,,,,,,,,,,,,,,,,,,,,,,
,,,,,,,,,,,,,,,,,60fde0b2f2b1d36e006ad138,19,2022-02-12_16h39.38.668,lexical_decision_task_DD,2021.2.3,MacIntel,60.0024001,,,,,,,,,,,,0.9183,1,,,,,,,,,,,,,,z,1,0.9183,,,,,,,,0.04983941,-0.422248264,0,0,0,,0,131,131,123,1,SEDGE,C,old,z,./images/SEDGE.png,,,,,,,,,,,,,,,,,,,,,,,,,,,,,,,,,,
,,,,,,,,,,,,,,,,,60fde0b2f2b1d36e006ad138,19,2022-02-12_16h39.38.668,lexical_decision_task_DD,2021.2.3,MacIntel,60.0024001,,,,,,,,,,,,0.7335,1,,,,,,,,,,,,,,z,1,0.7335,,,,,,,,0.04983941,-0.422248264,0,0,0,,0,132,132,119,1,PAFER,LB,old,z,./images/PAFERLB.png,,,,,,,,,,,,,,,,,,,,,,,,,,,,,,,,,,
,,,,,,,,,,,,,,,,,60fde0b2f2b1d36e006ad138,19,2022-02-12_16h39.38.668,lexical_decision_task_DD,2021.2.3,MacIntel,60.0024001,,,,,,,,,,,,0.6186,1,,,,,,,,,,,,,,z,1,0.6186,,,,,,,,0.04983941,-0.422248264,0,0,0,,0,133,133,155,1,CANGY,LB,old,z,./images/CANGYLB.png,,,,,,,,,,,,,,,,,,,,,,,,,,,,,,,,,,
,,,,,,,,,,,,,,,,,60fde0b2f2b1d36e006ad138,19,2022-02-12_16h39.38.668,lexical_decision_task_DD,2021.2.3,MacIntel,60.0024001,,,,,,,,,,,,0.6467,1,,,,,,,,,,,,,,z,1,0.6467,,,,,,,,0.04983941,-0.422248264,0,0,0,,0,134,134,153,1,CLUPS,C,old,z,./images/CLUPS.png,,,,,,,,,,,,,,,,,,,,,,,,,,,,,,,,,,
,,,,,,,,,,,,,,,,,60fde0b2f2b1d36e006ad138,19,2022-02-12_16h39.38.668,lexical_decision_task_DD,2021.2.3,MacIntel,60.0024001,,,,,,,,,,,,1.0633,1,,,,,,,,,,,,,,m,1,1.0633,,,,,,,,0.04983941,-0.422248264,0,0,0,,0,135,135,4,1,MUSCLE,HB,old,m,./images/MUSCLEHB.png,,,,,,,,,,,,,,,,,,,,,,,,,,,,,,,,,,
,,,,,,,,,,,,,,,,,60fde0b2f2b1d36e006ad138,19,2022-02-12_16h39.38.668,lexical_decision_task_DD,2021.2.3,MacIntel,60.0024001,,,,,,,,,,,,0.5503,1,,,,,,,,,,,,,,m,1,0.5503,,,,,,,,0.04983941,-0.422248264,0,0,0,,0,136,136,44,1,LIZARD,LB,old,m,./images/LIZARDLB.png,,,,,,,,,,,,,,,,,,,,,,,,,,,,,,,,,,
,,,,,,,,,,,,,,,,,60fde0b2f2b1d36e006ad138,19,2022-02-12_16h39.38.668,lexical_decision_task_DD,2021.2.3,MacIntel,60.0024001,,,,,,,,,,,,0.7271,1,,,,,,,,,,,,,,m,1,0.7271,,,,,,,,0.04983941,-0.422248264,0,0,0,,0,137,137,28,1,FALCON,HB,old,m,./images/FALCONHB.png,,,,,,,,,,,,,,,,,,,,,,,,,,,,,,,,,,
,,,,,,,,,,,,,,,,,60fde0b2f2b1d36e006ad138,19,2022-02-12_16h39.38.668,lexical_decision_task_DD,2021.2.3,MacIntel,60.0024001,,,,,,,,,,,,1.5503,1,,,,,,,,,,,,,,z,1,1.5503,,,,,,,,0.04983941,-0.422248264,0,0,0,,0,138,138,158,1,EGECT,LB,old,z,./images/EGECTLB.png,,,,,,,,,,,,,,,,,,,,,,,,,,,,,,,,,,
,,,,,,,,,,,,,,,,,60fde0b2f2b1d36e006ad138,19,2022-02-12_16h39.38.668,lexical_decision_task_DD,2021.2.3,MacIntel,60.0024001,,,,,,,,,,,,0.6991,1,,,,,,,,,,,,,,m,1,0.6991,,,,,,,,0.04983941,-0.422248264,0,0,0,,0,139,139,26,1,SMOKER,LB,old,m,./images/SMOKERLB.png,,,,,,,,,,,,,,,,,,,,,,,,,,,,,,,,,,
,,,,,,,,,,,,,,,,,60fde0b2f2b1d36e006ad138,19,2022-02-12_16h39.38.668,lexical_decision_task_DD,2021.2.3,MacIntel,60.0024001,,,,,,,,,,,,1.2621,1,,,,,,,,,,,,,,z,1,1.2621,,,,,,,,0.04983941,-0.421992188,0,0,0,,0,140,140,151,1,TINKY,HB,old,z,./images/TINKYHB.png,,,,,,,,,,,,,,,,,,,,,,,,,,,,,,,,,,
,,,,,,,,,,,,,,,,,60fde0b2f2b1d36e006ad138,19,2022-02-12_16h39.38.668,lexical_decision_task_DD,2021.2.3,MacIntel,60.0024001,,,,,,,,,,,,1.4431,1,,,,,,,,,,,,,,z,1,1.4431,,,,,,,,0.04983941,-0.421992188,0,0,0,,0,141,141,156,1,HIXES,C,old,z,./images/HIXES.png,,,,,,,,,,,,,,,,,,,,,,,,,,,,,,,,,,
,,,,,,,,,,,,,,,,,60fde0b2f2b1d36e006ad138,19,2022-02-12_16h39.38.668,lexical_decision_task_DD,2021.2.3,MacIntel,60.0024001,,,,,,,,,,,,0.7312,1,,,,,,,,,,,,,,m,1,0.7312,,,,,,,,0.04983941,-0.421992188,0,0,0,,0,142,142,73,1,SNACK,HB,old,m,./images/SNACKHB.png,,,,,,,,,,,,,,,,,,,,,,,,,,,,,,,,,,
,,,,,,,,,,,,,,,,,60fde0b2f2b1d36e006ad138,19,2022-02-12_16h39.38.668,lexical_decision_task_DD,2021.2.3,MacIntel,60.0024001,,,,,,,,,,,,0.7957,1,,,,,,,,,,,,,,m,1,0.7957,,,,,,,,0.04983941,-0.421992188,0,0,0,,0,143,143,75,1,GRAIN,C,old,m,./images/GRAIN.png,,,,,,,,,,,,,,,,,,,,,,,,,,,,,,,,,,
,,,,,,,,,,,,,,,,,60fde0b2f2b1d36e006ad138,19,2022-02-12_16h39.38.668,lexical_decision_task_DD,2021.2.3,MacIntel,60.0024001,,,,,,,,,,,,0.82,1,,,,,,,,,,,,,,z,1,0.82,,,,,,,,0.04983941,-0.421992188,0,0,0,,0,144,144,136,1,WERVE,HB,old,z,./images/WERVEHB.png,,,,,,,,,,,,,,,,,,,,,,,,,,,,,,,,,,
,,,,,,,,,,,,,,,,,60fde0b2f2b1d36e006ad138,19,2022-02-12_16h39.38.668,lexical_decision_task_DD,2021.2.3,MacIntel,60.0024001,,,,,,,,,,,,0.7511,1,,,,,,,,,,,,,,m,1,0.7511,,,,,,,,0.04983941,-0.421992188,0,0,0,,0,145,145,51,1,ONION,C,old,m,./images/ONION.png,,,,,,,,,,,,,,,,,,,,,,,,,,,,,,,,,,
,,,,,,,,,,,,,,,,,60fde0b2f2b1d36e006ad138,19,2022-02-12_16h39.38.668,lexical_decision_task_DD,2021.2.3,MacIntel,60.0024001,,,,,,,,,,,,1.6967,1,,,,,,,,,,,,,,m,1,1.6967,,,,,,,,0.04983941,-0.421992188,0,0,0,,0,146,146,61,1,CANDLE,HB,old,m,./images/CANDLEHB.png,,,,,,,,,,,,,,,,,,,,,,,,,,,,,,,,,,
,,,,,,,,,,,,,,,,,60fde0b2f2b1d36e006ad138,19,2022-02-12_16h39.38.668,lexical_decision_task_DD,2021.2.3,MacIntel,60.0024001,,,,,,,,,,,,0.728,1,,,,,,,,,,,,,,m,1,0.728,,,,,,,,0.04983941,-0.421992188,0,0,0,,0,147,147,27,1,ATTIC,C,old,m,./images/ATTIC.png,,,,,,,,,,,,,,,,,,,,,,,,,,,,,,,,,,
,,,,,,,,,,,,,,,,,60fde0b2f2b1d36e006ad138,19,2022-02-12_16h39.38.668,lexical_decision_task_DD,2021.2.3,MacIntel,60.0024001,,,,,,,,,,,,0.6147,1,,,,,,,,,,,,,,m,1,0.6147,,,,,,,,0.04983941,-0.421992188,0,0,0,,0,148,148,66,1,SWEAT,C,old,m,./images/SWEAT.png,,,,,,,,,,,,,,,,,,,,,,,,,,,,,,,,,,
,,,,,,,,,,,,,,,,,60fde0b2f2b1d36e006ad138,19,2022-02-12_16h39.38.668,lexical_decision_task_DD,2021.2.3,MacIntel,60.0024001,,,,,,,,,,,,0.615,1,,,,,,,,,,,,,,m,1,0.615,,,,,,,,0.04983941,-0.421992188,0,0,0,,0,149,149,83,1,JUNGLE,LB,old,m,./images/JUNGLELB.png,,,,,,,,,,,,,,,,,,,,,,,,,,,,,,,,,,
,,,,,,,,,,,,,,,,,60fde0b2f2b1d36e006ad138,19,2022-02-12_16h39.38.668,lexical_decision_task_DD,2021.2.3,MacIntel,60.0024001,,,,,,,,,,,,0.9618,1,,,,,,,,,,,,,,z,1,0.9618,,,,,,,,0.04983941,-0.421992188,0,0,0,,0,150,150,163,1,GAMBA,HB,old,z,./images/GAMBAHB.png,,,,,,,,,,,,,,,,,,,,,,,,,,,,,,,,,,
,,,,,,,,,,,,,,,,,60fde0b2f2b1d36e006ad138,19,2022-02-12_16h39.38.668,lexical_decision_task_DD,2021.2.3,MacIntel,60.0024001,,,,,,,,,,,,1.5767,1,,,,,,,,,,,,,,m,1,1.5767,,,,,,,,0.04983941,-0.421992188,0,0,0,,0,151,151,43,1,MOSQUE,HB,old,m,./images/MOSQUEHB.png,,,,,,,,,,,,,,,,,,,,,,,,,,,,,,,,,,
,,,,,,,,,,,,,,,,,60fde0b2f2b1d36e006ad138,19,2022-02-12_16h39.38.668,lexical_decision_task_DD,2021.2.3,MacIntel,60.0024001,,,,,,,,,,,,0.7756,1,,,,,,,,,,,,,,m,1,0.7756,,,,,,,,0.04983941,-0.421992188,0,0,0,,0,152,152,35,1,PEACH,LB,old,m,./images/PEACHLB.png,,,,,,,,,,,,,,,,,,,,,,,,,,,,,,,,,,
,,,,,,,,,,,,,,,,,60fde0b2f2b1d36e006ad138,19,2022-02-12_16h39.38.668,lexical_decision_task_DD,2021.2.3,MacIntel,60.0024001,,,,,,,,,,,,0.8373,1,,,,,,,,,,,,,,m,1,0.8373,,,,,,,,0.04983941,-0.421992188,0,0,0,,0,153,153,78,1,LITTER,C,old,m,./images/LITTER.png,,,,,,,,,,,,,,,,,,,,,,,,,,,,,,,,,,
,,,,,,,,,,,,,,,,,60fde0b2f2b1d36e006ad138,19,2022-02-12_16h39.38.668,lexical_decision_task_DD,2021.2.3,MacIntel,60.0024001,,,,,,,,,,,,0.8108,1,,,,,,,,,,,,,,z,1,0.8108,,,,,,,,0.04983941,-0.421992188,0,0,0,,0,154,154,90,1,NEAST,C,old,z,./images/NEAST.png,,,,,,,,,,,,,,,,,,,,,,,,,,,,,,,,,,
,,,,,,,,,,,,,,,,,60fde0b2f2b1d36e006ad138,19,2022-02-12_16h39.38.668,lexical_decision_task_DD,2021.2.3,MacIntel,60.0024001,,,,,,,,,,,,1.0137,1,,,,,,,,,,,,,,z,1,1.0137,,,,,,,,0.04983941,-0.421992188,0,0,0,,0,155,155,86,1,AIFED,LB,old,z,./images/AIFEDLB.png,,,,,,,,,,,,,,,,,,,,,,,,,,,,,,,,,,
,,,,,,,,,,,,,,,,,60fde0b2f2b1d36e006ad138,19,2022-02-12_16h39.38.668,lexical_decision_task_DD,2021.2.3,MacIntel,60.0024001,,,,,,,,,,,,0.6816,1,,,,,,,,,,,,,,z,1,0.6816,,,,,,,,0.04983941,-0.421992188,0,0,0,,0,156,156,137,1,JOOST,LB,old,z,./images/JOOSTLB.png,,,,,,,,,,,,,,,,,,,,,,,,,,,,,,,,,,
,,,,,,,,,,,,,,,,,60fde0b2f2b1d36e006ad138,19,2022-02-12_16h39.38.668,lexical_decision_task_DD,2021.2.3,MacIntel,60.0024001,,,,,,,,,,,,0.8329,1,,,,,,,,,,,,,,z,1,0.8329,,,,,,,,0.04983941,-0.421992188,0,0,0,,0,157,157,95,1,HANTY,LB,old,z,./images/HANTYLB.png,,,,,,,,,,,,,,,,,,,,,,,,,,,,,,,,,,
,,,,,,,,,,,,,,,,,60fde0b2f2b1d36e006ad138,19,2022-02-12_16h39.38.668,lexical_decision_task_DD,2021.2.3,MacIntel,60.0024001,,,,,,,,,,,,0.8467,1,,,,,,,,,,,,,,z,1,0.8467,,,,,,,,0.04983941,-0.421992188,0,0,0,,0,158,158,150,1,NOOLS,C,old,z,./images/NOOLS.png,,,,,,,,,,,,,,,,,,,,,,,,,,,,,,,,,,
,,,,,,,,,,,,,,,,,60fde0b2f2b1d36e006ad138,19,2022-02-12_16h39.38.668,lexical_decision_task_DD,2021.2.3,MacIntel,60.0024001,,,,,,,,,,,,0.4474,0,,,,,,,,,,,,,,z,0,0.4474,,,,,,,,0.04983941,-0.421992188,0,0,0,,0,159,159,42,1,FOLDER,C,old,m,./images/FOLDER.png,,,,,,,,,,,,,,,,,,,,,,,,,,,,,,,,,,
,,,,,,,,,,,,,,,,,60fde0b2f2b1d36e006ad138,19,2022-02-12_16h39.38.668,lexical_decision_task_DD,2021.2.3,MacIntel,60.0024001,,,,,,,,,,,,0.6917,1,,,,,,,,,,,,,,m,1,0.6917,,,,,,,,0.04983941,-0.421992188,0,0,0,,0,160,160,60,1,TWINS,C,old,m,./images/TWINS.png,,,,,,,,,,,,,,,,,,,,,,,,,,,,,,,,,,
,,,,,,,,,,,,,,,,,60fde0b2f2b1d36e006ad138,19,2022-02-12_16h39.38.668,lexical_decision_task_DD,2021.2.3,MacIntel,60.0024001,,,,,,,,,,,,0.6799,1,,,,,,,,,,,,,,z,1,0.6799,,,,,,,,0.04983941,-0.421992188,0,0,0,,0,161,161,125,1,MOOKY,LB,old,z,./images/MOOKYLB.png,,,,,,,,,,,,,,,,,,,,,,,,,,,,,,,,,,
,,,,,,,,,,,,,,,,,60fde0b2f2b1d36e006ad138,19,2022-02-12_16h39.38.668,lexical_decision_task_DD,2021.2.3,MacIntel,60.0024001,,,,,,,,,,,,0.5952,1,,,,,,,,,,,,,,m,1,0.5952,,,,,,,,0.04983941,-0.421992188,0,0,0,,0,162,162,0,1,TOMATO,C,old,m,./images/TOMATO.png,,,,,,,,,,,,,,,,,,,,,,,,,,,,,,,,,,
,,,,,,,,,,,,,,,,,60fde0b2f2b1d36e006ad138,19,2022-02-12_16h39.38.668,lexical_decision_task_DD,2021.2.3,MacIntel,60.0024001,,,,,,,,,,,,0.8027,1,,,,,,,,,,,,,,z,1,0.8027,,,,,,,,0.04983941,-0.421992188,0,0,0,,0,163,163,138,1,PLICE,C,old,z,./images/PLICE.png,,,,,,,,,,,,,,,,,,,,,,,,,,,,,,,,,,
,,,,,,,,,,,,,,,,,60fde0b2f2b1d36e006ad138,19,2022-02-12_16h39.38.668,lexical_decision_task_DD,2021.2.3,MacIntel,60.0024001,,,,,,,,,,,,0.7649,1,,,,,,,,,,,,,,z,1,0.7649,,,,,,,,0.04983941,-0.421992188,0,0,0,,0,164,164,112,1,MYING,HB,old,z,./images/MYINGHB.png,,,,,,,,,,,,,,,,,,,,,,,,,,,,,,,,,,
,,,,,,,,,,,,,,,,,60fde0b2f2b1d36e006ad138,19,2022-02-12_16h39.38.668,lexical_decision_task_DD,2021.2.3,MacIntel,60.0024001,,,,,,,,,,,,0.6449,1,,,,,,,,,,,,,,z,1,0.6449,,,,,,,,0.04983941,-0.421992188,0,0,0,,0,165,165,96,1,KEAMS,C,old,z,./images/KEAMS.png,,,,,,,,,,,,,,,,,,,,,,,,,,,,,,,,,,
,,,,,,,,,,,,,,,,,60fde0b2f2b1d36e006ad138,19,2022-02-12_16h39.38.668,lexical_decision_task_DD,2021.2.3,MacIntel,60.0024001,,,,,,,,,,,,0.7824,1,,,,,,,,,,,,,,m,1,0.7824,,,,,,,,0.04983941,-0.421992188,0,0,0,,0,166,166,55,1,MUFFIN,HB,old,m,./images/MUFFINHB.png,,,,,,,,,,,,,,,,,,,,,,,,,,,,,,,,,,
,,,,,,,,,,,,,,,,,60fde0b2f2b1d36e006ad138,19,2022-02-12_16h39.38.668,lexical_decision_task_DD,2021.2.3,MacIntel,60.0024001,,,,,,,,,,,,1.0653,1,,,,,,,,,,,,,,m,1,1.0653,,,,,,,,0.04983941,-0.421992188,0,0,0,,0,167,167,50,1,MALLET,LB,old,m,./images/MALLETLB.png,,,,,,,,,,,,,,,,,,,,,,,,,,,,,,,,,,
,,,,,,,,,,,,,,,,,60fde0b2f2b1d36e006ad138,19,2022-02-12_16h39.38.668,lexical_decision_task_DD,2021.2.3,MacIntel,60.0024001,,,,,,,,,,,,,,,,,,,,,,,,,,,,,,,,,,,,,,,,,,,,,,,,,How likely will it be that you will recognize the words presented very blurred on a scale of 0 (not likely) to 100 (most likely)?,,,,,-0.004105903,-0.412851562,1,0,0,jol_adv,2,10.352,0,0,0,2,1,,,,,,,,,,,,,,,,,,,,
,,,,,,,,,,,,,,,,,60fde0b2f2b1d36e006ad138,19,2022-02-12_16h39.38.668,lexical_decision_task_DD,2021.2.3,MacIntel,60.0024001,,,,,,,,,,,,,,,,,,,,,,,,,,,,,,,,,,,,,,,,,,,,,,,,,How likely will it be that you will recognize the words presented clearly on a scale of 0 (not likely) to 100 (most likely)?,,,,,,,,,,,2,0.3031,0,1,1,0,1,,,,,,,,,,,,,,,,,,,,
,,,,,,,,,,,,,,,,,60fde0b2f2b1d36e006ad138,19,2022-02-12_16h39.38.668,lexical_decision_task_DD,2021.2.3,MacIntel,60.0024001,,,,,,,,,,,,,,,,,,,,,,,,,,,,,,,,,,,,,,,,,,,,,,,,,How likely will it be that you will recognize the words presented slighly blurred on a scale of 0 (not likely) to 100 (most likely)?,,,,,,,,,,,3,3.9211,0,2,2,1,1,,,,,,,,,,,,,,,,,,,,
,0.026614583,-0.384926215,1,0,0,instr_done_button,,,,,,1,test,"In the next phase you will be presented with the words from the the first phase. Your job is to decide whether you remember seeing the word or not. If you remember seeing the word press ""old"" or type ""m"". If you do not remember seeing the word press ""new"" or type ""z"". Please press the space bar or click on continue to begin. ",,,60fde0b2f2b1d36e006ad138,19,2022-02-12_16h39.38.668,lexical_decision_task_DD,2021.2.3,MacIntel,60.0024001,,,,,,,,,,,,,,,,,,,,,,,,,,,,,,,,,,,,,,,,,,,,,,,,,,,,,,,,,,,,,,,,,,,0,0,0,0,1,,,,,,,,,,,,,,,
,0.01859375,-0.403854167,1,0,0,instr_done_button,,,,,,1,test,"In the next phase you will be presented with the words from the the first phase. Your job is to decide whether you remember seeing the word or not. If you remember seeing the word press ""old"" or type ""m"". If you do not remember seeing the word press ""new"" or type ""z"". Please press the space bar or click on continue to begin. ",,,60fde0b2f2b1d36e006ad138,19,2022-02-12_16h39.38.668,lexical_decision_task_DD,2021.2.3,MacIntel,60.0024001,,,,,,,,,,,,,,,,,,,,,,,,,,,,,,,,,,,,,,,,,,,,,,,,,,,,,,,,,,,,,,,,,,,1,0,1,0,1,,,,,,,,,,,,,,,
space,0.01859375,-0.403854167,0,0,0,,,,,,,1,test,"In the next phase you will be presented with the words from the the first phase. Your job is to decide whether you remember seeing the word or not. If you remember seeing the word press ""old"" or type ""m"". If you do not remember seeing the word press ""new"" or type ""z"". Please press the space bar or click on continue to begin. ",,,60fde0b2f2b1d36e006ad138,19,2022-02-12_16h39.38.668,lexical_decision_task_DD,2021.2.3,MacIntel,60.0024001,1.0165,,,,,,,,,,,,,,,,,,,,,,,,,,,,,,,,,,,,,,,,,,,,,,,,,,,,,,,,,,,,,,,,,,2,0,2,0,1,,,,,,,,,,,,,,,
space,0.01859375,-0.403854167,0,0,0,,,,,,,1,test,"In the next phase you will be presented with the words from the the first phase. Your job is to decide whether you remember seeing the word or not. If you remember seeing the word press ""old"" or type ""m"". If you do not remember seeing the word press ""new"" or type ""z"". Please press the space bar or click on continue to begin. ",,,60fde0b2f2b1d36e006ad138,19,2022-02-12_16h39.38.668,lexical_decision_task_DD,2021.2.3,MacIntel,60.0024001,4.1025,,,,,,,,,,,,,,,,,,,,,,,,,,,,,,,,,,,,,,,,,,,,,,,,,,,,,,,,,,,,,,,,,,3,0,3,0,1,,,,,,,,,,,,,,,
,-0.001223958,-0.416605903,1,0,0,instr_done_button,,,,,,1,test,"In the next phase you will be presented with the words from the the first phase. Your job is to decide whether you remember seeing the word or not. If you remember seeing the word press ""old"" or type ""m"". If you do not remember seeing the word press ""new"" or type ""z"". Please press the space bar or click on continue to begin. ",,,60fde0b2f2b1d36e006ad138,19,2022-02-12_16h39.38.668,lexical_decision_task_DD,2021.2.3,MacIntel,60.0024001,,,,,,,,,,,,,,,,,,,,,,,,,,,,,,,,,,,,,,,,,,,,,,,,,,,,,,,,,,,,,,,,,,,4,0,4,0,1,,,,,,,,,,,,,,,
,,,,,,,,,,,,,,,,,60fde0b2f2b1d36e006ad138,19,2022-02-12_16h39.38.668,lexical_decision_task_DD,2021.2.3,MacIntel,60.0024001,,,,,,,,,,,,2.9641,0,,,,,,,,,,,,,,,,,,,,,,,,-0.001223958,-0.416345486,0,0,0,,,,,,,ALLEY,HB,z,m,./images/ALLEYHB.png,,,,,,,,,,,,,,,,,,,,m,0,2.9641,,,,,,,,0,0,0,139,1
,,,,,,,,,,,,,,,,,60fde0b2f2b1d36e006ad138,19,2022-02-12_16h39.38.668,lexical_decision_task_DD,2021.2.3,MacIntel,60.0024001,,,,,,,,,,,,0.8353,1,,,,,,,,,,,,,,,,,,,,,,,,-0.001223958,-0.416345486,0,0,0,,,,,,,ATTIC,C,m,m,./images/ATTIC.png,,,,,,,,,,,,,,,,,,,,m,1,0.8353,,,,,,,,0,1,1,27,1
,,,,,,,,,,,,,,,,,60fde0b2f2b1d36e006ad138,19,2022-02-12_16h39.38.668,lexical_decision_task_DD,2021.2.3,MacIntel,60.0024001,,,,,,,,,,,,1.383,1,,,,,,,,,,,,,,,,,,,,,,,,-0.001223958,-0.416345486,0,0,0,,,,,,,HEATER,LB,z,m,./images/HEATERLB.png,,,,,,,,,,,,,,,,,,,,z,1,1.383,,,,,,,,0,2,2,140,1
,,,,,,,,,,,,,,,,,60fde0b2f2b1d36e006ad138,19,2022-02-12_16h39.38.668,lexical_decision_task_DD,2021.2.3,MacIntel,60.0024001,,,,,,,,,,,,1.0464,1,,,,,,,,,,,,,,,,,,,,,,,,-0.001223958,-0.416345486,0,0,0,,,,,,,BRIDE,HB,z,m,./images/BRIDEHB.png,,,,,,,,,,,,,,,,,,,,z,1,1.0464,,,,,,,,0,3,3,148,1
,,,,,,,,,,,,,,,,,60fde0b2f2b1d36e006ad138,19,2022-02-12_16h39.38.668,lexical_decision_task_DD,2021.2.3,MacIntel,60.0024001,,,,,,,,,,,,2.0511,0,,,,,,,,,,,,,,,,,,,,,,,,-0.001223958,-0.416345486,0,0,0,,,,,,,CHALK,HB,z,m,./images/CHALKHB.png,,,,,,,,,,,,,,,,,,,,m,0,2.0511,,,,,,,,0,4,4,109,1
,,,,,,,,,,,,,,,,,60fde0b2f2b1d36e006ad138,19,2022-02-12_16h39.38.668,lexical_decision_task_DD,2021.2.3,MacIntel,60.0024001,,,,,,,,,,,,0.75,1,,,,,,,,,,,,,,,,,,,,,,,,-0.001223958,-0.416345486,0,0,0,,,,,,,URINE,HB,m,m,./images/URINEHB.png,,,,,,,,,,,,,,,,,,,,m,1,0.75,,,,,,,,0,5,5,70,1
,,,,,,,,,,,,,,,,,60fde0b2f2b1d36e006ad138,19,2022-02-12_16h39.38.668,lexical_decision_task_DD,2021.2.3,MacIntel,60.0024001,,,,,,,,,,,,0.9887,1,,,,,,,,,,,,,,,,,,,,,,,,-0.001223958,-0.416345486,0,0,0,,,,,,,CANOE,HB,z,m,./images/CANOEHB.png,,,,,,,,,,,,,,,,,,,,z,1,0.9887,,,,,,,,0,6,6,142,1
,,,,,,,,,,,,,,,,,60fde0b2f2b1d36e006ad138,19,2022-02-12_16h39.38.668,lexical_decision_task_DD,2021.2.3,MacIntel,60.0024001,,,,,,,,,,,,0.8155,1,,,,,,,,,,,,,,,,,,,,,,,,-0.001223958,-0.416345486,0,0,0,,,,,,,JELLY,HB,m,m,./images/JELLYHB.png,,,,,,,,,,,,,,,,,,,,m,1,0.8155,,,,,,,,0,7,7,64,1
,,,,,,,,,,,,,,,,,60fde0b2f2b1d36e006ad138,19,2022-02-12_16h39.38.668,lexical_decision_task_DD,2021.2.3,MacIntel,60.0024001,,,,,,,,,,,,1.0303,1,,,,,,,,,,,,,,,,,,,,,,,,-0.001223958,-0.416345486,0,0,0,,,,,,,CARPET,LB,m,m,./images/CARPETLB.png,,,,,,,,,,,,,,,,,,,,m,1,1.0303,,,,,,,,0,8,8,53,1
,,,,,,,,,,,,,,,,,60fde0b2f2b1d36e006ad138,19,2022-02-12_16h39.38.668,lexical_decision_task_DD,2021.2.3,MacIntel,60.0024001,,,,,,,,,,,,0.93,0,,,,,,,,,,,,,,,,,,,,,,,,-0.001223958,-0.416345486,0,0,0,,,,,,,WAGON,HB,z,m,./images/WAGONHB.png,,,,,,,,,,,,,,,,,,,,m,0,0.93,,,,,,,,0,9,9,91,1
,,,,,,,,,,,,,,,,,60fde0b2f2b1d36e006ad138,19,2022-02-12_16h39.38.668,lexical_decision_task_DD,2021.2.3,MacIntel,60.0024001,,,,,,,,,,,,1.0887,1,,,,,,,,,,,,,,,,,,,,,,,,-0.001223958,-0.416345486,0,0,0,,,,,,,LIZARD,LB,m,m,./images/LIZARDLB.png,,,,,,,,,,,,,,,,,,,,m,1,1.0887,,,,,,,,0,10,10,44,1
,,,,,,,,,,,,,,,,,60fde0b2f2b1d36e006ad138,19,2022-02-12_16h39.38.668,lexical_decision_task_DD,2021.2.3,MacIntel,60.0024001,,,,,,,,,,,,1.2998,1,,,,,,,,,,,,,,,,,,,,,,,,-0.001223958,-0.416345486,0,0,0,,,,,,,SAUCE,C,z,m,./images/SAUCE.png,,,,,,,,,,,,,,,,,,,,z,1,1.2998,,,,,,,,0,11,11,135,1
,,,,,,,,,,,,,,,,,60fde0b2f2b1d36e006ad138,19,2022-02-12_16h39.38.668,lexical_decision_task_DD,2021.2.3,MacIntel,60.0024001,,,,,,,,,,,,1.3155,1,,,,,,,,,,,,,,,,,,,,,,,,-0.001223958,-0.416345486,0,0,0,,,,,,,COUCH,LB,m,m,./images/COUCHLB.png,,,,,,,,,,,,,,,,,,,,m,1,1.3155,,,,,,,,0,12,12,77,1
,,,,,,,,,,,,,,,,,60fde0b2f2b1d36e006ad138,19,2022-02-12_16h39.38.668,lexical_decision_task_DD,2021.2.3,MacIntel,60.0024001,,,,,,,,,,,,1.0026,0,,,,,,,,,,,,,,,,,,,,,,,,-0.001223958,-0.416345486,0,0,0,,,,,,,VALLEY,LB,z,m,./images/VALLEYLB.png,,,,,,,,,,,,,,,,,,,,m,0,1.0026,,,,,,,,0,13,13,152,1
,,,,,,,,,,,,,,,,,60fde0b2f2b1d36e006ad138,19,2022-02-12_16h39.38.668,lexical_decision_task_DD,2021.2.3,MacIntel,60.0024001,,,,,,,,,,,,1.1331,1,,,,,,,,,,,,,,,,,,,,,,,,-0.001223958,-0.416345486,0,0,0,,,,,,,MUSCLE,HB,m,m,./images/MUSCLEHB.png,,,,,,,,,,,,,,,,,,,,m,1,1.1331,,,,,,,,0,14,14,4,1
,,,,,,,,,,,,,,,,,60fde0b2f2b1d36e006ad138,19,2022-02-12_16h39.38.668,lexical_decision_task_DD,2021.2.3,MacIntel,60.0024001,,,,,,,,,,,,1.0327,1,,,,,,,,,,,,,,,,,,,,,,,,-0.001223958,-0.416345486,0,0,0,,,,,,,SAUNA,C,z,m,./images/SAUNA.png,,,,,,,,,,,,,,,,,,,,z,1,1.0327,,,,,,,,0,15,15,117,1
,,,,,,,,,,,,,,,,,60fde0b2f2b1d36e006ad138,19,2022-02-12_16h39.38.668,lexical_decision_task_DD,2021.2.3,MacIntel,60.0024001,,,,,,,,,,,,1.2639,1,,,,,,,,,,,,,,,,,,,,,,,,-0.001223958,-0.416345486,0,0,0,,,,,,,MUMMY,HB,z,m,./images/MUMMYHB.png,,,,,,,,,,,,,,,,,,,,z,1,1.2639,,,,,,,,0,16,16,130,1
,,,,,,,,,,,,,,,,,60fde0b2f2b1d36e006ad138,19,2022-02-12_16h39.38.668,lexical_decision_task_DD,2021.2.3,MacIntel,60.0024001,,,,,,,,,,,,0.9836,1,,,,,,,,,,,,,,,,,,,,,,,,-0.001223958,-0.416345486,0,0,0,,,,,,,MALLET,LB,m,m,./images/MALLETLB.png,,,,,,,,,,,,,,,,,,,,m,1,0.9836,,,,,,,,0,17,17,50,1
,,,,,,,,,,,,,,,,,60fde0b2f2b1d36e006ad138,19,2022-02-12_16h39.38.668,lexical_decision_task_DD,2021.2.3,MacIntel,60.0024001,,,,,,,,,,,,1.0357,0,,,,,,,,,,,,,,,,,,,,,,,,-0.001223958,-0.416345486,0,0,0,,,,,,,CHERRY,C,z,m,./images/CHERRY.png,,,,,,,,,,,,,,,,,,,,m,0,1.0357,,,,,,,,0,18,18,138,1
,,,,,,,,,,,,,,,,,60fde0b2f2b1d36e006ad138,19,2022-02-12_16h39.38.668,lexical_decision_task_DD,2021.2.3,MacIntel,60.0024001,,,,,,,,,,,,1.0663,1,,,,,,,,,,,,,,,,,,,,,,,,-0.001223958,-0.416345486,0,0,0,,,,,,,HOCKEY,LB,z,m,./images/HOCKEYLB.png,,,,,,,,,,,,,,,,,,,,z,1,1.0663,,,,,,,,0,19,19,116,1
,,,,,,,,,,,,,,,,,60fde0b2f2b1d36e006ad138,19,2022-02-12_16h39.38.668,lexical_decision_task_DD,2021.2.3,MacIntel,60.0024001,,,,,,,,,,,,1.0022,1,,,,,,,,,,,,,,,,,,,,,,,,-0.001223958,-0.416345486,0,0,0,,,,,,,RAZOR,HB,z,m,./images/RAZORHB.png,,,,,,,,,,,,,,,,,,,,z,1,1.0022,,,,,,,,0,20,20,118,1
,,,,,,,,,,,,,,,,,60fde0b2f2b1d36e006ad138,19,2022-02-12_16h39.38.668,lexical_decision_task_DD,2021.2.3,MacIntel,60.0024001,,,,,,,,,,,,1.6342,0,,,,,,,,,,,,,,,,,,,,,,,,-0.001223958,-0.416345486,0,0,0,,,,,,,WHISKY,LB,z,m,./images/WHISKYLB.png,,,,,,,,,,,,,,,,,,,,m,0,1.6342,,,,,,,,0,21,21,167,1
,,,,,,,,,,,,,,,,,60fde0b2f2b1d36e006ad138,19,2022-02-12_16h39.38.668,lexical_decision_task_DD,2021.2.3,MacIntel,60.0024001,,,,,,,,,,,,1.0722,1,,,,,,,,,,,,,,,,,,,,,,,,-0.001223958,-0.416345486,0,0,0,,,,,,,CHAIN,C,z,m,./images/CHAIN.png,,,,,,,,,,,,,,,,,,,,z,1,1.0722,,,,,,,,0,22,22,126,1
,,,,,,,,,,,,,,,,,60fde0b2f2b1d36e006ad138,19,2022-02-12_16h39.38.668,lexical_decision_task_DD,2021.2.3,MacIntel,60.0024001,,,,,,,,,,,,1.6337,1,,,,,,,,,,,,,,,,,,,,,,,,-0.001223958,-0.416345486,0,0,0,,,,,,,SHELF,C,m,m,./images/SHELF.png,,,,,,,,,,,,,,,,,,,,m,1,1.6337,,,,,,,,0,23,23,39,1
,,,,,,,,,,,,,,,,,60fde0b2f2b1d36e006ad138,19,2022-02-12_16h39.38.668,lexical_decision_task_DD,2021.2.3,MacIntel,60.0024001,,,,,,,,,,,,1.7723,1,,,,,,,,,,,,,,,,,,,,,,,,-0.001223958,-0.416345486,0,0,0,,,,,,,THROAT,C,m,m,./images/THROAT.png,,,,,,,,,,,,,,,,,,,,m,1,1.7723,,,,,,,,0,24,24,36,1
,,,,,,,,,,,,,,,,,60fde0b2f2b1d36e006ad138,19,2022-02-12_16h39.38.668,lexical_decision_task_DD,2021.2.3,MacIntel,60.0024001,,,,,,,,,,,,0.7834,1,,,,,,,,,,,,,,,,,,,,,,,,-0.001223958,-0.416345486,0,0,0,,,,,,,SLOPE,C,z,m,./images/SLOPE.png,,,,,,,,,,,,,,,,,,,,z,1,0.7834,,,,,,,,0,25,25,114,1
,,,,,,,,,,,,,,,,,60fde0b2f2b1d36e006ad138,19,2022-02-12_16h39.38.668,lexical_decision_task_DD,2021.2.3,MacIntel,60.0024001,,,,,,,,,,,,0.734,1,,,,,,,,,,,,,,,,,,,,,,,,-0.001223958,-0.416345486,0,0,0,,,,,,,LADDER,LB,m,m,./images/LADDERLB.png,,,,,,,,,,,,,,,,,,,,m,1,0.734,,,,,,,,0,26,26,38,1
,,,,,,,,,,,,,,,,,60fde0b2f2b1d36e006ad138,19,2022-02-12_16h39.38.668,lexical_decision_task_DD,2021.2.3,MacIntel,60.0024001,,,,,,,,,,,,1.0842,1,,,,,,,,,,,,,,,,,,,,,,,,-0.001223958,-0.416345486,0,0,0,,,,,,,POSTER,LB,z,m,./images/POSTERLB.png,,,,,,,,,,,,,,,,,,,,z,1,1.0842,,,,,,,,0,27,27,137,1
,,,,,,,,,,,,,,,,,60fde0b2f2b1d36e006ad138,19,2022-02-12_16h39.38.668,lexical_decision_task_DD,2021.2.3,MacIntel,60.0024001,,,,,,,,,,,,0.7175,0,,,,,,,,,,,,,,,,,,,,,,,,-0.001223958,-0.416345486,0,0,0,,,,,,,ARTIST,HB,z,m,./images/ARTISTHB.png,,,,,,,,,,,,,,,,,,,,m,0,0.7175,,,,,,,,0,28,28,145,1
,,,,,,,,,,,,,,,,,60fde0b2f2b1d36e006ad138,19,2022-02-12_16h39.38.668,lexical_decision_task_DD,2021.2.3,MacIntel,60.0024001,,,,,,,,,,,,0.6326,1,,,,,,,,,,,,,,,,,,,,,,,,-0.001223958,-0.416345486,0,0,0,,,,,,,WEASEL,LB,m,m,./images/WEASELLB.png,,,,,,,,,,,,,,,,,,,,m,1,0.6326,,,,,,,,0,29,29,80,1
,,,,,,,,,,,,,,,,,60fde0b2f2b1d36e006ad138,19,2022-02-12_16h39.38.668,lexical_decision_task_DD,2021.2.3,MacIntel,60.0024001,,,,,,,,,,,,1.1687,1,,,,,,,,,,,,,,,,,,,,,,,,-0.001223958,-0.416345486,0,0,0,,,,,,,PEBBLE,HB,z,m,./images/PEBBLEHB.png,,,,,,,,,,,,,,,,,,,,z,1,1.1687,,,,,,,,0,30,30,166,1
,,,,,,,,,,,,,,,,,60fde0b2f2b1d36e006ad138,19,2022-02-12_16h39.38.668,lexical_decision_task_DD,2021.2.3,MacIntel,60.0024001,,,,,,,,,,,,0.8144,1,,,,,,,,,,,,,,,,,,,,,,,,-0.001223958,-0.416345486,0,0,0,,,,,,,STATUE,C,z,m,./images/STATUE.png,,,,,,,,,,,,,,,,,,,,z,1,0.8144,,,,,,,,0,31,31,150,1
,,,,,,,,,,,,,,,,,60fde0b2f2b1d36e006ad138,19,2022-02-12_16h39.38.668,lexical_decision_task_DD,2021.2.3,MacIntel,60.0024001,,,,,,,,,,,,0.6827,1,,,,,,,,,,,,,,,,,,,,,,,,-0.001223958,-0.416345486,0,0,0,,,,,,,ONION,C,m,m,./images/ONION.png,,,,,,,,,,,,,,,,,,,,m,1,0.6827,,,,,,,,0,32,32,51,1
,,,,,,,,,,,,,,,,,60fde0b2f2b1d36e006ad138,19,2022-02-12_16h39.38.668,lexical_decision_task_DD,2021.2.3,MacIntel,60.0024001,,,,,,,,,,,,0.7469,0,,,,,,,,,,,,,,,,,,,,,,,,-0.001223958,-0.416345486,0,0,0,,,,,,,SNAKE,HB,z,m,./images/SNAKEHB.png,,,,,,,,,,,,,,,,,,,,m,0,0.7469,,,,,,,,0,33,33,124,1
,,,,,,,,,,,,,,,,,60fde0b2f2b1d36e006ad138,19,2022-02-12_16h39.38.668,lexical_decision_task_DD,2021.2.3,MacIntel,60.0024001,,,,,,,,,,,,0.9537,1,,,,,,,,,,,,,,,,,,,,,,,,-0.001223958,-0.416345486,0,0,0,,,,,,,NOOSE,C,m,m,./images/NOOSE.png,,,,,,,,,,,,,,,,,,,,m,1,0.9537,,,,,,,,0,34,34,72,1
,,,,,,,,,,,,,,,,,60fde0b2f2b1d36e006ad138,19,2022-02-12_16h39.38.668,lexical_decision_task_DD,2021.2.3,MacIntel,60.0024001,,,,,,,,,,,,2.5509,0,,,,,,,,,,,,,,,,,,,,,,,,-0.001223958,-0.416345486,0,0,0,,,,,,,BOILER,C,z,m,./images/BOILER.png,,,,,,,,,,,,,,,,,,,,m,0,2.5509,,,,,,,,0,35,35,120,1
,,,,,,,,,,,,,,,,,60fde0b2f2b1d36e006ad138,19,2022-02-12_16h39.38.668,lexical_decision_task_DD,2021.2.3,MacIntel,60.0024001,,,,,,,,,,,,0.6839,0,,,,,,,,,,,,,,,,,,,,,,,,-0.001223958,-0.416345486,0,0,0,,,,,,,FERRY,C,z,m,./images/FERRY.png,,,,,,,,,,,,,,,,,,,,m,0,0.6839,,,,,,,,0,36,36,141,1
,,,,,,,,,,,,,,,,,60fde0b2f2b1d36e006ad138,19,2022-02-12_16h39.38.668,lexical_decision_task_DD,2021.2.3,MacIntel,60.0024001,,,,,,,,,,,,0.9355,1,,,,,,,,,,,,,,,,,,,,,,,,-0.001223958,-0.416345486,0,0,0,,,,,,,CANDY,C,z,m,./images/CANDY.png,,,,,,,,,,,,,,,,,,,,z,1,0.9355,,,,,,,,0,37,37,123,1
,,,,,,,,,,,,,,,,,60fde0b2f2b1d36e006ad138,19,2022-02-12_16h39.38.668,lexical_decision_task_DD,2021.2.3,MacIntel,60.0024001,,,,,,,,,,,,1.5326,1,,,,,,,,,,,,,,,,,,,,,,,,-0.001223958,-0.416345486,0,0,0,,,,,,,BONNET,LB,m,m,./images/BONNETLB.png,,,,,,,,,,,,,,,,,,,,m,1,1.5326,,,,,,,,0,38,38,11,1
,,,,,,,,,,,,,,,,,60fde0b2f2b1d36e006ad138,19,2022-02-12_16h39.38.668,lexical_decision_task_DD,2021.2.3,MacIntel,60.0024001,,,,,,,,,,,,0.7882,1,,,,,,,,,,,,,,,,,,,,,,,,-0.001223958,-0.416345486,0,0,0,,,,,,,FLASK,C,z,m,./images/FLASK.png,,,,,,,,,,,,,,,,,,,,z,1,0.7882,,,,,,,,0,39,39,156,1
,,,,,,,,,,,,,,,,,60fde0b2f2b1d36e006ad138,19,2022-02-12_16h39.38.668,lexical_decision_task_DD,2021.2.3,MacIntel,60.0024001,,,,,,,,,,,,1.5976,1,,,,,,,,,,,,,,,,,,,,,,,,-0.001223958,-0.416345486,0,0,0,,,,,,,STOOL,HB,z,m,./images/STOOLHB.png,,,,,,,,,,,,,,,,,,,,z,1,1.5976,,,,,,,,0,40,40,127,1
,,,,,,,,,,,,,,,,,60fde0b2f2b1d36e006ad138,19,2022-02-12_16h39.38.668,lexical_decision_task_DD,2021.2.3,MacIntel,60.0024001,,,,,,,,,,,,0.7223,1,,,,,,,,,,,,,,,,,,,,,,,,-0.001223958,-0.416345486,0,0,0,space,,,,,,PEARL,HB,m,m,./images/PEARLHB.png,1.554,,,,,,,,,,,,,,,,,,,m,1,0.7223,,,,,,,,0,41,41,46,1
,,,,,,,,,,,,,,,,,60fde0b2f2b1d36e006ad138,19,2022-02-12_16h39.38.668,lexical_decision_task_DD,2021.2.3,MacIntel,60.0024001,,,,,,,,,,,,1.7135,0,,,,,,,,,,,,,,,,,,,,,,,,-0.001223958,-0.416345486,0,0,0,,,,,,,ARROW,C,z,m,./images/ARROW.png,,,,,,,,,,,,,,,,,,,,m,0,1.7135,,,,,,,,0,42,42,153,1
,,,,,,,,,,,,,,,,,60fde0b2f2b1d36e006ad138,19,2022-02-12_16h39.38.668,lexical_decision_task_DD,2021.2.3,MacIntel,60.0024001,,,,,,,,,,,,0.7678,0,,,,,,,,,,,,,,,,,,,,,,,,-0.001223958,-0.416345486,0,0,0,,,,,,,PARADE,LB,z,m,./images/PARADELB.png,,,,,,,,,,,,,,,,,,,,m,0,0.7678,,,,,,,,0,43,43,101,1
,,,,,,,,,,,,,,,,,60fde0b2f2b1d36e006ad138,19,2022-02-12_16h39.38.668,lexical_decision_task_DD,2021.2.3,MacIntel,60.0024001,,,,,,,,,,,,0.7644,1,,,,,,,,,,,,,,,,,,,,,,,,-0.001223958,-0.416345486,0,0,0,,,,,,,PEACH,LB,m,m,./images/PEACHLB.png,,,,,,,,,,,,,,,,,,,,m,1,0.7644,,,,,,,,0,44,44,35,1
,,,,,,,,,,,,,,,,,60fde0b2f2b1d36e006ad138,19,2022-02-12_16h39.38.668,lexical_decision_task_DD,2021.2.3,MacIntel,60.0024001,,,,,,,,,,,,0.9184,0,,,,,,,,,,,,,,,,,,,,,,,,-0.001223958,-0.416345486,0,0,0,,,,,,,BUTTER,C,z,m,./images/BUTTER.png,,,,,,,,,,,,,,,,,,,,m,0,0.9184,,,,,,,,0,45,45,111,1
,,,,,,,,,,,,,,,,,60fde0b2f2b1d36e006ad138,19,2022-02-12_16h39.38.668,lexical_decision_task_DD,2021.2.3,MacIntel,60.0024001,,,,,,,,,,,,0.7169,1,,,,,,,,,,,,,,,,,,,,,,,,-0.001223958,-0.416345486,0,0,0,,,,,,,CLOUD,LB,z,m,./images/CLOUDLB.png,,,,,,,,,,,,,,,,,,,,z,1,0.7169,,,,,,,,0,46,46,110,1
,,,,,,,,,,,,,,,,,60fde0b2f2b1d36e006ad138,19,2022-02-12_16h39.38.668,lexical_decision_task_DD,2021.2.3,MacIntel,60.0024001,,,,,,,,,,,,1.2498,1,,,,,,,,,,,,,,,,,,,,,,,,-0.001223958,-0.416345486,0,0,0,,,,,,,DESERT,HB,z,m,./images/DESERTHB.png,,,,,,,,,,,,,,,,,,,,z,1,1.2498,,,,,,,,0,47,47,136,1
,,,,,,,,,,,,,,,,,60fde0b2f2b1d36e006ad138,19,2022-02-12_16h39.38.668,lexical_decision_task_DD,2021.2.3,MacIntel,60.0024001,,,,,,,,,,,,0.9363,1,,,,,,,,,,,,,,,,,,,,,,,,-0.001223958,-0.416345486,0,0,0,,,,,,,MOTOR,HB,m,m,./images/MOTORHB.png,,,,,,,,,,,,,,,,,,,,m,1,0.9363,,,,,,,,0,48,48,13,1
,,,,,,,,,,,,,,,,,60fde0b2f2b1d36e006ad138,19,2022-02-12_16h39.38.668,lexical_decision_task_DD,2021.2.3,MacIntel,60.0024001,,,,,,,,,,,,0.7001,1,,,,,,,,,,,,,,,,,,,,,,,,-0.001223958,-0.416345486,0,0,0,,,,,,,DIVER,C,z,m,./images/DIVER.png,,,,,,,,,,,,,,,,,,,,z,1,0.7001,,,,,,,,0,49,49,93,1
,,,,,,,,,,,,,,,,,60fde0b2f2b1d36e006ad138,19,2022-02-12_16h39.38.668,lexical_decision_task_DD,2021.2.3,MacIntel,60.0024001,,,,,,,,,,,,1.9138,1,,,,,,,,,,,,,,,,,,,,,,,,-0.001223958,-0.416345486,0,0,0,,,,,,,STOVE,LB,z,m,./images/STOVELB.png,,,,,,,,,,,,,,,,,,,,z,1,1.9138,,,,,,,,0,50,50,86,1
,,,,,,,,,,,,,,,,,60fde0b2f2b1d36e006ad138,19,2022-02-12_16h39.38.668,lexical_decision_task_DD,2021.2.3,MacIntel,60.0024001,,,,,,,,,,,,0.9328,1,,,,,,,,,,,,,,,,,,,,,,,,-0.001223958,-0.416345486,0,0,0,,,,,,,GARDEN,HB,z,m,./images/GARDENHB.png,,,,,,,,,,,,,,,,,,,,z,1,0.9328,,,,,,,,0,51,51,94,1
,,,,,,,,,,,,,,,,,60fde0b2f2b1d36e006ad138,19,2022-02-12_16h39.38.668,lexical_decision_task_DD,2021.2.3,MacIntel,60.0024001,,,,,,,,,,,,0.7292,0,,,,,,,,,,,,,,,,,,,,,,,,-0.001223958,-0.416345486,0,0,0,,,,,,,SPINE,LB,z,m,./images/SPINELB.png,,,,,,,,,,,,,,,,,,,,m,0,0.7292,,,,,,,,0,52,52,149,1
,,,,,,,,,,,,,,,,,60fde0b2f2b1d36e006ad138,19,2022-02-12_16h39.38.668,lexical_decision_task_DD,2021.2.3,MacIntel,60.0024001,,,,,,,,,,,,0.98,1,,,,,,,,,,,,,,,,,,,,,,,,-0.001223958,-0.416345486,0,0,0,,,,,,,BUNNY,HB,z,m,./images/BUNNYHB.png,,,,,,,,,,,,,,,,,,,,z,1,0.98,,,,,,,,0,53,53,97,1
,,,,,,,,,,,,,,,,,60fde0b2f2b1d36e006ad138,19,2022-02-12_16h39.38.668,lexical_decision_task_DD,2021.2.3,MacIntel,60.0024001,,,,,,,,,,,,0.7487,1,,,,,,,,,,,,,,,,,,,,,,,,-0.001223958,-0.416345486,0,0,0,,,,,,,MIRROR,C,m,m,./images/MIRROR.png,,,,,,,,,,,,,,,,,,,,m,1,0.7487,,,,,,,,0,54,54,63,1
,,,,,,,,,,,,,,,,,60fde0b2f2b1d36e006ad138,19,2022-02-12_16h39.38.668,lexical_decision_task_DD,2021.2.3,MacIntel,60.0024001,,,,,,,,,,,,1.1535,1,,,,,,,,,,,,,,,,,,,,,,,,-0.001223958,-0.416345486,0,0,0,,,,,,,DRILL,C,z,m,./images/DRILL.png,,,,,,,,,,,,,,,,,,,,z,1,1.1535,,,,,,,,0,55,55,165,1
,,,,,,,,,,,,,,,,,60fde0b2f2b1d36e006ad138,19,2022-02-12_16h39.38.668,lexical_decision_task_DD,2021.2.3,MacIntel,60.0024001,,,,,,,,,,,,0.7997,1,,,,,,,,,,,,,,,,,,,,,,,,-0.001223958,-0.416345486,0,0,0,,,,,,,MOOSE,C,m,m,./images/MOOSE.png,,,,,,,,,,,,,,,,,,,,m,1,0.7997,,,,,,,,0,56,56,57,1
,,,,,,,,,,,,,,,,,60fde0b2f2b1d36e006ad138,19,2022-02-12_16h39.38.668,lexical_decision_task_DD,2021.2.3,MacIntel,60.0024001,,,,,,,,,,,,0.849,1,,,,,,,,,,,,,,,,,,,,,,,,-0.001223958,-0.416345486,0,0,0,,,,,,,SPORT,C,m,m,./images/SPORT.png,,,,,,,,,,,,,,,,,,,,m,1,0.849,,,,,,,,0,57,57,48,1
,,,,,,,,,,,,,,,,,60fde0b2f2b1d36e006ad138,19,2022-02-12_16h39.38.668,lexical_decision_task_DD,2021.2.3,MacIntel,60.0024001,,,,,,,,,,,,1.4023,0,,,,,,,,,,,,,,,,,,,,,,,,-0.001223958,-0.416345486,0,0,0,,,,,,,CRADLE,LB,m,m,./images/CRADLELB.png,,,,,,,,,,,,,,,,,,,,z,0,1.4023,,,,,,,,0,58,58,20,1
,,,,,,,,,,,,,,,,,60fde0b2f2b1d36e006ad138,19,2022-02-12_16h39.38.668,lexical_decision_task_DD,2021.2.3,MacIntel,60.0024001,,,,,,,,,,,,1.0644,0,,,,,,,,,,,,,,,,,,,,,,,,-0.001223958,-0.416345486,0,0,0,,,,,,,FOLDER,C,m,m,./images/FOLDER.png,,,,,,,,,,,,,,,,,,,,z,0,1.0644,,,,,,,,0,59,59,42,1
,,,,,,,,,,,,,,,,,60fde0b2f2b1d36e006ad138,19,2022-02-12_16h39.38.668,lexical_decision_task_DD,2021.2.3,MacIntel,60.0024001,,,,,,,,,,,,0.8522,1,,,,,,,,,,,,,,,,,,,,,,,,-0.001223958,-0.416345486,0,0,0,,,,,,,BIRTH,HB,m,m,./images/BIRTHHB.png,,,,,,,,,,,,,,,,,,,,m,1,0.8522,,,,,,,,0,60,60,37,1
,,,,,,,,,,,,,,,,,60fde0b2f2b1d36e006ad138,19,2022-02-12_16h39.38.668,lexical_decision_task_DD,2021.2.3,MacIntel,60.0024001,,,,,,,,,,,,1.338,0,,,,,,,,,,,,,,,,,,,,,,,,-0.001223958,-0.416345486,0,0,0,,,,,,,STREAM,LB,z,m,./images/STREAMLB.png,,,,,,,,,,,,,,,,,,,,m,0,1.338,,,,,,,,0,61,61,125,1
,,,,,,,,,,,,,,,,,60fde0b2f2b1d36e006ad138,19,2022-02-12_16h39.38.668,lexical_decision_task_DD,2021.2.3,MacIntel,60.0024001,,,,,,,,,,,,0.8222,1,,,,,,,,,,,,,,,,,,,,,,,,-0.001223958,-0.416345486,0,0,0,,,,,,,PIMPLE,LB,m,m,./images/PIMPLELB.png,,,,,,,,,,,,,,,,,,,,m,1,0.8222,,,,,,,,0,62,62,71,1
,,,,,,,,,,,,,,,,,60fde0b2f2b1d36e006ad138,19,2022-02-12_16h39.38.668,lexical_decision_task_DD,2021.2.3,MacIntel,60.0024001,,,,,,,,,,,,1.4714,0,,,,,,,,,,,,,,,,,,,,,,,,-0.001223958,-0.416345486,0,0,0,,,,,,,SWEAT,C,m,m,./images/SWEAT.png,,,,,,,,,,,,,,,,,,,,z,0,1.4714,,,,,,,,0,63,63,66,1
,,,,,,,,,,,,,,,,,60fde0b2f2b1d36e006ad138,19,2022-02-12_16h39.38.668,lexical_decision_task_DD,2021.2.3,MacIntel,60.0024001,,,,,,,,,,,,0.5896,1,,,,,,,,,,,,,,,,,,,,,,,,-0.001223958,-0.416345486,0,0,0,,,,,,,KITTEN,C,m,m,./images/KITTEN.png,,,,,,,,,,,,,,,,,,,,m,1,0.5896,,,,,,,,0,64,64,45,1
,,,,,,,,,,,,,,,,,60fde0b2f2b1d36e006ad138,19,2022-02-12_16h39.38.668,lexical_decision_task_DD,2021.2.3,MacIntel,60.0024001,,,,,,,,,,,,0.5206,1,,,,,,,,,,,,,,,,,,,,,,,,-0.001223958,-0.416345486,0,0,0,,,,,,,SQUARE,C,m,m,./images/SQUARE.png,,,,,,,,,,,,,,,,,,,,m,1,0.5206,,,,,,,,0,65,65,6,1
,,,,,,,,,,,,,,,,,60fde0b2f2b1d36e006ad138,19,2022-02-12_16h39.38.668,lexical_decision_task_DD,2021.2.3,MacIntel,60.0024001,,,,,,,,,,,,0.6828,1,,,,,,,,,,,,,,,,,,,,,,,,-0.001223958,-0.416345486,0,0,0,,,,,,,STAIN,C,z,m,./images/STAIN.png,,,,,,,,,,,,,,,,,,,,z,1,0.6828,,,,,,,,0,66,66,90,1
,,,,,,,,,,,,,,,,,60fde0b2f2b1d36e006ad138,19,2022-02-12_16h39.38.668,lexical_decision_task_DD,2021.2.3,MacIntel,60.0024001,,,,,,,,,,,,0.5363,0,,,,,,,,,,,,,,,,,,,,,,,,-0.001223958,-0.416345486,0,0,0,,,,,,,FALCON,HB,m,m,./images/FALCONHB.png,,,,,,,,,,,,,,,,,,,,z,0,0.5363,,,,,,,,0,67,67,28,1
,,,,,,,,,,,,,,,,,60fde0b2f2b1d36e006ad138,19,2022-02-12_16h39.38.668,lexical_decision_task_DD,2021.2.3,MacIntel,60.0024001,,,,,,,,,,,,0.6505,1,,,,,,,,,,,,,,,,,,,,,,,,-0.001223958,-0.416345486,0,0,0,,,,,,,GRAIN,C,m,m,./images/GRAIN.png,,,,,,,,,,,,,,,,,,,,m,1,0.6505,,,,,,,,0,68,68,75,1
,,,,,,,,,,,,,,,,,60fde0b2f2b1d36e006ad138,19,2022-02-12_16h39.38.668,lexical_decision_task_DD,2021.2.3,MacIntel,60.0024001,,,,,,,,,,,,0.7632,1,,,,,,,,,,,,,,,,,,,,,,,,-0.001223958,-0.416345486,0,0,0,,,,,,,BABOON,HB,m,m,./images/BABOONHB.png,,,,,,,,,,,,,,,,,,,,m,1,0.7632,,,,,,,,0,69,69,58,1
,,,,,,,,,,,,,,,,,60fde0b2f2b1d36e006ad138,19,2022-02-12_16h39.38.668,lexical_decision_task_DD,2021.2.3,MacIntel,60.0024001,,,,,,,,,,,,0.8,1,,,,,,,,,,,,,,,,,,,,,,,,-0.001223958,-0.416345486,0,0,0,,,,,,,WALRUS,LB,m,m,./images/WALRUSLB.png,,,,,,,,,,,,,,,,,,,,m,1,0.8,,,,,,,,0,70,70,23,1
,,,,,,,,,,,,,,,,,60fde0b2f2b1d36e006ad138,19,2022-02-12_16h39.38.668,lexical_decision_task_DD,2021.2.3,MacIntel,60.0024001,,,,,,,,,,,,1.0007,1,,,,,,,,,,,,,,,,,,,,,,,,-0.001223958,-0.416345486,0,0,0,,,,,,,TIGER,HB,z,m,./images/TIGERHB.png,,,,,,,,,,,,,,,,,,,,z,1,1.0007,,,,,,,,0,71,71,121,1
,,,,,,,,,,,,,,,,,60fde0b2f2b1d36e006ad138,19,2022-02-12_16h39.38.668,lexical_decision_task_DD,2021.2.3,MacIntel,60.0024001,,,,,,,,,,,,1.2656,0,,,,,,,,,,,,,,,,,,,,,,,,-0.001223958,-0.416345486,0,0,0,,,,,,,TRIPOD,C,m,m,./images/TRIPOD.png,,,,,,,,,,,,,,,,,,,,z,0,1.2656,,,,,,,,0,72,72,54,1
,,,,,,,,,,,,,,,,,60fde0b2f2b1d36e006ad138,19,2022-02-12_16h39.38.668,lexical_decision_task_DD,2021.2.3,MacIntel,60.0024001,,,,,,,,,,,,0.701,1,,,,,,,,,,,,,,,,,,,,,,,,-0.001223958,-0.416345486,0,0,0,,,,,,,PISTOL,LB,z,m,./images/PISTOLLB.png,,,,,,,,,,,,,,,,,,,,z,1,0.701,,,,,,,,0,73,73,113,1
,,,,,,,,,,,,,,,,,60fde0b2f2b1d36e006ad138,19,2022-02-12_16h39.38.668,lexical_decision_task_DD,2021.2.3,MacIntel,60.0024001,,,,,,,,,,,,0.9653,0,,,,,,,,,,,,,,,,,,,,,,,,-0.001223958,-0.416345486,0,0,0,,,,,,,CANDLE,HB,m,m,./images/CANDLEHB.png,,,,,,,,,,,,,,,,,,,,z,0,0.9653,,,,,,,,0,74,74,61,1
,,,,,,,,,,,,,,,,,60fde0b2f2b1d36e006ad138,19,2022-02-12_16h39.38.668,lexical_decision_task_DD,2021.2.3,MacIntel,60.0024001,,,,,,,,,,,,1.3162,0,,,,,,,,,,,,,,,,,,,,,,,,-0.001223958,-0.416345486,0,0,0,,,,,,,COLLAR,C,z,m,./images/COLLAR.png,,,,,,,,,,,,,,,,,,,,m,0,1.3162,,,,,,,,0,75,75,99,1
,,,,,,,,,,,,,,,,,60fde0b2f2b1d36e006ad138,19,2022-02-12_16h39.38.668,lexical_decision_task_DD,2021.2.3,MacIntel,60.0024001,,,,,,,,,,,,0.7845,1,,,,,,,,,,,,,,,,,,,,,,,,-0.001223958,-0.416345486,0,0,0,,,,,,,CASINO,HB,z,m,./images/CASINOHB.png,,,,,,,,,,,,,,,,,,,,z,1,0.7845,,,,,,,,0,76,76,112,1
,,,,,,,,,,,,,,,,,60fde0b2f2b1d36e006ad138,19,2022-02-12_16h39.38.668,lexical_decision_task_DD,2021.2.3,MacIntel,60.0024001,,,,,,,,,,,,1.1189,0,,,,,,,,,,,,,,,,,,,,,,,,-0.001223958,-0.416345486,0,0,0,,,,,,,KIDNEY,C,m,m,./images/KIDNEY.png,,,,,,,,,,,,,,,,,,,,z,0,1.1189,,,,,,,,0,77,77,21,1
,,,,,,,,,,,,,,,,,60fde0b2f2b1d36e006ad138,19,2022-02-12_16h39.38.668,lexical_decision_task_DD,2021.2.3,MacIntel,60.0024001,,,,,,,,,,,,0.9004,1,,,,,,,,,,,,,,,,,,,,,,,,-0.001223958,-0.416345486,0,0,0,,,,,,,MOSQUE,HB,m,m,./images/MOSQUEHB.png,,,,,,,,,,,,,,,,,,,,m,1,0.9004,,,,,,,,0,78,78,43,1
,,,,,,,,,,,,,,,,,60fde0b2f2b1d36e006ad138,19,2022-02-12_16h39.38.668,lexical_decision_task_DD,2021.2.3,MacIntel,60.0024001,,,,,,,,,,,,0.7811,1,,,,,,,,,,,,,,,,,,,,,,,,-0.001223958,-0.416345486,0,0,0,,,,,,,BUBBLE,LB,z,m,./images/BUBBLELB.png,,,,,,,,,,,,,,,,,,,,z,1,0.7811,,,,,,,,0,79,79,155,1
,,,,,,,,,,,,,,,,,60fde0b2f2b1d36e006ad138,19,2022-02-12_16h39.38.668,lexical_decision_task_DD,2021.2.3,MacIntel,60.0024001,,,,,,,,,,,,0.8028,1,,,,,,,,,,,,,,,,,,,,,,,,-0.001223958,-0.416345486,0,0,0,,,,,,,MIDGET,HB,z,m,./images/MIDGETHB.png,,,,,,,,,,,,,,,,,,,,z,1,0.8028,,,,,,,,0,80,80,160,1
,,,,,,,,,,,,,,,,,60fde0b2f2b1d36e006ad138,19,2022-02-12_16h39.38.668,lexical_decision_task_DD,2021.2.3,MacIntel,60.0024001,,,,,,,,,,,,1.2366,1,,,,,,,,,,,,,,,,,,,,,,,,-0.001223958,-0.416345486,0,0,0,,,,,,,JUNGLE,LB,m,m,./images/JUNGLELB.png,,,,,,,,,,,,,,,,,,,,m,1,1.2366,,,,,,,,0,81,81,83,1
,,,,,,,,,,,,,,,,,60fde0b2f2b1d36e006ad138,19,2022-02-12_16h39.38.668,lexical_decision_task_DD,2021.2.3,MacIntel,60.0024001,,,,,,,,,,,,1.3539,0,,,,,,,,,,,,,,,,,,,,,,,,-0.001223958,-0.416345486,0,0,0,,,,,,,BEARD,LB,m,m,./images/BEARDLB.png,,,,,,,,,,,,,,,,,,,,z,0,1.3539,,,,,,,,0,82,82,2,1
,,,,,,,,,,,,,,,,,60fde0b2f2b1d36e006ad138,19,2022-02-12_16h39.38.668,lexical_decision_task_DD,2021.2.3,MacIntel,60.0024001,,,,,,,,,,,,0.83,1,,,,,,,,,,,,,,,,,,,,,,,,-0.001223958,-0.416345486,0,0,0,space,,,,,,CLOTH,LB,z,m,./images/CLOTHLB.png,1.0832,,,,,,,,,,,,,,,,,,,z,1,0.83,,,,,,,,0,83,83,107,1
,,,,,,,,,,,,,,,,,60fde0b2f2b1d36e006ad138,19,2022-02-12_16h39.38.668,lexical_decision_task_DD,2021.2.3,MacIntel,60.0024001,,,,,,,,,,,,1.4843,0,,,,,,,,,,,,,,,,,,,,,,,,-0.001223958,-0.416345486,0,0,0,,,,,,,GRAPE,HB,z,m,./images/GRAPEHB.png,,,,,,,,,,,,,,,,,,,,m,0,1.4843,,,,,,,,0,84,84,100,1
,,,,,,,,,,,,,,,,,60fde0b2f2b1d36e006ad138,19,2022-02-12_16h39.38.668,lexical_decision_task_DD,2021.2.3,MacIntel,60.0024001,,,,,,,,,,,,0.6723,1,,,,,,,,,,,,,,,,,,,,,,,,-0.001223958,-0.416345486,0,0,0,,,,,,,JAGUAR,C,m,m,./images/JAGUAR.png,,,,,,,,,,,,,,,,,,,,m,1,0.6723,,,,,,,,0,85,85,18,1
,,,,,,,,,,,,,,,,,60fde0b2f2b1d36e006ad138,19,2022-02-12_16h39.38.668,lexical_decision_task_DD,2021.2.3,MacIntel,60.0024001,,,,,,,,,,,,0.603,1,,,,,,,,,,,,,,,,,,,,,,,,-0.001223958,-0.416345486,0,0,0,,,,,,,CRUMB,LB,m,m,./images/CRUMBLB.png,,,,,,,,,,,,,,,,,,,,m,1,0.603,,,,,,,,0,86,86,29,1
,,,,,,,,,,,,,,,,,60fde0b2f2b1d36e006ad138,19,2022-02-12_16h39.38.668,lexical_decision_task_DD,2021.2.3,MacIntel,60.0024001,,,,,,,,,,,,0.7505,1,,,,,,,,,,,,,,,,,,,,,,,,-0.001223958,-0.416345486,0,0,0,,,,,,,PENCE,HB,m,m,./images/PENCEHB.png,,,,,,,,,,,,,,,,,,,,m,1,0.7505,,,,,,,,0,87,87,16,1
,,,,,,,,,,,,,,,,,60fde0b2f2b1d36e006ad138,19,2022-02-12_16h39.38.668,lexical_decision_task_DD,2021.2.3,MacIntel,60.0024001,,,,,,,,,,,,0.7507,0,,,,,,,,,,,,,,,,,,,,,,,,-0.001223958,-0.416345486,0,0,0,,,,,,,MONKEY,C,z,m,./images/MONKEY.png,,,,,,,,,,,,,,,,,,,,m,0,0.7507,,,,,,,,0,88,88,129,1
,,,,,,,,,,,,,,,,,60fde0b2f2b1d36e006ad138,19,2022-02-12_16h39.38.668,lexical_decision_task_DD,2021.2.3,MacIntel,60.0024001,,,,,,,,,,,,0.7143,1,,,,,,,,,,,,,,,,,,,,,,,,-0.001223958,-0.416345486,0,0,0,,,,,,,SAILOR,HB,m,m,./images/SAILORHB.png,,,,,,,,,,,,,,,,,,,,m,1,0.7143,,,,,,,,0,89,89,67,1
,,,,,,,,,,,,,,,,,60fde0b2f2b1d36e006ad138,19,2022-02-12_16h39.38.668,lexical_decision_task_DD,2021.2.3,MacIntel,60.0024001,,,,,,,,,,,,1.3471,0,,,,,,,,,,,,,,,,,,,,,,,,-0.001223958,-0.416345486,0,0,0,,,,,,,SCREW,C,m,m,./images/SCREW.png,,,,,,,,,,,,,,,,,,,,z,0,1.3471,,,,,,,,0,90,90,24,1
,,,,,,,,,,,,,,,,,60fde0b2f2b1d36e006ad138,19,2022-02-12_16h39.38.668,lexical_decision_task_DD,2021.2.3,MacIntel,60.0024001,,,,,,,,,,,,0.5345,1,,,,,,,,,,,,,,,,,,,,,,,,-0.001223958,-0.416345486,0,0,0,,,,,,,BLOKE,C,z,m,./images/BLOKE.png,,,,,,,,,,,,,,,,,,,,z,1,0.5345,,,,,,,,0,91,91,96,1
,,,,,,,,,,,,,,,,,60fde0b2f2b1d36e006ad138,19,2022-02-12_16h39.38.668,lexical_decision_task_DD,2021.2.3,MacIntel,60.0024001,,,,,,,,,,,,0.5696,1,,,,,,,,,,,,,,,,,,,,,,,,-0.001223958,-0.416345486,0,0,0,,,,,,,STRING,LB,m,m,./images/STRINGLB.png,,,,,,,,,,,,,,,,,,,,m,1,0.5696,,,,,,,,0,92,92,41,1
,,,,,,,,,,,,,,,,,60fde0b2f2b1d36e006ad138,19,2022-02-12_16h39.38.668,lexical_decision_task_DD,2021.2.3,MacIntel,60.0024001,,,,,,,,,,,,0.5872,1,,,,,,,,,,,,,,,,,,,,,,,,-0.001223958,-0.416345486,0,0,0,,,,,,,PLANK,HB,m,m,./images/PLANKHB.png,,,,,,,,,,,,,,,,,,,,m,1,0.5872,,,,,,,,0,93,93,1,1
,,,,,,,,,,,,,,,,,60fde0b2f2b1d36e006ad138,19,2022-02-12_16h39.38.668,lexical_decision_task_DD,2021.2.3,MacIntel,60.0024001,,,,,,,,,,,,0.7802,1,,,,,,,,,,,,,,,,,,,,,,,,-0.001223958,-0.416345486,0,0,0,,,,,,,FLESH,C,z,m,./images/FLESH.png,,,,,,,,,,,,,,,,,,,,z,1,0.7802,,,,,,,,0,94,94,108,1
,,,,,,,,,,,,,,,,,60fde0b2f2b1d36e006ad138,19,2022-02-12_16h39.38.668,lexical_decision_task_DD,2021.2.3,MacIntel,60.0024001,,,,,,,,,,,,0.6477,1,,,,,,,,,,,,,,,,,,,,,,,,-0.001223958,-0.416345486,0,0,0,,,,,,,BERRY,LB,m,m,./images/BERRYLB.png,,,,,,,,,,,,,,,,,,,,m,1,0.6477,,,,,,,,0,95,95,47,1
,,,,,,,,,,,,,,,,,60fde0b2f2b1d36e006ad138,19,2022-02-12_16h39.38.668,lexical_decision_task_DD,2021.2.3,MacIntel,60.0024001,,,,,,,,,,,,0.8211,0,,,,,,,,,,,,,,,,,,,,,,,,-0.001223958,-0.416345486,0,0,0,,,,,,,TWINS,C,m,m,./images/TWINS.png,,,,,,,,,,,,,,,,,,,,z,0,0.8211,,,,,,,,0,96,96,60,1
,,,,,,,,,,,,,,,,,60fde0b2f2b1d36e006ad138,19,2022-02-12_16h39.38.668,lexical_decision_task_DD,2021.2.3,MacIntel,60.0024001,,,,,,,,,,,,0.701,0,,,,,,,,,,,,,,,,,,,,,,,,-0.001223958,-0.416345486,0,0,0,,,,,,,BISHOP,HB,z,m,./images/BISHOPHB.png,,,,,,,,,,,,,,,,,,,,m,0,0.701,,,,,,,,0,97,97,133,1
,,,,,,,,,,,,,,,,,60fde0b2f2b1d36e006ad138,19,2022-02-12_16h39.38.668,lexical_decision_task_DD,2021.2.3,MacIntel,60.0024001,,,,,,,,,,,,0.7668,1,,,,,,,,,,,,,,,,,,,,,,,,-0.001223958,-0.416345486,0,0,0,,,,,,,BOXER,HB,z,m,./images/BOXERHB.png,,,,,,,,,,,,,,,,,,,,z,1,0.7668,,,,,,,,0,98,98,88,1
,,,,,,,,,,,,,,,,,60fde0b2f2b1d36e006ad138,19,2022-02-12_16h39.38.668,lexical_decision_task_DD,2021.2.3,MacIntel,60.0024001,,,,,,,,,,,,0.8328,1,,,,,,,,,,,,,,,,,,,,,,,,-0.001223958,-0.416345486,0,0,0,,,,,,,JUMPER,LB,z,m,./images/JUMPERLB.png,,,,,,,,,,,,,,,,,,,,z,1,0.8328,,,,,,,,0,99,99,158,1
,,,,,,,,,,,,,,,,,60fde0b2f2b1d36e006ad138,19,2022-02-12_16h39.38.668,lexical_decision_task_DD,2021.2.3,MacIntel,60.0024001,,,,,,,,,,,,0.8508,1,,,,,,,,,,,,,,,,,,,,,,,,-0.001223958,-0.416345486,0,0,0,,,,,,,PASTA,LB,m,m,./images/PASTALB.png,,,,,,,,,,,,,,,,,,,,m,1,0.8508,,,,,,,,0,100,100,5,1
,,,,,,,,,,,,,,,,,60fde0b2f2b1d36e006ad138,19,2022-02-12_16h39.38.668,lexical_decision_task_DD,2021.2.3,MacIntel,60.0024001,,,,,,,,,,,,0.9323,1,,,,,,,,,,,,,,,,,,,,,,,,-0.001223958,-0.416345486,0,0,0,,,,,,,GRANNY,LB,z,m,./images/GRANNYLB.png,,,,,,,,,,,,,,,,,,,,z,1,0.9323,,,,,,,,0,101,101,104,1
,,,,,,,,,,,,,,,,,60fde0b2f2b1d36e006ad138,19,2022-02-12_16h39.38.668,lexical_decision_task_DD,2021.2.3,MacIntel,60.0024001,,,,,,,,,,,,0.9821,1,,,,,,,,,,,,,,,,,,,,,,,,-0.001223958,-0.416345486,0,0,0,,,,,,,RHINO,C,m,m,./images/RHINO.png,,,,,,,,,,,,,,,,,,,,m,1,0.9821,,,,,,,,0,102,102,9,1
,,,,,,,,,,,,,,,,,60fde0b2f2b1d36e006ad138,19,2022-02-12_16h39.38.668,lexical_decision_task_DD,2021.2.3,MacIntel,60.0024001,,,,,,,,,,,,0.9496,1,,,,,,,,,,,,,,,,,,,,,,,,-0.001223958,-0.416345486,0,0,0,,,,,,,RULER,HB,z,m,./images/RULERHB.png,,,,,,,,,,,,,,,,,,,,z,1,0.9496,,,,,,,,0,103,103,163,1
,,,,,,,,,,,,,,,,,60fde0b2f2b1d36e006ad138,19,2022-02-12_16h39.38.668,lexical_decision_task_DD,2021.2.3,MacIntel,60.0024001,,,,,,,,,,,,0.9164,1,,,,,,,,,,,,,,,,,,,,,,,,-0.001223958,-0.416345486,0,0,0,,,,,,,DANCER,C,z,m,./images/DANCER.png,,,,,,,,,,,,,,,,,,,,z,1,0.9164,,,,,,,,0,104,104,105,1
,,,,,,,,,,,,,,,,,60fde0b2f2b1d36e006ad138,19,2022-02-12_16h39.38.668,lexical_decision_task_DD,2021.2.3,MacIntel,60.0024001,,,,,,,,,,,,1.1003,1,,,,,,,,,,,,,,,,,,,,,,,,-0.001223958,-0.416345486,0,0,0,,,,,,,TOMATO,C,m,m,./images/TOMATO.png,,,,,,,,,,,,,,,,,,,,m,1,1.1003,,,,,,,,0,105,105,0,1
,,,,,,,,,,,,,,,,,60fde0b2f2b1d36e006ad138,19,2022-02-12_16h39.38.668,lexical_decision_task_DD,2021.2.3,MacIntel,60.0024001,,,,,,,,,,,,1.1001,0,,,,,,,,,,,,,,,,,,,,,,,,-0.001223958,-0.416345486,0,0,0,,,,,,,SWING,HB,m,m,./images/SWINGHB.png,,,,,,,,,,,,,,,,,,,,z,0,1.1001,,,,,,,,0,106,106,40,1
,,,,,,,,,,,,,,,,,60fde0b2f2b1d36e006ad138,19,2022-02-12_16h39.38.668,lexical_decision_task_DD,2021.2.3,MacIntel,60.0024001,,,,,,,,,,,,1.0335,1,,,,,,,,,,,,,,,,,,,,,,,,-0.001223958,-0.416345486,0,0,0,,,,,,,BAMBOO,LB,z,m,./images/BAMBOOLB.png,,,,,,,,,,,,,,,,,,,,z,1,1.0335,,,,,,,,0,107,107,89,1
,,,,,,,,,,,,,,,,,60fde0b2f2b1d36e006ad138,19,2022-02-12_16h39.38.668,lexical_decision_task_DD,2021.2.3,MacIntel,60.0024001,,,,,,,,,,,,1.0693,0,,,,,,,,,,,,,,,,,,,,,,,,-0.001223958,-0.416345486,0,0,0,,,,,,,BANANA,HB,z,m,./images/BANANAHB.png,,,,,,,,,,,,,,,,,,,,m,0,1.0693,,,,,,,,0,108,108,154,1
,,,,,,,,,,,,,,,,,60fde0b2f2b1d36e006ad138,19,2022-02-12_16h39.38.668,lexical_decision_task_DD,2021.2.3,MacIntel,60.0024001,,,,,,,,,,,,1.0333,0,,,,,,,,,,,,,,,,,,,,,,,,-0.001223958,-0.416345486,0,0,0,,,,,,,TOWEL,HB,z,m,./images/TOWELHB.png,,,,,,,,,,,,,,,,,,,,m,0,1.0333,,,,,,,,0,109,109,85,1
,,,,,,,,,,,,,,,,,60fde0b2f2b1d36e006ad138,19,2022-02-12_16h39.38.668,lexical_decision_task_DD,2021.2.3,MacIntel,60.0024001,,,,,,,,,,,,0.6177,0,,,,,,,,,,,,,,,,,,,,,,,,-0.001223958,-0.416345486,0,0,0,,,,,,,CLIFF,LB,z,m,./images/CLIFFLB.png,,,,,,,,,,,,,,,,,,,,m,0,0.6177,,,,,,,,0,110,110,92,1
,,,,,,,,,,,,,,,,,60fde0b2f2b1d36e006ad138,19,2022-02-12_16h39.38.668,lexical_decision_task_DD,2021.2.3,MacIntel,60.0024001,,,,,,,,,,,,0.4635,0,,,,,,,,,,,,,,,,,,,,,,,,-0.001223958,-0.416345486,0,0,0,,,,,,,FINGER,C,m,m,./images/FINGER.png,,,,,,,,,,,,,,,,,,,,z,0,0.4635,,,,,,,,0,111,111,3,1
,,,,,,,,,,,,,,,,,60fde0b2f2b1d36e006ad138,19,2022-02-12_16h39.38.668,lexical_decision_task_DD,2021.2.3,MacIntel,60.0024001,,,,,,,,,,,,0.367,1,,,,,,,,,,,,,,,,,,,,,,,,-0.001223958,-0.416345486,0,0,0,,,,,,,CANYON,HB,m,m,./images/CANYONHB.png,,,,,,,,,,,,,,,,,,,,m,1,0.367,,,,,,,,0,112,112,34,1
,,,,,,,,,,,,,,,,,60fde0b2f2b1d36e006ad138,19,2022-02-12_16h39.38.668,lexical_decision_task_DD,2021.2.3,MacIntel,60.0024001,,,,,,,,,,,,0.4663,0,,,,,,,,,,,,,,,,,,,,,,,,-0.001223958,-0.416345486,0,0,0,,,,,,,SUNSET,HB,m,m,./images/SUNSETHB.png,,,,,,,,,,,,,,,,,,,,z,0,0.4663,,,,,,,,0,113,113,82,1
,,,,,,,,,,,,,,,,,60fde0b2f2b1d36e006ad138,19,2022-02-12_16h39.38.668,lexical_decision_task_DD,2021.2.3,MacIntel,60.0024001,,,,,,,,,,,,0.6028,0,,,,,,,,,,,,,,,,,,,,,,,,-0.001223958,-0.416345486,0,0,0,,,,,,,MUFFIN,HB,m,m,./images/MUFFINHB.png,,,,,,,,,,,,,,,,,,,,z,0,0.6028,,,,,,,,0,114,114,55,1
,,,,,,,,,,,,,,,,,60fde0b2f2b1d36e006ad138,19,2022-02-12_16h39.38.668,lexical_decision_task_DD,2021.2.3,MacIntel,60.0024001,,,,,,,,,,,,0.6342,1,,,,,,,,,,,,,,,,,,,,,,,,-0.001223958,-0.416345486,0,0,0,,,,,,,MAGGOT,C,m,m,./images/MAGGOT.png,,,,,,,,,,,,,,,,,,,,m,1,0.6342,,,,,,,,0,115,115,33,1
,,,,,,,,,,,,,,,,,60fde0b2f2b1d36e006ad138,19,2022-02-12_16h39.38.668,lexical_decision_task_DD,2021.2.3,MacIntel,60.0024001,,,,,,,,,,,,0.517,1,,,,,,,,,,,,,,,,,,,,,,,,-0.001223958,-0.416345486,0,0,0,,,,,,,BURIAL,LB,m,m,./images/BURIALLB.png,,,,,,,,,,,,,,,,,,,,m,1,0.517,,,,,,,,0,116,116,59,1
,,,,,,,,,,,,,,,,,60fde0b2f2b1d36e006ad138,19,2022-02-12_16h39.38.668,lexical_decision_task_DD,2021.2.3,MacIntel,60.0024001,,,,,,,,,,,,0.4971,1,,,,,,,,,,,,,,,,,,,,,,,,-0.001223958,-0.416345486,0,0,0,,,,,,,DRUMS,HB,m,m,./images/DRUMSHB.png,,,,,,,,,,,,,,,,,,,,m,1,0.4971,,,,,,,,0,117,117,49,1
,,,,,,,,,,,,,,,,,60fde0b2f2b1d36e006ad138,19,2022-02-12_16h39.38.668,lexical_decision_task_DD,2021.2.3,MacIntel,60.0024001,,,,,,,,,,,,0.3468,0,,,,,,,,,,,,,,,,,,,,,,,,-0.001223958,-0.416345486,0,0,0,,,,,,,WRIST,HB,m,m,./images/WRISTHB.png,,,,,,,,,,,,,,,,,,,,z,0,0.3468,,,,,,,,0,118,118,25,1
,,,,,,,,,,,,,,,,,60fde0b2f2b1d36e006ad138,19,2022-02-12_16h39.38.668,lexical_decision_task_DD,2021.2.3,MacIntel,60.0024001,,,,,,,,,,,,0.4304,1,,,,,,,,,,,,,,,,,,,,,,,,-0.001223958,-0.416345486,0,0,0,,,,,,,CURRY,C,z,m,./images/CURRY.png,,,,,,,,,,,,,,,,,,,,z,1,0.4304,,,,,,,,0,119,119,144,1
,,,,,,,,,,,,,,,,,60fde0b2f2b1d36e006ad138,19,2022-02-12_16h39.38.668,lexical_decision_task_DD,2021.2.3,MacIntel,60.0024001,,,,,,,,,,,,0.4494,1,,,,,,,,,,,,,,,,,,,,,,,,-0.001223958,-0.416345486,0,0,0,,,,,,,BANNER,HB,m,m,./images/BANNERHB.png,,,,,,,,,,,,,,,,,,,,m,1,0.4494,,,,,,,,0,120,120,52,1
,,,,,,,,,,,,,,,,,60fde0b2f2b1d36e006ad138,19,2022-02-12_16h39.38.668,lexical_decision_task_DD,2021.2.3,MacIntel,60.0024001,,,,,,,,,,,,0.6219,1,,,,,,,,,,,,,,,,,,,,,,,,-0.001223958,-0.416345486,0,0,0,,,,,,,HAMMER,C,z,m,./images/HAMMER.png,,,,,,,,,,,,,,,,,,,,z,1,0.6219,,,,,,,,0,121,121,159,1
,,,,,,,,,,,,,,,,,60fde0b2f2b1d36e006ad138,19,2022-02-12_16h39.38.668,lexical_decision_task_DD,2021.2.3,MacIntel,60.0024001,,,,,,,,,,,,0.5837,1,,,,,,,,,,,,,,,,,,,,,,,,-0.001223958,-0.416345486,0,0,0,,,,,,,PLANET,LB,z,m,./images/PLANETLB.png,,,,,,,,,,,,,,,,,,,,z,1,0.5837,,,,,,,,0,122,122,164,1
,,,,,,,,,,,,,,,,,60fde0b2f2b1d36e006ad138,19,2022-02-12_16h39.38.668,lexical_decision_task_DD,2021.2.3,MacIntel,60.0024001,,,,,,,,,,,,0.5512,1,,,,,,,,,,,,,,,,,,,,,,,,-0.001223958,-0.416345486,0,0,0,,,,,,,DOUGH,HB,m,m,./images/DOUGHHB.png,,,,,,,,,,,,,,,,,,,,m,1,0.5512,,,,,,,,0,123,123,19,1
,,,,,,,,,,,,,,,,,60fde0b2f2b1d36e006ad138,19,2022-02-12_16h39.38.668,lexical_decision_task_DD,2021.2.3,MacIntel,60.0024001,,,,,,,,,,,,0.5009,1,,,,,,,,,,,,,,,,,,,,,,,,-0.001223958,-0.416345486,0,0,0,,,,,,,SHORE,C,m,m,./images/SHORE.png,,,,,,,,,,,,,,,,,,,,m,1,0.5009,,,,,,,,0,124,124,12,1
,,,,,,,,,,,,,,,,,60fde0b2f2b1d36e006ad138,19,2022-02-12_16h39.38.668,lexical_decision_task_DD,2021.2.3,MacIntel,60.0024001,,,,,,,,,,,,0.5002,1,,,,,,,,,,,,,,,,,,,,,,,,-0.001223958,-0.416345486,0,0,0,space,,,,,,TORCH,LB,m,m,./images/TORCHLB.png,0.6849,,,,,,,,,,,,,,,,,,,m,1,0.5002,,,,,,,,0,125,125,68,1
,,,,,,,,,,,,,,,,,60fde0b2f2b1d36e006ad138,19,2022-02-12_16h39.38.668,lexical_decision_task_DD,2021.2.3,MacIntel,60.0024001,,,,,,,,,,,,0.6512,0,,,,,,,,,,,,,,,,,,,,,,,,-0.001223958,-0.416345486,0,0,0,,,,,,,POKER,HB,z,m,./images/POKERHB.png,,,,,,,,,,,,,,,,,,,,m,0,0.6512,,,,,,,,0,126,126,151,1
,,,,,,,,,,,,,,,,,60fde0b2f2b1d36e006ad138,19,2022-02-12_16h39.38.668,lexical_decision_task_DD,2021.2.3,MacIntel,60.0024001,,,,,,,,,,,,0.3838,0,,,,,,,,,,,,,,,,,,,,,,,,-0.001223958,-0.416345486,0,0,0,,,,,,,SKIING,LB,m,m,./images/SKIINGLB.png,,,,,,,,,,,,,,,,,,,,z,0,0.3838,,,,,,,,0,127,127,17,1
,,,,,,,,,,,,,,,,,60fde0b2f2b1d36e006ad138,19,2022-02-12_16h39.38.668,lexical_decision_task_DD,2021.2.3,MacIntel,60.0024001,,,,,,,,,,,,0.4171,1,,,,,,,,,,,,,,,,,,,,,,,,-0.001223958,-0.416345486,0,0,0,,,,,,,BARREL,LB,m,m,./images/BARRELLB.png,,,,,,,,,,,,,,,,,,,,m,1,0.4171,,,,,,,,0,128,128,32,1
,,,,,,,,,,,,,,,,,60fde0b2f2b1d36e006ad138,19,2022-02-12_16h39.38.668,lexical_decision_task_DD,2021.2.3,MacIntel,60.0024001,,,,,,,,,,,,0.3201,0,,,,,,,,,,,,,,,,,,,,,,,,-0.001223958,-0.416345486,0,0,0,,,,,,,BELLY,HB,m,m,./images/BELLYHB.png,,,,,,,,,,,,,,,,,,,,z,0,0.3201,,,,,,,,0,129,129,10,1
,,,,,,,,,,,,,,,,,60fde0b2f2b1d36e006ad138,19,2022-02-12_16h39.38.668,lexical_decision_task_DD,2021.2.3,MacIntel,60.0024001,,,,,,,,,,,,0.0499,1,,,,,,,,,,,,,,,,,,,,,,,,-0.001223958,-0.416345486,0,0,0,,,,,,,CEMENT,LB,m,m,./images/CEMENTLB.png,,,,,,,,,,,,,,,,,,,,m,1,0.0499,,,,,,,,0,130,130,74,1
,,,,,,,,,,,,,,,,,60fde0b2f2b1d36e006ad138,19,2022-02-12_16h39.38.668,lexical_decision_task_DD,2021.2.3,MacIntel,60.0024001,,,,,,,,,,,,0.4151,1,,,,,,,,,,,,,,,,,,,,,,,,-0.001223958,-0.416345486,0,0,0,,,,,,,PAINT,HB,m,m,./images/PAINTHB.png,,,,,,,,,,,,,,,,,,,,m,1,0.4151,,,,,,,,0,131,131,7,1
,,,,,,,,,,,,,,,,,60fde0b2f2b1d36e006ad138,19,2022-02-12_16h39.38.668,lexical_decision_task_DD,2021.2.3,MacIntel,60.0024001,,,,,,,,,,,,0.4334,0,,,,,,,,,,,,,,,,,,,,,,,,-0.001223958,-0.416345486,0,0,0,,,,,,,INFANT,HB,m,m,./images/INFANTHB.png,,,,,,,,,,,,,,,,,,,,z,0,0.4334,,,,,,,,0,132,132,76,1
