key_resp.keys,instr_done_touch.x,instr_done_touch.y,instr_done_touch.leftButton,instr_done_touch.midButton,instr_done_touch.rightButton,instr_done_touch.clicked_name,instruction_pages.thisRepN,instruction_pages.thisTrialN,instruction_pages.thisN,instruction_pages.thisIndex,instruction_pages.ran,pageN,phase,instruct_text,has_image,instruct_image,participant,age,date,expName,psychopyVersion,OS,frameRate,response.keys,response.corr,touch_resp.x,touch_resp.y,touch_resp.leftButton,touch_resp.midButton,touch_resp.rightButton,touch_resp.time,touch_resp.clicked_name,rt,corr,practrials.thisRepN,practrials.thisTrialN,practrials.thisN,practrials.thisIndex,practrials.ran,TrialID,Target,corrAns,end_of_practice_trials_pages.thisRepN,end_of_practice_trials_pages.thisTrialN,end_of_practice_trials_pages.thisN,end_of_practice_trials_pages.thisIndex,end_of_practice_trials_pages.ran,key_resp_2.keys,key_resp_2.corr,targ_click.x,targ_click.y,targ_click.leftButton,targ_click.midButton,targ_click.rightButton,targ_click.time,targ_click.clicked_name,break_done_touch.x,break_done_touch.y,break_done_touch.leftButton,break_done_touch.midButton,break_done_touch.rightButton,break_done_keyboard.keys,maintrials.thisRepN,maintrials.thisTrialN,maintrials.thisN,maintrials.thisIndex,maintrials.ran,string,blur,study,lex,stim_path,break_done_touch.clicked_name,mouse_2.x,mouse_2.y,mouse_2.leftButton,mouse_2.midButton,mouse_2.rightButton,mouse_2.clicked_name,slider.response,slider.rt,trials.thisRepN,trials.thisTrialN,trials.thisN,trials.thisIndex,trials.ran,test_instructions.thisRepN,test_instructions.thisTrialN,test_instructions.thisN,test_instructions.thisIndex,test_instructions.ran,key_resp_3.keys,key_resp_3.corr,test_click.x,test_click.y,test_click.leftButton,test_click.midButton,test_click.rightButton,test_click.time,test_click.clicked_name,test_phase.thisRepN,test_phase.thisTrialN,test_phase.thisN,test_phase.thisIndex,test_phase.ran
,-0.137755102,-0.415816327,1,0,0,instr_done_button,0,0,0,0,1,1,instructions,"INSTRUCTIONS
At the start of each trial, look at the plus sign  (+) in the center of the screen.  This tells you that a trial is about to begin and where to look. Second, the plus sign will disappear and a string of letters will appear. Your task is to determine if the string of letters is a word or not. If the item is a word press the M key (on keyboard)  or touch the word button (phone/tablet).  If the item is not a word,  press the  Z key (on keyboard)  or touch the nonword button (on phone/tablet). 
Press the space bar or touch  continue.",0,,60fded24de9d0e39caa58493,20,2022-02-12_13h43.56.610,lexical_decision_task_DD,2021.2.3,iPhone,58.82352941,,,,,,,,,,,,,,,,,,,,,,,,,,,,,,,,,,,,,,,,,,,,,,,,,,,,,,,,,,,,,,,,,,,,,,,,,,,,,,,,,,
,0.113265306,-0.426020408,1,0,0,instr_done_button,0,1,1,1,1,2,instructions,"If your device has a keyboard, press the 'Z' key for nonwords and the 'M' key for words.





Press the space bar or touch the button below to continue.",0,keyboard-example.gif,60fded24de9d0e39caa58493,20,2022-02-12_13h43.56.610,lexical_decision_task_DD,2021.2.3,iPhone,58.82352941,,,,,,,,,,,,,,,,,,,,,,,,,,,,,,,,,,,,,,,,,,,,,,,,,,,,,,,,,,,,,,,,,,,,,,,,,,,,,,,,,,
,0.125510204,-0.403571429,1,0,0,instr_done_button,0,2,2,2,1,3,instructions,"If you are using a touchscreen only device, use the buttons on the screen. Do not use the mouse.





Press the space bar or touch the button below to continue.",0,touchscreen-example.gif,60fded24de9d0e39caa58493,20,2022-02-12_13h43.56.610,lexical_decision_task_DD,2021.2.3,iPhone,58.82352941,,,,,,,,,,,,,,,,,,,,,,,,,,,,,,,,,,,,,,,,,,,,,,,,,,,,,,,,,,,,,,,,,,,,,,,,,,,,,,,,,,
,-0.115306122,-0.431122449,1,0,0,instr_done_button,0,3,3,3,1,4,instructions,"It is very important that you respond as quickly and accurately as possible, as each letter string will only be on the screen for two seconds. If you do not respond within this time, the message 'Too slow!' will be displayed and the experiment will progress to the next letter string. The first 20 trials will be practice trials and you will receive feedback on your answers. 

Press the space bar or touch the button below to start the practice trials.",0,,60fded24de9d0e39caa58493,20,2022-02-12_13h43.56.610,lexical_decision_task_DD,2021.2.3,iPhone,58.82352941,,,,,,,,,,,,,,,,,,,,,,,,,,,,,,,,,,,,,,,,,,,,,,,,,,,,,,,,,,,,,,,,,,,,,,,,,,,,,,,,,,
,,,,,,,,,,,,,,,,,60fded24de9d0e39caa58493,20,2022-02-12_13h43.56.610,lexical_decision_task_DD,2021.2.3,iPhone,58.82352941,,0,0.398979592,-0.301530612,1,0,0,1.341,button_right,1.341,1,0,0,0,6,1,1001,ZOMBIE,m,,,,,,,,,,,,,,,,,,,,,,,,,,,,,,,,,,,,,,,,,,,,,,,,,,,,,,,,,,,,,,,
,,,,,,,,,,,,,,,,,60fded24de9d0e39caa58493,20,2022-02-12_13h43.56.610,lexical_decision_task_DD,2021.2.3,iPhone,58.82352941,,0,-0.390816327,-0.320918367,1,0,0,1.009,button_left,1.009,1,0,1,1,15,1,1001,WHAISE,z,,,,,,,,,,,,,,,,,,,,,,,,,,,,,,,,,,,,,,,,,,,,,,,,,,,,,,,,,,,,,,,
,,,,,,,,,,,,,,,,,60fded24de9d0e39caa58493,20,2022-02-12_13h43.56.610,lexical_decision_task_DD,2021.2.3,iPhone,58.82352941,,0,-0.381632653,-0.312755102,1,0,0,0.757,button_left,0.757,1,0,2,2,8,1,1001,ASLERT,z,,,,,,,,,,,,,,,,,,,,,,,,,,,,,,,,,,,,,,,,,,,,,,,,,,,,,,,,,,,,,,,
,,,,,,,,,,,,,,,,,60fded24de9d0e39caa58493,20,2022-02-12_13h43.56.610,lexical_decision_task_DD,2021.2.3,iPhone,58.82352941,,0,0.390816327,-0.333163265,1,0,0,0.672,button_right,0.672,1,0,3,3,1,1,1001,ADJUST,m,,,,,,,,,,,,,,,,,,,,,,,,,,,,,,,,,,,,,,,,,,,,,,,,,,,,,,,,,,,,,,,
,,,,,,,,,,,,,,,,,60fded24de9d0e39caa58493,20,2022-02-12_13h43.56.610,lexical_decision_task_DD,2021.2.3,iPhone,58.82352941,,0,-0.384693878,-0.309693878,1,0,0,0.608,button_left,0.608,1,0,4,4,10,1,1001,INLADE,z,,,,,,,,,,,,,,,,,,,,,,,,,,,,,,,,,,,,,,,,,,,,,,,,,,,,,,,,,,,,,,,
,,,,,,,,,,,,,,,,,60fded24de9d0e39caa58493,20,2022-02-12_13h43.56.610,lexical_decision_task_DD,2021.2.3,iPhone,58.82352941,,0,-0.369387755,-0.316836735,1,0,0,0.641,button_left,0.641,1,0,5,5,14,1,1001,THRALE,z,,,,,,,,,,,,,,,,,,,,,,,,,,,,,,,,,,,,,,,,,,,,,,,,,,,,,,,,,,,,,,,
,,,,,,,,,,,,,,,,,60fded24de9d0e39caa58493,20,2022-02-12_13h43.56.610,lexical_decision_task_DD,2021.2.3,iPhone,58.82352941,,0,0.366326531,-0.305612245,1,0,0,0.607,button_right,0.607,1,0,6,6,3,1,1001,MATRIX,m,,,,,,,,,,,,,,,,,,,,,,,,,,,,,,,,,,,,,,,,,,,,,,,,,,,,,,,,,,,,,,,
,,,,,,,,,,,,,,,,,60fded24de9d0e39caa58493,20,2022-02-12_13h43.56.610,lexical_decision_task_DD,2021.2.3,iPhone,58.82352941,,0,-0.351020408,-0.294387755,1,0,0,0.608,button_left,0.608,1,0,7,7,12,1,1001,SPRINY,z,,,,,,,,,,,,,,,,,,,,,,,,,,,,,,,,,,,,,,,,,,,,,,,,,,,,,,,,,,,,,,,
,,,,,,,,,,,,,,,,,60fded24de9d0e39caa58493,20,2022-02-12_13h43.56.610,lexical_decision_task_DD,2021.2.3,iPhone,58.82352941,,0,0.383673469,-0.316836735,1,0,0,0.607,button_right,0.607,1,0,8,8,4,1,1001,SQUEAK,m,,,,,,,,,,,,,,,,,,,,,,,,,,,,,,,,,,,,,,,,,,,,,,,,,,,,,,,,,,,,,,,
,,,,,,,,,,,,,,,,,60fded24de9d0e39caa58493,20,2022-02-12_13h43.56.610,lexical_decision_task_DD,2021.2.3,iPhone,58.82352941,,0,0.374489796,-0.304591837,1,0,0,0.524,button_right,0.524,1,0,9,9,7,1,1001,VOLUME,m,,,,,,,,,,,,,,,,,,,,,,,,,,,,,,,,,,,,,,,,,,,,,,,,,,,,,,,,,,,,,,,
,,,,,,,,,,,,,,,,,60fded24de9d0e39caa58493,20,2022-02-12_13h43.56.610,lexical_decision_task_DD,2021.2.3,iPhone,58.82352941,,0,0.373469388,-0.312755102,1,0,0,0.441,button_right,0.441,1,0,10,10,2,1,1001,ALMOND,m,,,,,,,,,,,,,,,,,,,,,,,,,,,,,,,,,,,,,,,,,,,,,,,,,,,,,,,,,,,,,,,
,,,,,,,,,,,,,,,,,60fded24de9d0e39caa58493,20,2022-02-12_13h43.56.610,lexical_decision_task_DD,2021.2.3,iPhone,58.82352941,,0,-0.356122449,-0.285204082,1,0,0,0.858,button_left,0.858,1,0,11,11,11,1,1001,RASHET,z,,,,,,,,,,,,,,,,,,,,,,,,,,,,,,,,,,,,,,,,,,,,,,,,,,,,,,,,,,,,,,,
,,,,,,,,,,,,,,,,,60fded24de9d0e39caa58493,20,2022-02-12_13h43.56.610,lexical_decision_task_DD,2021.2.3,iPhone,58.82352941,,0,-0.343877551,-0.283163265,1,0,0,0.657,button_left,0.657,1,0,12,12,13,1,1001,ROUPET,z,,,,,,,,,,,,,,,,,,,,,,,,,,,,,,,,,,,,,,,,,,,,,,,,,,,,,,,,,,,,,,,
,,,,,,,,,,,,,,,,,60fded24de9d0e39caa58493,20,2022-02-12_13h43.56.610,lexical_decision_task_DD,2021.2.3,iPhone,58.82352941,,0,-0.352040816,-0.305612245,1,0,0,0.59,button_left,0.59,1,0,13,13,9,1,1001,FARINY,z,,,,,,,,,,,,,,,,,,,,,,,,,,,,,,,,,,,,,,,,,,,,,,,,,,,,,,,,,,,,,,,
,,,,,,,,,,,,,,,,,60fded24de9d0e39caa58493,20,2022-02-12_13h43.56.610,lexical_decision_task_DD,2021.2.3,iPhone,58.82352941,,0,0.387755102,-0.310714286,1,0,0,0.625,button_right,0.625,1,0,14,14,5,1,1001,OBTAIN,m,,,,,,,,,,,,,,,,,,,,,,,,,,,,,,,,,,,,,,,,,,,,,,,,,,,,,,,,,,,,,,,
,,,,,,,,,,,,,,,,,60fded24de9d0e39caa58493,20,2022-02-12_13h43.56.610,lexical_decision_task_DD,2021.2.3,iPhone,58.82352941,,0,0.378571429,-0.312755102,1,0,0,0.69,button_right,0.69,1,0,15,15,0,1,1001,UTOPIA,m,,,,,,,,,,,,,,,,,,,,,,,,,,,,,,,,,,,,,,,,,,,,,,,,,,,,,,,,,,,,,,,
,0.151020408,-0.409693878,1,0,0,instr_done_button,,,,,,1,end_of_practice,"You have completed the practice trials. During the experimental trials, you will not receive feedback. 
Before you begin, please ensure that you are in a comfortable and quiet location and will not be disturbed for about 15 minutes, as we cannot use your data if you do not complete all the trials. 
 When you are ready to start the experimental trials, please press space or touch the button below.",,,60fded24de9d0e39caa58493,20,2022-02-12_13h43.56.610,lexical_decision_task_DD,2021.2.3,iPhone,58.82352941,,,,,,,,,,,,,,,,,,,,0,0,0,0,1,,,,,,,,,,,,,,,,,,,,,,,,,,,,,,,,,,,,,,,,,,,,,,,,,,,,,,,,,,
,,,,,,,,,,,,,,,,,60fded24de9d0e39caa58493,20,2022-02-12_13h43.56.610,lexical_decision_task_DD,2021.2.3,iPhone,58.82352941,,,,,,,,,,1.489,1,,,,,,,,,,,,,,,0,-0.373469388,-0.300510204,1,0,0,1.489,button_left_main,-0.373469388,-0.300510204,1,0,0,,0,0,0,152,1,FRAIN,LB,old,z,./images/FRAINLB.png,,,,,,,,,,,,,,,,,,,,,,,,,,,,,,,,,
,,,,,,,,,,,,,,,,,60fded24de9d0e39caa58493,20,2022-02-12_13h43.56.610,lexical_decision_task_DD,2021.2.3,iPhone,58.82352941,,,,,,,,,,0.774,1,,,,,,,,,,,,,,,0,-0.353061224,-0.316836735,1,0,0,0.774,button_left_main,-0.353061224,-0.316836735,1,0,0,,0,1,1,92,1,PAIMS,LB,old,z,./images/PAIMSLB.png,,,,,,,,,,,,,,,,,,,,,,,,,,,,,,,,,
,,,,,,,,,,,,,,,,,60fded24de9d0e39caa58493,20,2022-02-12_13h43.56.610,lexical_decision_task_DD,2021.2.3,iPhone,58.82352941,,,,,,,,,,0.574,1,,,,,,,,,,,,,,,0,0.364285714,-0.309693878,1,0,0,0.574,button_right_main,0.364285714,-0.309693878,1,0,0,,0,2,2,78,1,LITTER,C,old,m,./images/LITTER.png,,,,,,,,,,,,,,,,,,,,,,,,,,,,,,,,,
,,,,,,,,,,,,,,,,,60fded24de9d0e39caa58493,20,2022-02-12_13h43.56.610,lexical_decision_task_DD,2021.2.3,iPhone,58.82352941,,,,,,,,,,0.61,1,,,,,,,,,,,,,,,0,-0.359183673,-0.304591837,1,0,0,0.61,button_left_main,-0.359183673,-0.304591837,1,0,0,,0,3,3,116,1,BALGY,LB,old,z,./images/BALGYLB.png,,,,,,,,,,,,,,,,,,,,,,,,,,,,,,,,,
,,,,,,,,,,,,,,,,,60fded24de9d0e39caa58493,20,2022-02-12_13h43.56.610,lexical_decision_task_DD,2021.2.3,iPhone,58.82352941,,,,,,,,,,0.509,0,,,,,,,,,,,,,,,0,0.38877551,-0.300510204,1,0,0,0.509,button_right_main,0.38877551,-0.300510204,1,0,0,,0,4,4,159,1,CUDDY,C,old,z,./images/CUDDY.png,,,,,,,,,,,,,,,,,,,,,,,,,,,,,,,,,
,,,,,,,,,,,,,,,,,60fded24de9d0e39caa58493,20,2022-02-12_13h43.56.610,lexical_decision_task_DD,2021.2.3,iPhone,58.82352941,,,,,,,,,,0.589,1,,,,,,,,,,,,,,,0,-0.351020408,-0.319897959,1,0,0,0.589,button_left_main,-0.351020408,-0.319897959,1,0,0,,0,5,5,111,1,HOSSE,C,old,z,./images/HOSSE.png,,,,,,,,,,,,,,,,,,,,,,,,,,,,,,,,,
,,,,,,,,,,,,,,,,,60fded24de9d0e39caa58493,20,2022-02-12_13h43.56.610,lexical_decision_task_DD,2021.2.3,iPhone,58.82352941,,,,,,,,,,0.54,1,,,,,,,,,,,,,,,0,-0.360204082,-0.308673469,1,0,0,0.54,button_left_main,-0.360204082,-0.308673469,1,0,0,,0,6,6,156,1,HIXES,C,old,z,./images/HIXES.png,,,,,,,,,,,,,,,,,,,,,,,,,,,,,,,,,
,,,,,,,,,,,,,,,,,60fded24de9d0e39caa58493,20,2022-02-12_13h43.56.610,lexical_decision_task_DD,2021.2.3,iPhone,58.82352941,,,,,,,,,,0.491,1,,,,,,,,,,,,,,,0,-0.342857143,-0.31377551,1,0,0,0.491,button_left_main,-0.342857143,-0.31377551,1,0,0,,0,7,7,165,1,TROWN,C,old,z,./images/TROWN.png,,,,,,,,,,,,,,,,,,,,,,,,,,,,,,,,,
,,,,,,,,,,,,,,,,,60fded24de9d0e39caa58493,20,2022-02-12_13h43.56.610,lexical_decision_task_DD,2021.2.3,iPhone,58.82352941,,,,,,,,,,0.773,1,,,,,,,,,,,,,,,0,0.375510204,-0.309693878,1,0,0,0.773,button_right_main,0.375510204,-0.309693878,1,0,0,,0,8,8,43,1,MOSQUE,HB,old,m,./images/MOSQUEHB.png,,,,,,,,,,,,,,,,,,,,,,,,,,,,,,,,,
,,,,,,,,,,,,,,,,,60fded24de9d0e39caa58493,20,2022-02-12_13h43.56.610,lexical_decision_task_DD,2021.2.3,iPhone,58.82352941,,,,,,,,,,0.825,1,,,,,,,,,,,,,,,0,-0.36122449,-0.312755102,1,0,0,0.825,button_left_main,-0.36122449,-0.312755102,1,0,0,,0,9,9,127,1,NINDY,HB,old,z,./images/NINDYHB.png,,,,,,,,,,,,,,,,,,,,,,,,,,,,,,,,,
,,,,,,,,,,,,,,,,,60fded24de9d0e39caa58493,20,2022-02-12_13h43.56.610,lexical_decision_task_DD,2021.2.3,iPhone,58.82352941,,,,,,,,,,0.591,1,,,,,,,,,,,,,,,0,0.367346939,-0.304591837,1,0,0,0.591,button_right_main,0.367346939,-0.304591837,1,0,0,,0,10,10,24,1,SCREW,C,old,m,./images/SCREW.png,,,,,,,,,,,,,,,,,,,,,,,,,,,,,,,,,
,,,,,,,,,,,,,,,,,60fded24de9d0e39caa58493,20,2022-02-12_13h43.56.610,lexical_decision_task_DD,2021.2.3,iPhone,58.82352941,,,,,,,,,,0.674,1,,,,,,,,,,,,,,,0,0.386734694,-0.307653061,1,0,0,0.674,button_right_main,0.386734694,-0.307653061,1,0,0,,0,11,11,4,1,MUSCLE,HB,old,m,./images/MUSCLEHB.png,,,,,,,,,,,,,,,,,,,,,,,,,,,,,,,,,
,,,,,,,,,,,,,,,,,60fded24de9d0e39caa58493,20,2022-02-12_13h43.56.610,lexical_decision_task_DD,2021.2.3,iPhone,58.82352941,,,,,,,,,,0.541,1,,,,,,,,,,,,,,,0,0.37244898,-0.309693878,1,0,0,0.541,button_right_main,0.37244898,-0.309693878,1,0,0,,0,12,12,59,1,BURIAL,LB,old,m,./images/BURIALLB.png,,,,,,,,,,,,,,,,,,,,,,,,,,,,,,,,,
,,,,,,,,,,,,,,,,,60fded24de9d0e39caa58493,20,2022-02-12_13h43.56.610,lexical_decision_task_DD,2021.2.3,iPhone,58.82352941,,,,,,,,,,0.541,1,,,,,,,,,,,,,,,0,0.381632653,-0.287244898,1,0,0,0.541,button_right_main,0.381632653,-0.287244898,1,0,0,,0,13,13,49,1,DRUMS,HB,old,m,./images/DRUMSHB.png,,,,,,,,,,,,,,,,,,,,,,,,,,,,,,,,,
,,,,,,,,,,,,,,,,,60fded24de9d0e39caa58493,20,2022-02-12_13h43.56.610,lexical_decision_task_DD,2021.2.3,iPhone,58.82352941,,,,,,,,,,0.608,1,,,,,,,,,,,,,,,0,0.379591837,-0.299489796,1,0,0,0.608,button_right_main,0.379591837,-0.299489796,1,0,0,,0,14,14,1,1,PLANK,HB,old,m,./images/PLANKHB.png,,,,,,,,,,,,,,,,,,,,,,,,,,,,,,,,,
,,,,,,,,,,,,,,,,,60fded24de9d0e39caa58493,20,2022-02-12_13h43.56.610,lexical_decision_task_DD,2021.2.3,iPhone,58.82352941,,,,,,,,,,0.79,0,,,,,,,,,,,,,,,0,0.37755102,-0.30255102,1,0,0,0.79,button_right_main,0.37755102,-0.30255102,1,0,0,,0,15,15,148,1,JOMS,HB,old,z,./images/JOMSHB.png,,,,,,,,,,,,,,,,,,,,,,,,,,,,,,,,,
,,,,,,,,,,,,,,,,,60fded24de9d0e39caa58493,20,2022-02-12_13h43.56.610,lexical_decision_task_DD,2021.2.3,iPhone,58.82352941,,,,,,,,,,0.507,1,,,,,,,,,,,,,,,0,0.373469388,-0.299489796,1,0,0,0.507,button_right_main,0.373469388,-0.299489796,1,0,0,,0,16,16,6,1,SQUARE,C,old,m,./images/SQUARE.png,,,,,,,,,,,,,,,,,,,,,,,,,,,,,,,,,
,,,,,,,,,,,,,,,,,60fded24de9d0e39caa58493,20,2022-02-12_13h43.56.610,lexical_decision_task_DD,2021.2.3,iPhone,58.82352941,,,,,,,,,,0.926,1,,,,,,,,,,,,,,,0,-0.357142857,-0.298469388,1,0,0,0.926,button_left_main,-0.357142857,-0.298469388,1,0,0,,0,17,17,110,1,CRUNK,LB,old,z,./images/CRUNKLB.png,,,,,,,,,,,,,,,,,,,,,,,,,,,,,,,,,
,,,,,,,,,,,,,,,,,60fded24de9d0e39caa58493,20,2022-02-12_13h43.56.610,lexical_decision_task_DD,2021.2.3,iPhone,58.82352941,,,,,,,,,,0.774,1,,,,,,,,,,,,,,,0,-0.357142857,-0.312755102,1,0,0,0.774,button_left_main,-0.357142857,-0.312755102,1,0,0,,0,18,18,88,1,GLUSH,HB,old,z,./images/GLUSHHB.png,,,,,,,,,,,,,,,,,,,,,,,,,,,,,,,,,
,,,,,,,,,,,,,,,,,60fded24de9d0e39caa58493,20,2022-02-12_13h43.56.610,lexical_decision_task_DD,2021.2.3,iPhone,58.82352941,,,,,,,,,,0.525,1,,,,,,,,,,,,,,,0,0.367346939,-0.30255102,1,0,0,0.525,button_right_main,0.367346939,-0.30255102,1,0,0,,0,19,19,42,1,FOLDER,C,old,m,./images/FOLDER.png,,,,,,,,,,,,,,,,,,,,,,,,,,,,,,,,,
,,,,,,,,,,,,,,,,,60fded24de9d0e39caa58493,20,2022-02-12_13h43.56.610,lexical_decision_task_DD,2021.2.3,iPhone,58.82352941,,,,,,,,,,0.707,1,,,,,,,,,,,,,,,0,-0.358163265,-0.325,1,0,0,0.707,button_left_main,-0.358163265,-0.325,1,0,0,,0,20,20,167,1,ZONET,LB,old,z,./images/ZONETLB.png,,,,,,,,,,,,,,,,,,,,,,,,,,,,,,,,,
,,,,,,,,,,,,,,,,,60fded24de9d0e39caa58493,20,2022-02-12_13h43.56.610,lexical_decision_task_DD,2021.2.3,iPhone,58.82352941,,,,,,,,,,0.706,1,,,,,,,,,,,,,,,0,0.374489796,-0.31377551,1,0,0,0.706,button_right_main,0.374489796,-0.31377551,1,0,0,,0,21,21,61,1,CANDLE,HB,old,m,./images/CANDLEHB.png,,,,,,,,,,,,,,,,,,,,,,,,,,,,,,,,,
,,,,,,,,,,,,,,,,,60fded24de9d0e39caa58493,20,2022-02-12_13h43.56.610,lexical_decision_task_DD,2021.2.3,iPhone,58.82352941,,,,,,,,,,0.607,1,,,,,,,,,,,,,,,0,-0.35,-0.319897959,1,0,0,0.607,button_left_main,-0.35,-0.319897959,1,0,0,,0,22,22,161,1,BLAPS,LB,old,z,./images/BLAPSLB.png,,,,,,,,,,,,,,,,,,,,,,,,,,,,,,,,,
,,,,,,,,,,,,,,,,,60fded24de9d0e39caa58493,20,2022-02-12_13h43.56.610,lexical_decision_task_DD,2021.2.3,iPhone,58.82352941,,,,,,,,,,0.575,1,,,,,,,,,,,,,,,0,0.375510204,-0.309693878,1,0,0,0.575,button_right_main,0.375510204,-0.309693878,1,0,0,,0,23,23,82,1,SUNSET,HB,old,m,./images/SUNSETHB.png,,,,,,,,,,,,,,,,,,,,,,,,,,,,,,,,,
,,,,,,,,,,,,,,,,,60fded24de9d0e39caa58493,20,2022-02-12_13h43.56.610,lexical_decision_task_DD,2021.2.3,iPhone,58.82352941,,,,,,,,,,0.724,1,,,,,,,,,,,,,,,0,-0.358163265,-0.332142857,1,0,0,0.724,button_left_main,-0.358163265,-0.332142857,1,0,0,,0,24,24,93,1,SMONE,C,old,z,./images/SMONE.png,,,,,,,,,,,,,,,,,,,,,,,,,,,,,,,,,
,,,,,,,,,,,,,,,,,60fded24de9d0e39caa58493,20,2022-02-12_13h43.56.610,lexical_decision_task_DD,2021.2.3,iPhone,58.82352941,,,,,,,,,,0.607,1,,,,,,,,,,,,,,,0,0.389795918,-0.301530612,1,0,0,0.607,button_right_main,0.389795918,-0.301530612,1,0,0,,0,25,25,0,1,TOMATO,C,old,m,./images/TOMATO.png,,,,,,,,,,,,,,,,,,,,,,,,,,,,,,,,,
,,,,,,,,,,,,,,,,,60fded24de9d0e39caa58493,20,2022-02-12_13h43.56.610,lexical_decision_task_DD,2021.2.3,iPhone,58.82352941,,,,,,,,,,0.574,1,,,,,,,,,,,,,,,0,-0.355102041,-0.319897959,1,0,0,0.574,button_left_main,-0.355102041,-0.319897959,1,0,0,,0,26,26,115,1,MAWNS,HB,old,z,./images/MAWNSHB.png,,,,,,,,,,,,,,,,,,,,,,,,,,,,,,,,,
,,,,,,,,,,,,,,,,,60fded24de9d0e39caa58493,20,2022-02-12_13h43.56.610,lexical_decision_task_DD,2021.2.3,iPhone,58.82352941,,,,,,,,,,0.657,1,,,,,,,,,,,,,,,0,-0.362244898,-0.320918367,1,0,0,0.657,button_left_main,-0.362244898,-0.320918367,1,0,0,,0,27,27,141,1,PLEET,C,old,z,./images/PLEET.png,,,,,,,,,,,,,,,,,,,,,,,,,,,,,,,,,
,,,,,,,,,,,,,,,,,60fded24de9d0e39caa58493,20,2022-02-12_13h43.56.610,lexical_decision_task_DD,2021.2.3,iPhone,58.82352941,,,,,,,,,,0.573,0,,,,,,,,,,,,,,,0,0.383673469,-0.294387755,1,0,0,0.573,button_right_main,0.383673469,-0.294387755,1,0,0,,0,28,28,137,1,JOOST,LB,old,z,./images/JOOSTLB.png,,,,,,,,,,,,,,,,,,,,,,,,,,,,,,,,,
,,,,,,,,,,,,,,,,,60fded24de9d0e39caa58493,20,2022-02-12_13h43.56.610,lexical_decision_task_DD,2021.2.3,iPhone,58.82352941,,,,,,,,,,0.691,1,,,,,,,,,,,,,,,0,-0.351020408,-0.327040816,1,0,0,0.691,button_left_main,-0.351020408,-0.327040816,1,0,0,,0,29,29,98,1,BAMPS,LB,old,z,./images/BAMPSLB.png,,,,,,,,,,,,,,,,,,,,,,,,,,,,,,,,,
,,,,,,,,,,,,,,,,,60fded24de9d0e39caa58493,20,2022-02-12_13h43.56.610,lexical_decision_task_DD,2021.2.3,iPhone,58.82352941,,,,,,,,,,0.722,1,,,,,,,,,,,,,,,0,0.37244898,-0.289285714,1,0,0,0.722,button_right_main,0.37244898,-0.289285714,1,0,0,,0,30,30,79,1,CRUST,HB,old,m,./images/CRUSTHB.png,,,,,,,,,,,,,,,,,,,,,,,,,,,,,,,,,
,,,,,,,,,,,,,,,,,60fded24de9d0e39caa58493,20,2022-02-12_13h43.56.610,lexical_decision_task_DD,2021.2.3,iPhone,58.82352941,,,,,,,,,,0.574,1,,,,,,,,,,,,,,,0,-0.357142857,-0.317857143,1,0,0,0.574,button_left_main,-0.357142857,-0.317857143,1,0,0,,0,31,31,97,1,CHIDS,HB,old,z,./images/CHIDSHB.png,,,,,,,,,,,,,,,,,,,,,,,,,,,,,,,,,
,,,,,,,,,,,,,,,,,60fded24de9d0e39caa58493,20,2022-02-12_13h43.56.610,lexical_decision_task_DD,2021.2.3,iPhone,58.82352941,,,,,,,,,,0.575,1,,,,,,,,,,,,,,,0,0.37755102,-0.296428571,1,0,0,0.575,button_right_main,0.37755102,-0.296428571,1,0,0,,0,32,32,29,1,CRUMB,LB,old,m,./images/CRUMBLB.png,,,,,,,,,,,,,,,,,,,,,,,,,,,,,,,,,
,,,,,,,,,,,,,,,,,60fded24de9d0e39caa58493,20,2022-02-12_13h43.56.610,lexical_decision_task_DD,2021.2.3,iPhone,58.82352941,,,,,,,,,,0.592,1,,,,,,,,,,,,,,,0,0.380612245,-0.294387755,1,0,0,0.592,button_right_main,0.380612245,-0.294387755,1,0,0,,0,33,33,26,1,SMOKER,LB,old,m,./images/SMOKERLB.png,,,,,,,,,,,,,,,,,,,,,,,,,,,,,,,,,
,,,,,,,,,,,,,,,,,60fded24de9d0e39caa58493,20,2022-02-12_13h43.56.610,lexical_decision_task_DD,2021.2.3,iPhone,58.82352941,,,,,,,,,,0.524,1,,,,,,,,,,,,,,,0,-0.364285714,-0.318877551,1,0,0,0.524,button_left_main,-0.364285714,-0.318877551,1,0,0,,0,34,34,108,1,GRUET,C,old,z,./images/GRUET.png,,,,,,,,,,,,,,,,,,,,,,,,,,,,,,,,,
,,,,,,,,,,,,,,,,,60fded24de9d0e39caa58493,20,2022-02-12_13h43.56.610,lexical_decision_task_DD,2021.2.3,iPhone,58.82352941,,,,,,,,,,0.49,1,,,,,,,,,,,,,,,0,-0.358163265,-0.327040816,1,0,0,0.49,button_left_main,-0.358163265,-0.327040816,1,0,0,,0,35,35,102,1,DULLE,C,old,z,./images/DULLE.png,,,,,,,,,,,,,,,,,,,,,,,,,,,,,,,,,
,,,,,,,,,,,,,,,,,60fded24de9d0e39caa58493,20,2022-02-12_13h43.56.610,lexical_decision_task_DD,2021.2.3,iPhone,58.82352941,,,,,,,,,,0.726,1,,,,,,,,,,,,,,,0,-0.358163265,-0.329081633,1,0,0,0.726,button_left_main,-0.358163265,-0.329081633,1,0,0,,0,36,36,133,1,POWDY,HB,old,z,./images/POWDYHB.png,,,,,,,,,,,,,,,,,,,,,,,,,,,,,,,,,
,,,,,,,,,,,,,,,,,60fded24de9d0e39caa58493,20,2022-02-12_13h43.56.610,lexical_decision_task_DD,2021.2.3,iPhone,58.82352941,,,,,,,,,,0.739,1,,,,,,,,,,,,,,,0,-0.36122449,-0.335204082,1,0,0,0.739,button_left_main,-0.36122449,-0.335204082,1,0,0,,0,37,37,139,1,BLEAR,HB,old,z,./images/BLEARHB.png,,,,,,,,,,,,,,,,,,,,,,,,,,,,,,,,,
,,,,,,,,,,,,,,,,,60fded24de9d0e39caa58493,20,2022-02-12_13h43.56.610,lexical_decision_task_DD,2021.2.3,iPhone,58.82352941,,,,,,,,,,0.592,1,,,,,,,,,,,,,,,0,0.378571429,-0.29744898,1,0,0,0.592,button_right_main,0.378571429,-0.29744898,1,0,0,,0,38,38,12,1,SHORE,C,old,m,./images/SHORE.png,,,,,,,,,,,,,,,,,,,,,,,,,,,,,,,,,
,,,,,,,,,,,,,,,,,60fded24de9d0e39caa58493,20,2022-02-12_13h43.56.610,lexical_decision_task_DD,2021.2.3,iPhone,58.82352941,,,,,,,,,,0.504,1,,,,,,,,,,,,,,,0,0.379591837,-0.299489796,1,0,0,0.504,button_right_main,0.379591837,-0.299489796,1,0,0,,0,39,39,55,1,MUFFIN,HB,old,m,./images/MUFFINHB.png,,,,,,,,,,,,,,,,,,,,,,,,,,,,,,,,,
,,,,,,,,,,,,,,,,,60fded24de9d0e39caa58493,20,2022-02-12_13h43.56.610,lexical_decision_task_DD,2021.2.3,iPhone,58.82352941,,,,,,,,,,0.506,1,,,,,,,,,,,,,,,0,-0.356122449,-0.332142857,1,0,0,0.506,button_left_main,-0.356122449,-0.332142857,1,0,0,,0,40,40,149,1,VEASE,LB,old,z,./images/VEASELB.png,,,,,,,,,,,,,,,,,,,,,,,,,,,,,,,,,
,,,,,,,,,,,,,,,,,60fded24de9d0e39caa58493,20,2022-02-12_13h43.56.610,lexical_decision_task_DD,2021.2.3,iPhone,58.82352941,,,,,,,,,,0.525,1,,,,,,,,,,,,,,,0,0.383673469,-0.301530612,1,0,0,0.525,button_right_main,0.083673469,-0.412755102,1,0,0,,0,41,41,39,1,SHELF,C,old,m,./images/SHELF.png,break_done_button,,,,,,,,,,,,,,,,,,,,,,,,,,,,,,,,
,,,,,,,,,,,,,,,,,60fded24de9d0e39caa58493,20,2022-02-12_13h43.56.610,lexical_decision_task_DD,2021.2.3,iPhone,58.82352941,,,,,,,,,,0.607,1,,,,,,,,,,,,,,,0,0.351020408,-0.317857143,1,0,0,0.607,button_right_main,0.351020408,-0.317857143,1,0,0,,0,42,42,22,1,MELON,HB,old,m,./images/MELONHB.png,,,,,,,,,,,,,,,,,,,,,,,,,,,,,,,,,
,,,,,,,,,,,,,,,,,60fded24de9d0e39caa58493,20,2022-02-12_13h43.56.610,lexical_decision_task_DD,2021.2.3,iPhone,58.82352941,,,,,,,,,,0.741,1,,,,,,,,,,,,,,,0,-0.359183673,-0.325,1,0,0,0.741,button_left_main,-0.359183673,-0.325,1,0,0,,0,43,43,142,1,PLASK,HB,old,z,./images/PLASKHB.png,,,,,,,,,,,,,,,,,,,,,,,,,,,,,,,,,
,,,,,,,,,,,,,,,,,60fded24de9d0e39caa58493,20,2022-02-12_13h43.56.610,lexical_decision_task_DD,2021.2.3,iPhone,58.82352941,,,,,,,,,,0.558,1,,,,,,,,,,,,,,,0,0.35,-0.337244898,1,0,0,0.558,button_right_main,0.35,-0.337244898,1,0,0,,0,44,44,68,1,TORCH,LB,old,m,./images/TORCHLB.png,,,,,,,,,,,,,,,,,,,,,,,,,,,,,,,,,
,,,,,,,,,,,,,,,,,60fded24de9d0e39caa58493,20,2022-02-12_13h43.56.610,lexical_decision_task_DD,2021.2.3,iPhone,58.82352941,,,,,,,,,,0.605,1,,,,,,,,,,,,,,,0,0.357142857,-0.321938776,1,0,0,0.605,button_right_main,0.357142857,-0.321938776,1,0,0,,0,45,45,57,1,MOOSE,C,old,m,./images/MOOSE.png,,,,,,,,,,,,,,,,,,,,,,,,,,,,,,,,,
,,,,,,,,,,,,,,,,,60fded24de9d0e39caa58493,20,2022-02-12_13h43.56.610,lexical_decision_task_DD,2021.2.3,iPhone,58.82352941,,,,,,,,,,0.608,1,,,,,,,,,,,,,,,0,-0.358163265,-0.316836735,1,0,0,0.608,button_left_main,-0.358163265,-0.316836735,1,0,0,,0,46,46,87,1,TRING,C,old,z,./images/TRING.png,,,,,,,,,,,,,,,,,,,,,,,,,,,,,,,,,
,,,,,,,,,,,,,,,,,60fded24de9d0e39caa58493,20,2022-02-12_13h43.56.610,lexical_decision_task_DD,2021.2.3,iPhone,58.82352941,,,,,,,,,,0.507,1,,,,,,,,,,,,,,,0,0.353061224,-0.322959184,1,0,0,0.507,button_right_main,0.353061224,-0.322959184,1,0,0,,0,47,47,15,1,GREASE,C,old,m,./images/GREASE.png,,,,,,,,,,,,,,,,,,,,,,,,,,,,,,,,,
,,,,,,,,,,,,,,,,,60fded24de9d0e39caa58493,20,2022-02-12_13h43.56.610,lexical_decision_task_DD,2021.2.3,iPhone,58.82352941,,,,,,,,,,0.556,1,,,,,,,,,,,,,,,0,0.364285714,-0.346428571,1,0,0,0.556,button_right_main,0.364285714,-0.346428571,1,0,0,,0,48,48,62,1,PURSE,LB,old,m,./images/PURSELB.png,,,,,,,,,,,,,,,,,,,,,,,,,,,,,,,,,
,,,,,,,,,,,,,,,,,60fded24de9d0e39caa58493,20,2022-02-12_13h43.56.610,lexical_decision_task_DD,2021.2.3,iPhone,58.82352941,,,,,,,,,,0.642,1,,,,,,,,,,,,,,,0,-0.36122449,-0.335204082,1,0,0,0.642,button_left_main,-0.36122449,-0.335204082,1,0,0,,0,49,49,112,1,MYING,HB,old,z,./images/MYINGHB.png,,,,,,,,,,,,,,,,,,,,,,,,,,,,,,,,,
,,,,,,,,,,,,,,,,,60fded24de9d0e39caa58493,20,2022-02-12_13h43.56.610,lexical_decision_task_DD,2021.2.3,iPhone,58.82352941,,,,,,,,,,0.706,1,,,,,,,,,,,,,,,0,-0.358163265,-0.31377551,1,0,0,0.706,button_left_main,-0.358163265,-0.31377551,1,0,0,,0,50,50,105,1,MOKER,C,old,z,./images/MOKER.png,,,,,,,,,,,,,,,,,,,,,,,,,,,,,,,,,
,,,,,,,,,,,,,,,,,60fded24de9d0e39caa58493,20,2022-02-12_13h43.56.610,lexical_decision_task_DD,2021.2.3,iPhone,58.82352941,,,,,,,,,,0.523,1,,,,,,,,,,,,,,,0,-0.374489796,-0.31377551,1,0,0,0.523,button_left_main,-0.374489796,-0.31377551,1,0,0,,0,51,51,135,1,JOODY,C,old,z,./images/JOODY.png,,,,,,,,,,,,,,,,,,,,,,,,,,,,,,,,,
,,,,,,,,,,,,,,,,,60fded24de9d0e39caa58493,20,2022-02-12_13h43.56.610,lexical_decision_task_DD,2021.2.3,iPhone,58.82352941,,,,,,,,,,0.774,1,,,,,,,,,,,,,,,0,-0.378571429,-0.325,1,0,0,0.774,button_left_main,-0.378571429,-0.325,1,0,0,,0,52,52,151,1,TINKY,HB,old,z,./images/TINKYHB.png,,,,,,,,,,,,,,,,,,,,,,,,,,,,,,,,,
,,,,,,,,,,,,,,,,,60fded24de9d0e39caa58493,20,2022-02-12_13h43.56.610,lexical_decision_task_DD,2021.2.3,iPhone,58.82352941,,,,,,,,,,1.526,1,,,,,,,,,,,,,,,0,-0.366326531,-0.316836735,1,0,0,1.526,button_left_main,-0.366326531,-0.316836735,1,0,0,,0,53,53,100,1,DRIBS,HB,old,z,./images/DRIBSHB.png,,,,,,,,,,,,,,,,,,,,,,,,,,,,,,,,,
,,,,,,,,,,,,,,,,,60fded24de9d0e39caa58493,20,2022-02-12_13h43.56.610,lexical_decision_task_DD,2021.2.3,iPhone,58.82352941,,,,,,,,,,1.125,1,,,,,,,,,,,,,,,0,0.366326531,-0.326020408,1,0,0,1.125,button_right_main,0.366326531,-0.326020408,1,0,0,,0,54,54,19,1,DOUGH,HB,old,m,./images/DOUGHHB.png,,,,,,,,,,,,,,,,,,,,,,,,,,,,,,,,,
,,,,,,,,,,,,,,,,,60fded24de9d0e39caa58493,20,2022-02-12_13h43.56.610,lexical_decision_task_DD,2021.2.3,iPhone,58.82352941,,,,,,,,,,0.558,1,,,,,,,,,,,,,,,0,-0.358163265,-0.362755102,1,0,0,0.558,button_left_main,-0.358163265,-0.362755102,1,0,0,,0,55,55,140,1,DOVET,LB,old,z,./images/DOVETLB.png,,,,,,,,,,,,,,,,,,,,,,,,,,,,,,,,,
,,,,,,,,,,,,,,,,,60fded24de9d0e39caa58493,20,2022-02-12_13h43.56.610,lexical_decision_task_DD,2021.2.3,iPhone,58.82352941,,,,,,,,,,0.49,1,,,,,,,,,,,,,,,0,-0.365306122,-0.323979592,1,0,0,0.49,button_left_main,-0.365306122,-0.323979592,1,0,0,,0,56,56,155,1,CANGY,LB,old,z,./images/CANGYLB.png,,,,,,,,,,,,,,,,,,,,,,,,,,,,,,,,,
,,,,,,,,,,,,,,,,,60fded24de9d0e39caa58493,20,2022-02-12_13h43.56.610,lexical_decision_task_DD,2021.2.3,iPhone,58.82352941,,,,,,,,,,0.622,1,,,,,,,,,,,,,,,0,0.392857143,-0.320918367,1,0,0,0.622,button_right_main,0.392857143,-0.320918367,1,0,0,,0,57,57,77,1,COUCH,LB,old,m,./images/COUCHLB.png,,,,,,,,,,,,,,,,,,,,,,,,,,,,,,,,,
,,,,,,,,,,,,,,,,,60fded24de9d0e39caa58493,20,2022-02-12_13h43.56.610,lexical_decision_task_DD,2021.2.3,iPhone,58.82352941,,,,,,,,,,0.542,1,,,,,,,,,,,,,,,0,-0.371428571,-0.331122449,1,0,0,0.542,button_left_main,-0.371428571,-0.331122449,1,0,0,,0,58,58,143,1,MONGS,LB,old,z,./images/MONGSLB.png,,,,,,,,,,,,,,,,,,,,,,,,,,,,,,,,,
,,,,,,,,,,,,,,,,,60fded24de9d0e39caa58493,20,2022-02-12_13h43.56.610,lexical_decision_task_DD,2021.2.3,iPhone,58.82352941,,,,,,,,,,0.691,1,,,,,,,,,,,,,,,0,-0.369387755,-0.310714286,1,0,0,0.691,button_left_main,-0.369387755,-0.310714286,1,0,0,,0,59,59,125,1,MOOKY,LB,old,z,./images/MOOKYLB.png,,,,,,,,,,,,,,,,,,,,,,,,,,,,,,,,,
,,,,,,,,,,,,,,,,,60fded24de9d0e39caa58493,20,2022-02-12_13h43.56.610,lexical_decision_task_DD,2021.2.3,iPhone,58.82352941,,,,,,,,,,0.558,1,,,,,,,,,,,,,,,0,0.394897959,-0.299489796,1,0,0,0.558,button_right_main,0.394897959,-0.299489796,1,0,0,,0,60,60,33,1,MAGGOT,C,old,m,./images/MAGGOT.png,,,,,,,,,,,,,,,,,,,,,,,,,,,,,,,,,
,,,,,,,,,,,,,,,,,60fded24de9d0e39caa58493,20,2022-02-12_13h43.56.610,lexical_decision_task_DD,2021.2.3,iPhone,58.82352941,,,,,,,,,,0.521,1,,,,,,,,,,,,,,,0,0.38877551,-0.309693878,1,0,0,0.521,button_right_main,0.38877551,-0.309693878,1,0,0,,0,61,61,30,1,STORM,C,old,m,./images/STORM.png,,,,,,,,,,,,,,,,,,,,,,,,,,,,,,,,,
,,,,,,,,,,,,,,,,,60fded24de9d0e39caa58493,20,2022-02-12_13h43.56.610,lexical_decision_task_DD,2021.2.3,iPhone,58.82352941,,,,,,,,,,0.608,1,,,,,,,,,,,,,,,0,0.386734694,-0.289285714,1,0,0,0.608,button_right_main,0.386734694,-0.289285714,1,0,0,,0,62,62,2,1,BEARD,LB,old,m,./images/BEARDLB.png,,,,,,,,,,,,,,,,,,,,,,,,,,,,,,,,,
,,,,,,,,,,,,,,,,,60fded24de9d0e39caa58493,20,2022-02-12_13h43.56.610,lexical_decision_task_DD,2021.2.3,iPhone,58.82352941,,,,,,,,,,0.538,1,,,,,,,,,,,,,,,0,-0.36122449,-0.330102041,1,0,0,0.538,button_left_main,-0.36122449,-0.330102041,1,0,0,,0,63,63,153,1,CLUPS,C,old,z,./images/CLUPS.png,,,,,,,,,,,,,,,,,,,,,,,,,,,,,,,,,
,,,,,,,,,,,,,,,,,60fded24de9d0e39caa58493,20,2022-02-12_13h43.56.610,lexical_decision_task_DD,2021.2.3,iPhone,58.82352941,,,,,,,,,,0.507,1,,,,,,,,,,,,,,,0,-0.36122449,-0.334183673,1,0,0,0.507,button_left_main,-0.36122449,-0.334183673,1,0,0,,0,64,64,95,1,HANTY,LB,old,z,./images/HANTYLB.png,,,,,,,,,,,,,,,,,,,,,,,,,,,,,,,,,
,,,,,,,,,,,,,,,,,60fded24de9d0e39caa58493,20,2022-02-12_13h43.56.610,lexical_decision_task_DD,2021.2.3,iPhone,58.82352941,,,,,,,,,,0.625,1,,,,,,,,,,,,,,,0,0.401020408,-0.309693878,1,0,0,0.625,button_right_main,0.401020408,-0.309693878,1,0,0,,0,65,65,64,1,JELLY,HB,old,m,./images/JELLYHB.png,,,,,,,,,,,,,,,,,,,,,,,,,,,,,,,,,
,,,,,,,,,,,,,,,,,60fded24de9d0e39caa58493,20,2022-02-12_13h43.56.610,lexical_decision_task_DD,2021.2.3,iPhone,58.82352941,,,,,,,,,,0.59,1,,,,,,,,,,,,,,,0,0.398979592,-0.291326531,1,0,0,0.59,button_right_main,0.398979592,-0.291326531,1,0,0,,0,66,66,70,1,URINE,HB,old,m,./images/URINEHB.png,,,,,,,,,,,,,,,,,,,,,,,,,,,,,,,,,
,,,,,,,,,,,,,,,,,60fded24de9d0e39caa58493,20,2022-02-12_13h43.56.610,lexical_decision_task_DD,2021.2.3,iPhone,58.82352941,,,,,,,,,,0.542,0,,,,,,,,,,,,,,,0,-0.36122449,-0.331122449,1,0,0,0.542,button_left_main,-0.36122449,-0.331122449,1,0,0,,0,67,67,72,1,NOOSE,C,old,m,./images/NOOSE.png,,,,,,,,,,,,,,,,,,,,,,,,,,,,,,,,,
,,,,,,,,,,,,,,,,,60fded24de9d0e39caa58493,20,2022-02-12_13h43.56.610,lexical_decision_task_DD,2021.2.3,iPhone,58.82352941,,,,,,,,,,0.691,1,,,,,,,,,,,,,,,0,0.38877551,-0.316836735,1,0,0,0.691,button_right_main,0.38877551,-0.316836735,1,0,0,,0,68,68,31,1,QUILL,HB,old,m,./images/QUILLHB.png,,,,,,,,,,,,,,,,,,,,,,,,,,,,,,,,,
,,,,,,,,,,,,,,,,,60fded24de9d0e39caa58493,20,2022-02-12_13h43.56.610,lexical_decision_task_DD,2021.2.3,iPhone,58.82352941,,,,,,,,,,0.658,1,,,,,,,,,,,,,,,0,-0.374489796,-0.330102041,1,0,0,0.658,button_left_main,-0.374489796,-0.330102041,1,0,0,,0,69,69,117,1,STEEG,C,old,z,./images/STEEG.png,,,,,,,,,,,,,,,,,,,,,,,,,,,,,,,,,
,,,,,,,,,,,,,,,,,60fded24de9d0e39caa58493,20,2022-02-12_13h43.56.610,lexical_decision_task_DD,2021.2.3,iPhone,58.82352941,,,,,,,,,,0.624,1,,,,,,,,,,,,,,,0,-0.369387755,-0.328061224,1,0,0,0.624,button_left_main,-0.369387755,-0.328061224,1,0,0,,0,70,70,101,1,GLEET,LB,old,z,./images/GLEETLB.png,,,,,,,,,,,,,,,,,,,,,,,,,,,,,,,,,
,,,,,,,,,,,,,,,,,60fded24de9d0e39caa58493,20,2022-02-12_13h43.56.610,lexical_decision_task_DD,2021.2.3,iPhone,58.82352941,,,,,,,,,,0.592,1,,,,,,,,,,,,,,,0,-0.369387755,-0.325,1,0,0,0.592,button_left_main,-0.369387755,-0.325,1,0,0,,0,71,71,114,1,RIKES,C,old,z,./images/RIKES.png,,,,,,,,,,,,,,,,,,,,,,,,,,,,,,,,,
,,,,,,,,,,,,,,,,,60fded24de9d0e39caa58493,20,2022-02-12_13h43.56.610,lexical_decision_task_DD,2021.2.3,iPhone,58.82352941,,,,,,,,,,0.585,1,,,,,,,,,,,,,,,0,-0.37244898,-0.314795918,1,0,0,0.585,button_left_main,-0.37244898,-0.314795918,1,0,0,,0,72,72,158,1,EGECT,LB,old,z,./images/EGECTLB.png,,,,,,,,,,,,,,,,,,,,,,,,,,,,,,,,,
,,,,,,,,,,,,,,,,,60fded24de9d0e39caa58493,20,2022-02-12_13h43.56.610,lexical_decision_task_DD,2021.2.3,iPhone,58.82352941,,,,,,,,,,0.723,1,,,,,,,,,,,,,,,0,-0.364285714,-0.315816327,1,0,0,0.723,button_left_main,-0.364285714,-0.315816327,1,0,0,,0,73,73,94,1,BLANS,HB,old,z,./images/BLANSHB.png,,,,,,,,,,,,,,,,,,,,,,,,,,,,,,,,,
,,,,,,,,,,,,,,,,,60fded24de9d0e39caa58493,20,2022-02-12_13h43.56.610,lexical_decision_task_DD,2021.2.3,iPhone,58.82352941,,,,,,,,,,0.841,0,,,,,,,,,,,,,,,0,0.390816327,-0.31377551,1,0,0,0.841,button_right_main,0.390816327,-0.31377551,1,0,0,,0,74,74,166,1,SHORY,HB,old,z,./images/SHORYHB.png,,,,,,,,,,,,,,,,,,,,,,,,,,,,,,,,,
,,,,,,,,,,,,,,,,,60fded24de9d0e39caa58493,20,2022-02-12_13h43.56.610,lexical_decision_task_DD,2021.2.3,iPhone,58.82352941,,,,,,,,,,0.525,1,,,,,,,,,,,,,,,0,0.395918367,-0.311734694,1,0,0,0.525,button_right_main,0.395918367,-0.311734694,1,0,0,,0,75,75,10,1,BELLY,HB,old,m,./images/BELLYHB.png,,,,,,,,,,,,,,,,,,,,,,,,,,,,,,,,,
,,,,,,,,,,,,,,,,,60fded24de9d0e39caa58493,20,2022-02-12_13h43.56.610,lexical_decision_task_DD,2021.2.3,iPhone,58.82352941,,,,,,,,,,0.855,0,,,,,,,,,,,,,,,0,-0.363265306,-0.321938776,1,0,0,0.855,button_left_main,-0.363265306,-0.321938776,1,0,0,,0,76,76,67,1,SAILOR,HB,old,m,./images/SAILORHB.png,,,,,,,,,,,,,,,,,,,,,,,,,,,,,,,,,
,,,,,,,,,,,,,,,,,60fded24de9d0e39caa58493,20,2022-02-12_13h43.56.610,lexical_decision_task_DD,2021.2.3,iPhone,58.82352941,,,,,,,,,,0.742,1,,,,,,,,,,,,,,,0,-0.371428571,-0.331122449,1,0,0,0.742,button_left_main,-0.371428571,-0.331122449,1,0,0,,0,77,77,123,1,SEDGE,C,old,z,./images/SEDGE.png,,,,,,,,,,,,,,,,,,,,,,,,,,,,,,,,,
,,,,,,,,,,,,,,,,,60fded24de9d0e39caa58493,20,2022-02-12_13h43.56.610,lexical_decision_task_DD,2021.2.3,iPhone,58.82352941,,,,,,,,,,0.54,1,,,,,,,,,,,,,,,0,0.401020408,-0.311734694,1,0,0,0.54,button_right_main,0.401020408,-0.311734694,1,0,0,,0,78,78,60,1,TWINS,C,old,m,./images/TWINS.png,,,,,,,,,,,,,,,,,,,,,,,,,,,,,,,,,
,,,,,,,,,,,,,,,,,60fded24de9d0e39caa58493,20,2022-02-12_13h43.56.610,lexical_decision_task_DD,2021.2.3,iPhone,58.82352941,,,,,,,,,,0.572,1,,,,,,,,,,,,,,,0,0.402040816,-0.301530612,1,0,0,0.572,button_right_main,0.402040816,-0.301530612,1,0,0,,0,79,79,32,1,BARREL,LB,old,m,./images/BARRELLB.png,,,,,,,,,,,,,,,,,,,,,,,,,,,,,,,,,
,,,,,,,,,,,,,,,,,60fded24de9d0e39caa58493,20,2022-02-12_13h43.56.610,lexical_decision_task_DD,2021.2.3,iPhone,58.82352941,,,,,,,,,,0.442,1,,,,,,,,,,,,,,,0,0.4,-0.309693878,1,0,0,0.442,button_right_main,0.4,-0.309693878,1,0,0,,0,80,80,5,1,PASTA,LB,old,m,./images/PASTALB.png,,,,,,,,,,,,,,,,,,,,,,,,,,,,,,,,,
,,,,,,,,,,,,,,,,,60fded24de9d0e39caa58493,20,2022-02-12_13h43.56.610,lexical_decision_task_DD,2021.2.3,iPhone,58.82352941,,,,,,,,,,0.541,1,,,,,,,,,,,,,,,0,0.395918367,-0.304591837,1,0,0,0.541,button_right_main,0.395918367,-0.304591837,1,0,0,,0,81,81,13,1,MOTOR,HB,old,m,./images/MOTORHB.png,,,,,,,,,,,,,,,,,,,,,,,,,,,,,,,,,
,,,,,,,,,,,,,,,,,60fded24de9d0e39caa58493,20,2022-02-12_13h43.56.610,lexical_decision_task_DD,2021.2.3,iPhone,58.82352941,,,,,,,,,,0.575,1,,,,,,,,,,,,,,,0,0.404081633,-0.303571429,1,0,0,0.575,button_right_main,0.404081633,-0.303571429,1,0,0,,0,82,82,56,1,PACKET,LB,old,m,./images/PACKETLB.png,,,,,,,,,,,,,,,,,,,,,,,,,,,,,,,,,
,,,,,,,,,,,,,,,,,60fded24de9d0e39caa58493,20,2022-02-12_13h43.56.610,lexical_decision_task_DD,2021.2.3,iPhone,58.82352941,,,,,,,,,,0.605,1,,,,,,,,,,,,,,,0,-0.374489796,-0.30255102,1,0,0,0.605,button_left_main,-0.098979592,-0.419897959,1,0,0,,0,83,83,131,1,NACES,LB,old,z,./images/NACESLB.png,break_done_button,,,,,,,,,,,,,,,,,,,,,,,,,,,,,,,,
,,,,,,,,,,,,,,,,,60fded24de9d0e39caa58493,20,2022-02-12_13h43.56.610,lexical_decision_task_DD,2021.2.3,iPhone,58.82352941,,,,,,,,,,0.541,1,,,,,,,,,,,,,,,0,-0.328571429,-0.340306122,1,0,0,0.541,button_left_main,-0.328571429,-0.340306122,1,0,0,,0,84,84,90,1,NEAST,C,old,z,./images/NEAST.png,,,,,,,,,,,,,,,,,,,,,,,,,,,,,,,,,
,,,,,,,,,,,,,,,,,60fded24de9d0e39caa58493,20,2022-02-12_13h43.56.610,lexical_decision_task_DD,2021.2.3,iPhone,58.82352941,,,,,,,,,,0.658,1,,,,,,,,,,,,,,,0,-0.341836735,-0.30255102,1,0,0,0.658,button_left_main,-0.341836735,-0.30255102,1,0,0,,0,85,85,103,1,FLORT,HB,old,z,./images/FLORTHB.png,,,,,,,,,,,,,,,,,,,,,,,,,,,,,,,,,
,,,,,,,,,,,,,,,,,60fded24de9d0e39caa58493,20,2022-02-12_13h43.56.610,lexical_decision_task_DD,2021.2.3,iPhone,58.82352941,,,,,,,,,,0.49,0,,,,,,,,,,,,,,,0,0.386734694,-0.289285714,1,0,0,0.49,button_right_main,0.386734694,-0.289285714,1,0,0,,0,86,86,164,1,SGREW,LB,old,z,./images/SGREWLB.png,,,,,,,,,,,,,,,,,,,,,,,,,,,,,,,,,
,,,,,,,,,,,,,,,,,60fded24de9d0e39caa58493,20,2022-02-12_13h43.56.610,lexical_decision_task_DD,2021.2.3,iPhone,58.82352941,,,,,,,,,,0.606,1,,,,,,,,,,,,,,,0,0.401020408,-0.309693878,1,0,0,0.606,button_right_main,0.401020408,-0.309693878,1,0,0,,0,87,87,75,1,GRAIN,C,old,m,./images/GRAIN.png,,,,,,,,,,,,,,,,,,,,,,,,,,,,,,,,,
,,,,,,,,,,,,,,,,,60fded24de9d0e39caa58493,20,2022-02-12_13h43.56.610,lexical_decision_task_DD,2021.2.3,iPhone,58.82352941,,,,,,,,,,0.475,1,,,,,,,,,,,,,,,0,0.390816327,-0.303571429,1,0,0,0.475,button_right_main,0.390816327,-0.303571429,1,0,0,,0,88,88,48,1,SPORT,C,old,m,./images/SPORT.png,,,,,,,,,,,,,,,,,,,,,,,,,,,,,,,,,
,,,,,,,,,,,,,,,,,60fded24de9d0e39caa58493,20,2022-02-12_13h43.56.610,lexical_decision_task_DD,2021.2.3,iPhone,58.82352941,,,,,,,,,,0.909,1,,,,,,,,,,,,,,,0,-0.342857143,-0.303571429,1,0,0,0.909,button_left_main,-0.342857143,-0.303571429,1,0,0,,0,89,89,154,1,THINT,HB,old,z,./images/THINTHB.png,,,,,,,,,,,,,,,,,,,,,,,,,,,,,,,,,
,,,,,,,,,,,,,,,,,60fded24de9d0e39caa58493,20,2022-02-12_13h43.56.610,lexical_decision_task_DD,2021.2.3,iPhone,58.82352941,,,,,,,,,,0.556,1,,,,,,,,,,,,,,,0,0.4,-0.301530612,1,0,0,0.556,button_right_main,0.4,-0.301530612,1,0,0,,0,90,90,41,1,STRING,LB,old,m,./images/STRINGLB.png,,,,,,,,,,,,,,,,,,,,,,,,,,,,,,,,,
,,,,,,,,,,,,,,,,,60fded24de9d0e39caa58493,20,2022-02-12_13h43.56.610,lexical_decision_task_DD,2021.2.3,iPhone,58.82352941,,,,,,,,,,0.524,0,,,,,,,,,,,,,,,0,-0.340816327,-0.320918367,1,0,0,0.524,button_left_main,-0.340816327,-0.320918367,1,0,0,,0,91,91,54,1,TRIPOD,C,old,m,./images/TRIPOD.png,,,,,,,,,,,,,,,,,,,,,,,,,,,,,,,,,
,,,,,,,,,,,,,,,,,60fded24de9d0e39caa58493,20,2022-02-12_13h43.56.610,lexical_decision_task_DD,2021.2.3,iPhone,58.82352941,,,,,,,,,,0.79,1,,,,,,,,,,,,,,,0,-0.355102041,-0.306632653,1,0,0,0.79,button_left_main,-0.355102041,-0.306632653,1,0,0,,0,92,92,107,1,FASKS,LB,old,z,./images/FASKSLB.png,,,,,,,,,,,,,,,,,,,,,,,,,,,,,,,,,
,,,,,,,,,,,,,,,,,60fded24de9d0e39caa58493,20,2022-02-12_13h43.56.610,lexical_decision_task_DD,2021.2.3,iPhone,58.82352941,,,,,,,,,,0.591,1,,,,,,,,,,,,,,,0,-0.342857143,-0.303571429,1,0,0,0.591,button_left_main,-0.342857143,-0.303571429,1,0,0,,0,93,93,89,1,DRIEK,LB,old,z,./images/DRIEKLB.png,,,,,,,,,,,,,,,,,,,,,,,,,,,,,,,,,
,,,,,,,,,,,,,,,,,60fded24de9d0e39caa58493,20,2022-02-12_13h43.56.610,lexical_decision_task_DD,2021.2.3,iPhone,58.82352941,,,,,,,,,,0.687,1,,,,,,,,,,,,,,,0,-0.347959184,-0.309693878,1,0,0,0.687,button_left_main,-0.347959184,-0.309693878,1,0,0,,0,94,94,84,1,HAXES,C,old,z,./images/HAXES.png,,,,,,,,,,,,,,,,,,,,,,,,,,,,,,,,,
,,,,,,,,,,,,,,,,,60fded24de9d0e39caa58493,20,2022-02-12_13h43.56.610,lexical_decision_task_DD,2021.2.3,iPhone,58.82352941,,,,,,,,,,0.591,1,,,,,,,,,,,,,,,0,-0.354081633,-0.289285714,1,0,0,0.591,button_left_main,-0.354081633,-0.289285714,1,0,0,,0,95,95,132,1,SCIFF,C,old,z,./images/SCIFF.png,,,,,,,,,,,,,,,,,,,,,,,,,,,,,,,,,
,,,,,,,,,,,,,,,,,60fded24de9d0e39caa58493,20,2022-02-12_13h43.56.610,lexical_decision_task_DD,2021.2.3,iPhone,58.82352941,,,,,,,,,,0.958,1,,,,,,,,,,,,,,,0,-0.344897959,-0.299489796,1,0,0,0.958,button_left_main,-0.344897959,-0.299489796,1,0,0,,0,96,96,91,1,SHENS,HB,old,z,./images/SHENSHB.png,,,,,,,,,,,,,,,,,,,,,,,,,,,,,,,,,
,,,,,,,,,,,,,,,,,60fded24de9d0e39caa58493,20,2022-02-12_13h43.56.610,lexical_decision_task_DD,2021.2.3,iPhone,58.82352941,,,,,,,,,,0.805,1,,,,,,,,,,,,,,,0,-0.343877551,-0.287244898,1,0,0,0.805,button_left_main,-0.343877551,-0.287244898,1,0,0,,0,97,97,121,1,CEERS,HB,old,z,./images/CEERSHB.png,,,,,,,,,,,,,,,,,,,,,,,,,,,,,,,,,
,,,,,,,,,,,,,,,,,60fded24de9d0e39caa58493,20,2022-02-12_13h43.56.610,lexical_decision_task_DD,2021.2.3,iPhone,58.82352941,,,,,,,,,,0.542,1,,,,,,,,,,,,,,,0,-0.346938776,-0.291326531,1,0,0,0.542,button_left_main,-0.346938776,-0.291326531,1,0,0,,0,98,98,147,1,ZOLES,C,old,z,./images/ZOLES.png,,,,,,,,,,,,,,,,,,,,,,,,,,,,,,,,,
,,,,,,,,,,,,,,,,,60fded24de9d0e39caa58493,20,2022-02-12_13h43.56.610,lexical_decision_task_DD,2021.2.3,iPhone,58.82352941,,,,,,,,,,0.571,1,,,,,,,,,,,,,,,0,-0.363265306,-0.329081633,1,0,0,0.571,button_left_main,-0.363265306,-0.329081633,1,0,0,,0,99,99,144,1,NAIRY,C,old,z,./images/NAIRY.png,,,,,,,,,,,,,,,,,,,,,,,,,,,,,,,,,
,,,,,,,,,,,,,,,,,60fded24de9d0e39caa58493,20,2022-02-12_13h43.56.610,lexical_decision_task_DD,2021.2.3,iPhone,58.82352941,,,,,,,,,,0.529,1,,,,,,,,,,,,,,,0,0.407142857,-0.284183673,1,0,0,0.529,button_right_main,0.407142857,-0.284183673,1,0,0,,0,100,100,44,1,LIZARD,LB,old,m,./images/LIZARDLB.png,,,,,,,,,,,,,,,,,,,,,,,,,,,,,,,,,
,,,,,,,,,,,,,,,,,60fded24de9d0e39caa58493,20,2022-02-12_13h43.56.610,lexical_decision_task_DD,2021.2.3,iPhone,58.82352941,,,,,,,,,,0.674,1,,,,,,,,,,,,,,,0,0.401020408,-0.294387755,1,0,0,0.674,button_right_main,0.401020408,-0.294387755,1,0,0,,0,101,101,50,1,MALLET,LB,old,m,./images/MALLETLB.png,,,,,,,,,,,,,,,,,,,,,,,,,,,,,,,,,
,,,,,,,,,,,,,,,,,60fded24de9d0e39caa58493,20,2022-02-12_13h43.56.610,lexical_decision_task_DD,2021.2.3,iPhone,58.82352941,,,,,,,,,,0.557,1,,,,,,,,,,,,,,,0,-0.337755102,-0.292346939,1,0,0,0.557,button_left_main,-0.337755102,-0.292346939,1,0,0,,0,102,102,119,1,PAFER,LB,old,z,./images/PAFERLB.png,,,,,,,,,,,,,,,,,,,,,,,,,,,,,,,,,
,,,,,,,,,,,,,,,,,60fded24de9d0e39caa58493,20,2022-02-12_13h43.56.610,lexical_decision_task_DD,2021.2.3,iPhone,58.82352941,,,,,,,,,,0.521,1,,,,,,,,,,,,,,,0,-0.346938776,-0.305612245,1,0,0,0.521,button_left_main,-0.346938776,-0.305612245,1,0,0,,0,103,103,113,1,LINEW,LB,old,z,./images/LINEWLB.png,,,,,,,,,,,,,,,,,,,,,,,,,,,,,,,,,
,,,,,,,,,,,,,,,,,60fded24de9d0e39caa58493,20,2022-02-12_13h43.56.610,lexical_decision_task_DD,2021.2.3,iPhone,58.82352941,,,,,,,,,,0.524,1,,,,,,,,,,,,,,,0,0.398979592,-0.296428571,1,0,0,0.524,button_right_main,0.398979592,-0.296428571,1,0,0,,0,104,104,53,1,CARPET,LB,old,m,./images/CARPETLB.png,,,,,,,,,,,,,,,,,,,,,,,,,,,,,,,,,
,,,,,,,,,,,,,,,,,60fded24de9d0e39caa58493,20,2022-02-12_13h43.56.610,lexical_decision_task_DD,2021.2.3,iPhone,58.82352941,,,,,,,,,,0.639,1,,,,,,,,,,,,,,,0,0.414285714,-0.298469388,1,0,0,0.639,button_right_main,0.414285714,-0.298469388,1,0,0,,0,105,105,27,1,ATTIC,C,old,m,./images/ATTIC.png,,,,,,,,,,,,,,,,,,,,,,,,,,,,,,,,,
,,,,,,,,,,,,,,,,,60fded24de9d0e39caa58493,20,2022-02-12_13h43.56.610,lexical_decision_task_DD,2021.2.3,iPhone,58.82352941,,,,,,,,,,0.692,1,,,,,,,,,,,,,,,0,-0.33877551,-0.301530612,1,0,0,0.692,button_left_main,-0.33877551,-0.301530612,1,0,0,,0,106,106,145,1,LAMEL,HB,old,z,./images/LAMELHB.png,,,,,,,,,,,,,,,,,,,,,,,,,,,,,,,,,
,,,,,,,,,,,,,,,,,60fded24de9d0e39caa58493,20,2022-02-12_13h43.56.610,lexical_decision_task_DD,2021.2.3,iPhone,58.82352941,,,,,,,,,,0.592,1,,,,,,,,,,,,,,,0,0.409183673,-0.299489796,1,0,0,0.592,button_right_main,0.409183673,-0.299489796,1,0,0,,0,107,107,14,1,PICKLE,LB,old,m,./images/PICKLELB.png,,,,,,,,,,,,,,,,,,,,,,,,,,,,,,,,,
,,,,,,,,,,,,,,,,,60fded24de9d0e39caa58493,20,2022-02-12_13h43.56.610,lexical_decision_task_DD,2021.2.3,iPhone,58.82352941,,,,,,,,,,0.608,0,,,,,,,,,,,,,,,0,0.398979592,-0.29744898,1,0,0,0.608,button_right_main,0.398979592,-0.29744898,1,0,0,,0,108,108,109,1,BURGE,HB,old,z,./images/BURGEHB.png,,,,,,,,,,,,,,,,,,,,,,,,,,,,,,,,,
,,,,,,,,,,,,,,,,,60fded24de9d0e39caa58493,20,2022-02-12_13h43.56.610,lexical_decision_task_DD,2021.2.3,iPhone,58.82352941,,,,,,,,,,0.791,0,,,,,,,,,,,,,,,0,-0.345918367,-0.282142857,1,0,0,0.791,button_left_main,-0.345918367,-0.282142857,1,0,0,,0,109,109,20,1,CRADLE,LB,old,m,./images/CRADLELB.png,,,,,,,,,,,,,,,,,,,,,,,,,,,,,,,,,
,,,,,,,,,,,,,,,,,60fded24de9d0e39caa58493,20,2022-02-12_13h43.56.610,lexical_decision_task_DD,2021.2.3,iPhone,58.82352941,,,,,,,,,,0.74,1,,,,,,,,,,,,,,,0,0.398979592,-0.266836735,1,0,0,0.74,button_right_main,0.398979592,-0.266836735,1,0,0,,0,110,110,7,1,PAINT,HB,old,m,./images/PAINTHB.png,,,,,,,,,,,,,,,,,,,,,,,,,,,,,,,,,
,,,,,,,,,,,,,,,,,60fded24de9d0e39caa58493,20,2022-02-12_13h43.56.610,lexical_decision_task_DD,2021.2.3,iPhone,58.82352941,,,,,,,,,,1.142,1,,,,,,,,,,,,,,,0,0.414285714,-0.305612245,1,0,0,1.142,button_right_main,0.414285714,-0.305612245,1,0,0,,0,111,111,69,1,COOKER,C,old,m,./images/COOKER.png,,,,,,,,,,,,,,,,,,,,,,,,,,,,,,,,,
,,,,,,,,,,,,,,,,,60fded24de9d0e39caa58493,20,2022-02-12_13h43.56.610,lexical_decision_task_DD,2021.2.3,iPhone,58.82352941,,,,,,,,,,0.874,1,,,,,,,,,,,,,,,0,0.434693878,-0.282142857,1,0,0,0.874,button_right_main,0.434693878,-0.282142857,1,0,0,,0,112,112,8,1,TULIP,LB,old,m,./images/TULIPLB.png,,,,,,,,,,,,,,,,,,,,,,,,,,,,,,,,,
,,,,,,,,,,,,,,,,,60fded24de9d0e39caa58493,20,2022-02-12_13h43.56.610,lexical_decision_task_DD,2021.2.3,iPhone,58.82352941,,,,,,,,,,0.572,1,,,,,,,,,,,,,,,0,-0.335714286,-0.298469388,1,0,0,0.572,button_left_main,-0.335714286,-0.298469388,1,0,0,,0,113,113,99,1,BACKY,C,old,z,./images/BACKY.png,,,,,,,,,,,,,,,,,,,,,,,,,,,,,,,,,
,,,,,,,,,,,,,,,,,60fded24de9d0e39caa58493,20,2022-02-12_13h43.56.610,lexical_decision_task_DD,2021.2.3,iPhone,58.82352941,,,,,,,,,,0.806,1,,,,,,,,,,,,,,,0,-0.347959184,-0.291326531,1,0,0,0.806,button_left_main,-0.347959184,-0.291326531,1,0,0,,0,114,114,162,1,LEICH,C,old,z,./images/LEICH.png,,,,,,,,,,,,,,,,,,,,,,,,,,,,,,,,,
,,,,,,,,,,,,,,,,,60fded24de9d0e39caa58493,20,2022-02-12_13h43.56.610,lexical_decision_task_DD,2021.2.3,iPhone,58.82352941,,,,,,,,,,0.625,1,,,,,,,,,,,,,,,0,0.403061224,-0.300510204,1,0,0,0.625,button_right_main,0.403061224,-0.300510204,1,0,0,,0,115,115,63,1,MIRROR,C,old,m,./images/MIRROR.png,,,,,,,,,,,,,,,,,,,,,,,,,,,,,,,,,
,,,,,,,,,,,,,,,,,60fded24de9d0e39caa58493,20,2022-02-12_13h43.56.610,lexical_decision_task_DD,2021.2.3,iPhone,58.82352941,,,,,,,,,,0.519,1,,,,,,,,,,,,,,,0,0.398979592,-0.300510204,1,0,0,0.519,button_right_main,0.398979592,-0.300510204,1,0,0,,0,116,116,51,1,ONION,C,old,m,./images/ONION.png,,,,,,,,,,,,,,,,,,,,,,,,,,,,,,,,,
,,,,,,,,,,,,,,,,,60fded24de9d0e39caa58493,20,2022-02-12_13h43.56.610,lexical_decision_task_DD,2021.2.3,iPhone,58.82352941,,,,,,,,,,0.608,1,,,,,,,,,,,,,,,0,0.380612245,-0.304591837,1,0,0,0.608,button_right_main,0.380612245,-0.304591837,1,0,0,,0,117,117,36,1,THROAT,C,old,m,./images/THROAT.png,,,,,,,,,,,,,,,,,,,,,,,,,,,,,,,,,
,,,,,,,,,,,,,,,,,60fded24de9d0e39caa58493,20,2022-02-12_13h43.56.610,lexical_decision_task_DD,2021.2.3,iPhone,58.82352941,,,,,,,,,,1.14,0,,,,,,,,,,,,,,,0,-0.331632653,-0.272959184,1,0,0,1.14,button_left_main,-0.331632653,-0.272959184,1,0,0,,0,118,118,16,1,PENCE,HB,old,m,./images/PENCEHB.png,,,,,,,,,,,,,,,,,,,,,,,,,,,,,,,,,
,,,,,,,,,,,,,,,,,60fded24de9d0e39caa58493,20,2022-02-12_13h43.56.610,lexical_decision_task_DD,2021.2.3,iPhone,58.82352941,,,,,,,,,,0.604,1,,,,,,,,,,,,,,,0,0.402040816,-0.309693878,1,0,0,0.604,button_right_main,0.402040816,-0.309693878,1,0,0,,0,119,119,81,1,POODLE,C,old,m,./images/POODLE.png,,,,,,,,,,,,,,,,,,,,,,,,,,,,,,,,,
,,,,,,,,,,,,,,,,,60fded24de9d0e39caa58493,20,2022-02-12_13h43.56.610,lexical_decision_task_DD,2021.2.3,iPhone,58.82352941,,,,,,,,,,0.992,1,,,,,,,,,,,,,,,0,-0.346938776,-0.293367347,1,0,0,0.992,button_left_main,-0.346938776,-0.293367347,1,0,0,,0,120,120,122,1,BLOOT,LB,old,z,./images/BLOOTLB.png,,,,,,,,,,,,,,,,,,,,,,,,,,,,,,,,,
,,,,,,,,,,,,,,,,,60fded24de9d0e39caa58493,20,2022-02-12_13h43.56.610,lexical_decision_task_DD,2021.2.3,iPhone,58.82352941,,,,,,,,,,0.724,1,,,,,,,,,,,,,,,0,0.394897959,-0.290306122,1,0,0,0.724,button_right_main,0.394897959,-0.290306122,1,0,0,,0,121,121,58,1,BABOON,HB,old,m,./images/BABOONHB.png,,,,,,,,,,,,,,,,,,,,,,,,,,,,,,,,,
,,,,,,,,,,,,,,,,,60fded24de9d0e39caa58493,20,2022-02-12_13h43.56.610,lexical_decision_task_DD,2021.2.3,iPhone,58.82352941,,,,,,,,,,0.507,1,,,,,,,,,,,,,,,0,0.408163265,-0.309693878,1,0,0,0.507,button_right_main,0.408163265,-0.309693878,1,0,0,,0,122,122,3,1,FINGER,C,old,m,./images/FINGER.png,,,,,,,,,,,,,,,,,,,,,,,,,,,,,,,,,
,,,,,,,,,,,,,,,,,60fded24de9d0e39caa58493,20,2022-02-12_13h43.56.610,lexical_decision_task_DD,2021.2.3,iPhone,58.82352941,,,,,,,,,,0.641,1,,,,,,,,,,,,,,,0,0.404081633,-0.294387755,1,0,0,0.641,button_right_main,0.404081633,-0.294387755,1,0,0,,0,123,123,45,1,KITTEN,C,old,m,./images/KITTEN.png,,,,,,,,,,,,,,,,,,,,,,,,,,,,,,,,,
,,,,,,,,,,,,,,,,,60fded24de9d0e39caa58493,20,2022-02-12_13h43.56.610,lexical_decision_task_DD,2021.2.3,iPhone,58.82352941,,,,,,,,,,0.624,1,,,,,,,,,,,,,,,0,-0.354081633,-0.299489796,1,0,0,0.624,button_left_main,-0.354081633,-0.299489796,1,0,0,,0,124,124,146,1,MOOST,LB,old,z,./images/MOOSTLB.png,,,,,,,,,,,,,,,,,,,,,,,,,,,,,,,,,
,,,,,,,,,,,,,,,,,60fded24de9d0e39caa58493,20,2022-02-12_13h43.56.610,lexical_decision_task_DD,2021.2.3,iPhone,58.82352941,,,,,,,,,,0.741,1,,,,,,,,,,,,,,,0,0.408163265,-0.303571429,1,0,0,0.741,button_right_main,0.153061224,-0.407653061,1,0,0,,0,125,125,46,1,PEARL,HB,old,m,./images/PEARLHB.png,break_done_button,,,,,,,,,,,,,,,,,,,,,,,,,,,,,,,,
,,,,,,,,,,,,,,,,,60fded24de9d0e39caa58493,20,2022-02-12_13h43.56.610,lexical_decision_task_DD,2021.2.3,iPhone,58.82352941,,,,,,,,,,0.641,1,,,,,,,,,,,,,,,0,-0.358163265,-0.277040816,1,0,0,0.641,button_left_main,-0.358163265,-0.277040816,1,0,0,,0,126,126,120,1,RINED,C,old,z,./images/RINED.png,,,,,,,,,,,,,,,,,,,,,,,,,,,,,,,,,
,,,,,,,,,,,,,,,,,60fded24de9d0e39caa58493,20,2022-02-12_13h43.56.610,lexical_decision_task_DD,2021.2.3,iPhone,58.82352941,,,,,,,,,,0.557,1,,,,,,,,,,,,,,,0,0.386734694,-0.320918367,1,0,0,0.557,button_right_main,0.386734694,-0.320918367,1,0,0,,0,127,127,40,1,SWING,HB,old,m,./images/SWINGHB.png,,,,,,,,,,,,,,,,,,,,,,,,,,,,,,,,,
,,,,,,,,,,,,,,,,,60fded24de9d0e39caa58493,20,2022-02-12_13h43.56.610,lexical_decision_task_DD,2021.2.3,iPhone,58.82352941,,,,,,,,,,0.421,1,,,,,,,,,,,,,,,0,0.396938776,-0.310714286,1,0,0,0.421,button_right_main,0.396938776,-0.310714286,1,0,0,,0,128,128,65,1,FARMER,LB,old,m,./images/FARMERLB.png,,,,,,,,,,,,,,,,,,,,,,,,,,,,,,,,,
,,,,,,,,,,,,,,,,,60fded24de9d0e39caa58493,20,2022-02-12_13h43.56.610,lexical_decision_task_DD,2021.2.3,iPhone,58.82352941,,,,,,,,,,0.925,1,,,,,,,,,,,,,,,0,-0.348979592,-0.303571429,1,0,0,0.925,button_left_main,-0.348979592,-0.303571429,1,0,0,,0,129,129,85,1,CHULK,HB,old,z,./images/CHULKHB.png,,,,,,,,,,,,,,,,,,,,,,,,,,,,,,,,,
,,,,,,,,,,,,,,,,,60fded24de9d0e39caa58493,20,2022-02-12_13h43.56.610,lexical_decision_task_DD,2021.2.3,iPhone,58.82352941,,,,,,,,,,0.674,1,,,,,,,,,,,,,,,0,-0.358163265,-0.285204082,1,0,0,0.674,button_left_main,-0.358163265,-0.285204082,1,0,0,,0,130,130,134,1,TROSS,LB,old,z,./images/TROSSLB.png,,,,,,,,,,,,,,,,,,,,,,,,,,,,,,,,,
,,,,,,,,,,,,,,,,,60fded24de9d0e39caa58493,20,2022-02-12_13h43.56.610,lexical_decision_task_DD,2021.2.3,iPhone,58.82352941,,,,,,,,,,0.59,1,,,,,,,,,,,,,,,0,0.378571429,-0.314795918,1,0,0,0.59,button_right_main,0.378571429,-0.314795918,1,0,0,,0,131,131,37,1,BIRTH,HB,old,m,./images/BIRTHHB.png,,,,,,,,,,,,,,,,,,,,,,,,,,,,,,,,,
,,,,,,,,,,,,,,,,,60fded24de9d0e39caa58493,20,2022-02-12_13h43.56.610,lexical_decision_task_DD,2021.2.3,iPhone,58.82352941,,,,,,,,,,0.506,1,,,,,,,,,,,,,,,0,0.393877551,-0.304591837,1,0,0,0.506,button_right_main,0.393877551,-0.304591837,1,0,0,,0,132,132,35,1,PEACH,LB,old,m,./images/PEACHLB.png,,,,,,,,,,,,,,,,,,,,,,,,,,,,,,,,,
,,,,,,,,,,,,,,,,,60fded24de9d0e39caa58493,20,2022-02-12_13h43.56.610,lexical_decision_task_DD,2021.2.3,iPhone,58.82352941,,,,,,,,,,0.574,1,,,,,,,,,,,,,,,0,-0.355102041,-0.349489796,1,0,0,0.574,button_left_main,-0.355102041,-0.349489796,1,0,0,,0,133,133,129,1,PRANS,C,old,z,./images/PRANS.png,,,,,,,,,,,,,,,,,,,,,,,,,,,,,,,,,
,,,,,,,,,,,,,,,,,60fded24de9d0e39caa58493,20,2022-02-12_13h43.56.610,lexical_decision_task_DD,2021.2.3,iPhone,58.82352941,,,,,,,,,,0.622,1,,,,,,,,,,,,,,,0,0.398979592,-0.309693878,1,0,0,0.622,button_right_main,0.398979592,-0.309693878,1,0,0,,0,134,134,11,1,BONNET,LB,old,m,./images/BONNETLB.png,,,,,,,,,,,,,,,,,,,,,,,,,,,,,,,,,
,,,,,,,,,,,,,,,,,60fded24de9d0e39caa58493,20,2022-02-12_13h43.56.610,lexical_decision_task_DD,2021.2.3,iPhone,58.82352941,,,,,,,,,,0.722,1,,,,,,,,,,,,,,,0,-0.347959184,-0.280102041,1,0,0,0.722,button_left_main,-0.347959184,-0.280102041,1,0,0,,0,135,135,163,1,GAMBA,HB,old,z,./images/GAMBAHB.png,,,,,,,,,,,,,,,,,,,,,,,,,,,,,,,,,
,,,,,,,,,,,,,,,,,60fded24de9d0e39caa58493,20,2022-02-12_13h43.56.610,lexical_decision_task_DD,2021.2.3,iPhone,58.82352941,,,,,,,,,,0.756,1,,,,,,,,,,,,,,,0,0.4,-0.304591837,1,0,0,0.756,button_right_main,0.4,-0.304591837,1,0,0,,0,136,136,76,1,INFANT,HB,old,m,./images/INFANTHB.png,,,,,,,,,,,,,,,,,,,,,,,,,,,,,,,,,
,,,,,,,,,,,,,,,,,60fded24de9d0e39caa58493,20,2022-02-12_13h43.56.610,lexical_decision_task_DD,2021.2.3,iPhone,58.82352941,,,,,,,,,,0.774,1,,,,,,,,,,,,,,,0,0.406122449,-0.279081633,1,0,0,0.774,button_right_main,0.406122449,-0.279081633,1,0,0,,0,137,137,9,1,RHINO,C,old,m,./images/RHINO.png,,,,,,,,,,,,,,,,,,,,,,,,,,,,,,,,,
,,,,,,,,,,,,,,,,,60fded24de9d0e39caa58493,20,2022-02-12_13h43.56.610,lexical_decision_task_DD,2021.2.3,iPhone,58.82352941,,,,,,,,,,0.708,1,,,,,,,,,,,,,,,0,-0.341836735,-0.289285714,1,0,0,0.708,button_left_main,-0.341836735,-0.289285714,1,0,0,,0,138,138,106,1,CLUMS,HB,old,z,./images/CLUMSHB.png,,,,,,,,,,,,,,,,,,,,,,,,,,,,,,,,,
,,,,,,,,,,,,,,,,,60fded24de9d0e39caa58493,20,2022-02-12_13h43.56.610,lexical_decision_task_DD,2021.2.3,iPhone,58.82352941,,,,,,,,,,1.009,1,,,,,,,,,,,,,,,0,-0.346938776,-0.295408163,1,0,0,1.009,button_left_main,-0.346938776,-0.295408163,1,0,0,,0,139,139,104,1,GITTY,LB,old,z,./images/GITTYLB.png,,,,,,,,,,,,,,,,,,,,,,,,,,,,,,,,,
,,,,,,,,,,,,,,,,,60fded24de9d0e39caa58493,20,2022-02-12_13h43.56.610,lexical_decision_task_DD,2021.2.3,iPhone,58.82352941,,,,,,,,,,0.923,1,,,,,,,,,,,,,,,0,-0.342857143,-0.289285714,1,0,0,0.923,button_left_main,-0.342857143,-0.289285714,1,0,0,,0,140,140,124,1,TUNCH,HB,old,z,./images/TUNCHHB.png,,,,,,,,,,,,,,,,,,,,,,,,,,,,,,,,,
,,,,,,,,,,,,,,,,,60fded24de9d0e39caa58493,20,2022-02-12_13h43.56.610,lexical_decision_task_DD,2021.2.3,iPhone,58.82352941,,,,,,,,,,1.275,0,,,,,,,,,,,,,,,0,-0.35,-0.294387755,1,0,0,1.275,button_left_main,-0.35,-0.294387755,1,0,0,,0,141,141,52,1,BANNER,HB,old,m,./images/BANNERHB.png,,,,,,,,,,,,,,,,,,,,,,,,,,,,,,,,,
,,,,,,,,,,,,,,,,,60fded24de9d0e39caa58493,20,2022-02-12_13h43.56.610,lexical_decision_task_DD,2021.2.3,iPhone,58.82352941,,,,,,,,,,0.64,1,,,,,,,,,,,,,,,0,-0.35,-0.309693878,1,0,0,0.64,button_left_main,-0.35,-0.309693878,1,0,0,,0,142,142,138,1,PLICE,C,old,z,./images/PLICE.png,,,,,,,,,,,,,,,,,,,,,,,,,,,,,,,,,
,,,,,,,,,,,,,,,,,60fded24de9d0e39caa58493,20,2022-02-12_13h43.56.610,lexical_decision_task_DD,2021.2.3,iPhone,58.82352941,,,,,,,,,,0.506,1,,,,,,,,,,,,,,,0,0.401020408,-0.283163265,1,0,0,0.506,button_right_main,0.401020408,-0.283163265,1,0,0,,0,143,143,83,1,JUNGLE,LB,old,m,./images/JUNGLELB.png,,,,,,,,,,,,,,,,,,,,,,,,,,,,,,,,,
,,,,,,,,,,,,,,,,,60fded24de9d0e39caa58493,20,2022-02-12_13h43.56.610,lexical_decision_task_DD,2021.2.3,iPhone,58.82352941,,,,,,,,,,0.519,1,,,,,,,,,,,,,,,0,0.404081633,-0.312755102,1,0,0,0.519,button_right_main,0.404081633,-0.312755102,1,0,0,,0,144,144,71,1,PIMPLE,LB,old,m,./images/PIMPLELB.png,,,,,,,,,,,,,,,,,,,,,,,,,,,,,,,,,
,,,,,,,,,,,,,,,,,60fded24de9d0e39caa58493,20,2022-02-12_13h43.56.610,lexical_decision_task_DD,2021.2.3,iPhone,58.82352941,,,,,,,,,,1.105,1,,,,,,,,,,,,,,,0,-0.360204082,-0.284183673,1,0,0,1.105,button_left_main,-0.360204082,-0.284183673,1,0,0,,0,145,145,157,1,INLER,HB,old,z,./images/INLERHB.png,,,,,,,,,,,,,,,,,,,,,,,,,,,,,,,,,
,,,,,,,,,,,,,,,,,60fded24de9d0e39caa58493,20,2022-02-12_13h43.56.610,lexical_decision_task_DD,2021.2.3,iPhone,58.82352941,,,,,,,,,,1.005,1,,,,,,,,,,,,,,,0,-0.35,-0.281122449,1,0,0,1.005,button_left_main,-0.35,-0.281122449,1,0,0,,0,146,146,130,1,CRILL,HB,old,z,./images/CRILLHB.png,,,,,,,,,,,,,,,,,,,,,,,,,,,,,,,,,
,,,,,,,,,,,,,,,,,60fded24de9d0e39caa58493,20,2022-02-12_13h43.56.610,lexical_decision_task_DD,2021.2.3,iPhone,58.82352941,,,,,,,,,,0.622,1,,,,,,,,,,,,,,,0,0.389795918,-0.317857143,1,0,0,0.622,button_right_main,0.389795918,-0.317857143,1,0,0,,0,147,147,17,1,SKIING,LB,old,m,./images/SKIINGLB.png,,,,,,,,,,,,,,,,,,,,,,,,,,,,,,,,,
,,,,,,,,,,,,,,,,,60fded24de9d0e39caa58493,20,2022-02-12_13h43.56.610,lexical_decision_task_DD,2021.2.3,iPhone,58.82352941,,,,,,,,,,0.558,1,,,,,,,,,,,,,,,0,0.401020408,-0.303571429,1,0,0,0.558,button_right_main,0.401020408,-0.303571429,1,0,0,,0,148,148,73,1,SNACK,HB,old,m,./images/SNACKHB.png,,,,,,,,,,,,,,,,,,,,,,,,,,,,,,,,,
,,,,,,,,,,,,,,,,,60fded24de9d0e39caa58493,20,2022-02-12_13h43.56.610,lexical_decision_task_DD,2021.2.3,iPhone,58.82352941,,,,,,,,,,0.742,1,,,,,,,,,,,,,,,0,0.4,-0.294387755,1,0,0,0.742,button_right_main,0.4,-0.294387755,1,0,0,,0,149,149,28,1,FALCON,HB,old,m,./images/FALCONHB.png,,,,,,,,,,,,,,,,,,,,,,,,,,,,,,,,,
,,,,,,,,,,,,,,,,,60fded24de9d0e39caa58493,20,2022-02-12_13h43.56.610,lexical_decision_task_DD,2021.2.3,iPhone,58.82352941,,,,,,,,,,0.524,1,,,,,,,,,,,,,,,0,0.393877551,-0.309693878,1,0,0,0.524,button_right_main,0.393877551,-0.309693878,1,0,0,,0,150,150,38,1,LADDER,LB,old,m,./images/LADDERLB.png,,,,,,,,,,,,,,,,,,,,,,,,,,,,,,,,,
,,,,,,,,,,,,,,,,,60fded24de9d0e39caa58493,20,2022-02-12_13h43.56.610,lexical_decision_task_DD,2021.2.3,iPhone,58.82352941,,,,,,,,,,0.608,1,,,,,,,,,,,,,,,0,0.4,-0.316836735,1,0,0,0.608,button_right_main,0.4,-0.316836735,1,0,0,,0,151,151,21,1,KIDNEY,C,old,m,./images/KIDNEY.png,,,,,,,,,,,,,,,,,,,,,,,,,,,,,,,,,
,,,,,,,,,,,,,,,,,60fded24de9d0e39caa58493,20,2022-02-12_13h43.56.610,lexical_decision_task_DD,2021.2.3,iPhone,58.82352941,,,,,,,,,,0.638,1,,,,,,,,,,,,,,,0,-0.358163265,-0.278061224,1,0,0,0.638,button_left_main,-0.358163265,-0.278061224,1,0,0,,0,152,152,150,1,NOOLS,C,old,z,./images/NOOLS.png,,,,,,,,,,,,,,,,,,,,,,,,,,,,,,,,,
,,,,,,,,,,,,,,,,,60fded24de9d0e39caa58493,20,2022-02-12_13h43.56.610,lexical_decision_task_DD,2021.2.3,iPhone,58.82352941,,,,,,,,,,0.541,1,,,,,,,,,,,,,,,0,0.398979592,-0.306632653,1,0,0,0.541,button_right_main,0.398979592,-0.306632653,1,0,0,,0,153,153,66,1,SWEAT,C,old,m,./images/SWEAT.png,,,,,,,,,,,,,,,,,,,,,,,,,,,,,,,,,
,,,,,,,,,,,,,,,,,60fded24de9d0e39caa58493,20,2022-02-12_13h43.56.610,lexical_decision_task_DD,2021.2.3,iPhone,58.82352941,,,,,,,,,,0.857,1,,,,,,,,,,,,,,,0,-0.357142857,-0.279081633,1,0,0,0.857,button_left_main,-0.357142857,-0.279081633,1,0,0,,0,154,154,136,1,WERVE,HB,old,z,./images/WERVEHB.png,,,,,,,,,,,,,,,,,,,,,,,,,,,,,,,,,
,,,,,,,,,,,,,,,,,60fded24de9d0e39caa58493,20,2022-02-12_13h43.56.610,lexical_decision_task_DD,2021.2.3,iPhone,58.82352941,,,,,,,,,,0.624,1,,,,,,,,,,,,,,,0,0.406122449,-0.311734694,1,0,0,0.624,button_right_main,0.406122449,-0.311734694,1,0,0,,0,155,155,18,1,JAGUAR,C,old,m,./images/JAGUAR.png,,,,,,,,,,,,,,,,,,,,,,,,,,,,,,,,,
,,,,,,,,,,,,,,,,,60fded24de9d0e39caa58493,20,2022-02-12_13h43.56.610,lexical_decision_task_DD,2021.2.3,iPhone,58.82352941,,,,,,,,,,0.839,1,,,,,,,,,,,,,,,0,-0.360204082,-0.293367347,1,0,0,0.839,button_left_main,-0.360204082,-0.293367347,1,0,0,,0,156,156,86,1,AIFED,LB,old,z,./images/AIFEDLB.png,,,,,,,,,,,,,,,,,,,,,,,,,,,,,,,,,
,,,,,,,,,,,,,,,,,60fded24de9d0e39caa58493,20,2022-02-12_13h43.56.610,lexical_decision_task_DD,2021.2.3,iPhone,58.82352941,,,,,,,,,,0.506,1,,,,,,,,,,,,,,,0,0.409183673,-0.310714286,1,0,0,0.506,button_right_main,0.409183673,-0.310714286,1,0,0,,0,157,157,74,1,CEMENT,LB,old,m,./images/CEMENTLB.png,,,,,,,,,,,,,,,,,,,,,,,,,,,,,,,,,
,,,,,,,,,,,,,,,,,60fded24de9d0e39caa58493,20,2022-02-12_13h43.56.610,lexical_decision_task_DD,2021.2.3,iPhone,58.82352941,,,,,,,,,,0.591,1,,,,,,,,,,,,,,,0,0.405102041,-0.31377551,1,0,0,0.591,button_right_main,0.405102041,-0.31377551,1,0,0,,0,158,158,34,1,CANYON,HB,old,m,./images/CANYONHB.png,,,,,,,,,,,,,,,,,,,,,,,,,,,,,,,,,
,,,,,,,,,,,,,,,,,60fded24de9d0e39caa58493,20,2022-02-12_13h43.56.610,lexical_decision_task_DD,2021.2.3,iPhone,58.82352941,,,,,,,,,,0.536,1,,,,,,,,,,,,,,,0,0.398979592,-0.309693878,1,0,0,0.536,button_right_main,0.398979592,-0.309693878,1,0,0,,0,159,159,23,1,WALRUS,LB,old,m,./images/WALRUSLB.png,,,,,,,,,,,,,,,,,,,,,,,,,,,,,,,,,
,,,,,,,,,,,,,,,,,60fded24de9d0e39caa58493,20,2022-02-12_13h43.56.610,lexical_decision_task_DD,2021.2.3,iPhone,58.82352941,,,,,,,,,,0.508,1,,,,,,,,,,,,,,,0,-0.347959184,-0.290306122,1,0,0,0.508,button_left_main,-0.347959184,-0.290306122,1,0,0,,0,160,160,126,1,GUELS,C,old,z,./images/GUELS.png,,,,,,,,,,,,,,,,,,,,,,,,,,,,,,,,,
,,,,,,,,,,,,,,,,,60fded24de9d0e39caa58493,20,2022-02-12_13h43.56.610,lexical_decision_task_DD,2021.2.3,iPhone,58.82352941,,,,,,,,,,0.708,1,,,,,,,,,,,,,,,0,-0.357142857,-0.278061224,1,0,0,0.708,button_left_main,-0.357142857,-0.278061224,1,0,0,,0,161,161,118,1,BAVEL,HB,old,z,./images/BAVELHB.png,,,,,,,,,,,,,,,,,,,,,,,,,,,,,,,,,
,,,,,,,,,,,,,,,,,60fded24de9d0e39caa58493,20,2022-02-12_13h43.56.610,lexical_decision_task_DD,2021.2.3,iPhone,58.82352941,,,,,,,,,,0.575,1,,,,,,,,,,,,,,,0,0.41122449,-0.317857143,1,0,0,0.575,button_right_main,0.41122449,-0.317857143,1,0,0,,0,162,162,25,1,WRIST,HB,old,m,./images/WRISTHB.png,,,,,,,,,,,,,,,,,,,,,,,,,,,,,,,,,
,,,,,,,,,,,,,,,,,60fded24de9d0e39caa58493,20,2022-02-12_13h43.56.610,lexical_decision_task_DD,2021.2.3,iPhone,58.82352941,,,,,,,,,,0.51,1,,,,,,,,,,,,,,,0,0.395918367,-0.30255102,1,0,0,0.51,button_right_main,0.395918367,-0.30255102,1,0,0,,0,163,163,47,1,BERRY,LB,old,m,./images/BERRYLB.png,,,,,,,,,,,,,,,,,,,,,,,,,,,,,,,,,
,,,,,,,,,,,,,,,,,60fded24de9d0e39caa58493,20,2022-02-12_13h43.56.610,lexical_decision_task_DD,2021.2.3,iPhone,58.82352941,,,,,,,,,,0.508,1,,,,,,,,,,,,,,,0,0.404081633,-0.308673469,1,0,0,0.508,button_right_main,0.404081633,-0.308673469,1,0,0,,0,164,164,80,1,WEASEL,LB,old,m,./images/WEASELLB.png,,,,,,,,,,,,,,,,,,,,,,,,,,,,,,,,,
,,,,,,,,,,,,,,,,,60fded24de9d0e39caa58493,20,2022-02-12_13h43.56.610,lexical_decision_task_DD,2021.2.3,iPhone,58.82352941,,,,,,,,,,0.574,1,,,,,,,,,,,,,,,0,-0.354081633,-0.294387755,1,0,0,0.574,button_left_main,-0.354081633,-0.294387755,1,0,0,,0,165,165,128,1,GRIFT,LB,old,z,./images/GRIFTLB.png,,,,,,,,,,,,,,,,,,,,,,,,,,,,,,,,,
,,,,,,,,,,,,,,,,,60fded24de9d0e39caa58493,20,2022-02-12_13h43.56.610,lexical_decision_task_DD,2021.2.3,iPhone,58.82352941,,,,,,,,,,0.857,1,,,,,,,,,,,,,,,0,-0.358163265,-0.281122449,1,0,0,0.857,button_left_main,-0.358163265,-0.281122449,1,0,0,,0,166,166,160,1,VEETS,HB,old,z,./images/VEETSHB.png,,,,,,,,,,,,,,,,,,,,,,,,,,,,,,,,,
,,,,,,,,,,,,,,,,,60fded24de9d0e39caa58493,20,2022-02-12_13h43.56.610,lexical_decision_task_DD,2021.2.3,iPhone,58.82352941,,,,,,,,,,0.657,1,,,,,,,,,,,,,,,0,-0.357142857,-0.29744898,1,0,0,0.657,button_left_main,-0.357142857,-0.29744898,1,0,0,,0,167,167,96,1,KEAMS,C,old,z,./images/KEAMS.png,,,,,,,,,,,,,,,,,,,,,,,,,,,,,,,,,
,,,,,,,,,,,,,,,,,60fded24de9d0e39caa58493,20,2022-02-12_13h43.56.610,lexical_decision_task_DD,2021.2.3,iPhone,58.82352941,,,,,,,,,,,,,,,,,,,,,,,,,,,,,,,,,,,,,,,,,,,,,,How likely will it be that you will recognize the words presented slighly blurred on a scale of 0 (not likely) to 100 (most likely)?,,,,,0.030612245,-0.411734694,1,0,0,jol_adv,5,4.256,0,0,0,1,1,,,,,,,,,,,,,,,,,,,
,,,,,,,,,,,,,,,,,60fded24de9d0e39caa58493,20,2022-02-12_13h43.56.610,lexical_decision_task_DD,2021.2.3,iPhone,58.82352941,,,,,,,,,,,,,,,,,,,,,,,,,,,,,,,,,,,,,,,,,,,,,,How likely will it be that you will recognize the words presented clearly on a scale of 0 (not likely) to 100 (most likely)?,,,,,,,,,,,6,4.588,0,1,1,0,1,,,,,,,,,,,,,,,,,,,
,,,,,,,,,,,,,,,,,60fded24de9d0e39caa58493,20,2022-02-12_13h43.56.610,lexical_decision_task_DD,2021.2.3,iPhone,58.82352941,,,,,,,,,,,,,,,,,,,,,,,,,,,,,,,,,,,,,,,,,,,,,,How likely will it be that you will recognize the words presented very blurred on a scale of 0 (not likely) to 100 (most likely)?,,,,,,,,,,,2,2.384,0,2,2,2,1,,,,,,,,,,,,,,,,,,,
,0.195918367,-0.410714286,1,0,0,instr_done_button,,,,,,1,test,"In the next phase you will be presented with the words from the the first phase. Your job is to decide whether you remember seeing the word or not. If you remember seeing the word press ""old"" or type ""m"". If you do not remember seeing the word press ""new"" or type ""z"". Please press the space bar or click on continue to begin. ",,,60fded24de9d0e39caa58493,20,2022-02-12_13h43.56.610,lexical_decision_task_DD,2021.2.3,iPhone,58.82352941,,,,,,,,,,,,,,,,,,,,,,,,,,,,,,,,,,,,,,,,,,,,,,,,,,,,,,,,,,,,,,,,0,0,0,0,1,,,,,,,,,,,,,,
,0.105102041,-0.395408163,1,0,0,instr_done_button,,,,,,1,test,"In the next phase you will be presented with the words from the the first phase. Your job is to decide whether you remember seeing the word or not. If you remember seeing the word press ""old"" or type ""m"". If you do not remember seeing the word press ""new"" or type ""z"". Please press the space bar or click on continue to begin. ",,,60fded24de9d0e39caa58493,20,2022-02-12_13h43.56.610,lexical_decision_task_DD,2021.2.3,iPhone,58.82352941,,,,,,,,,,,,,,,,,,,,,,,,,,,,,,,,,,,,,,,,,,,,,,,,,,,,,,,,,,,,,,,,1,0,1,0,1,,,,,,,,,,,,,,
,0.058163265,-0.404591837,1,0,0,instr_done_button,,,,,,1,test,"In the next phase you will be presented with the words from the the first phase. Your job is to decide whether you remember seeing the word or not. If you remember seeing the word press ""old"" or type ""m"". If you do not remember seeing the word press ""new"" or type ""z"". Please press the space bar or click on continue to begin. ",,,60fded24de9d0e39caa58493,20,2022-02-12_13h43.56.610,lexical_decision_task_DD,2021.2.3,iPhone,58.82352941,,,,,,,,,,,,,,,,,,,,,,,,,,,,,,,,,,,,,,,,,,,,,,,,,,,,,,,,,,,,,,,,2,0,2,0,1,,,,,,,,,,,,,,
,0.066326531,-0.401530612,1,0,0,instr_done_button,,,,,,1,test,"In the next phase you will be presented with the words from the the first phase. Your job is to decide whether you remember seeing the word or not. If you remember seeing the word press ""old"" or type ""m"". If you do not remember seeing the word press ""new"" or type ""z"". Please press the space bar or click on continue to begin. ",,,60fded24de9d0e39caa58493,20,2022-02-12_13h43.56.610,lexical_decision_task_DD,2021.2.3,iPhone,58.82352941,,,,,,,,,,,,,,,,,,,,,,,,,,,,,,,,,,,,,,,,,,,,,,,,,,,,,,,,,,,,,,,,3,0,3,0,1,,,,,,,,,,,,,,
,0.030612245,-0.407653061,1,0,0,instr_done_button,,,,,,1,test,"In the next phase you will be presented with the words from the the first phase. Your job is to decide whether you remember seeing the word or not. If you remember seeing the word press ""old"" or type ""m"". If you do not remember seeing the word press ""new"" or type ""z"". Please press the space bar or click on continue to begin. ",,,60fded24de9d0e39caa58493,20,2022-02-12_13h43.56.610,lexical_decision_task_DD,2021.2.3,iPhone,58.82352941,,,,,,,,,,,,,,,,,,,,,,,,,,,,,,,,,,,,,,,,,,,,,,,,,,,,,,,,,,,,,,,,4,0,4,0,1,,,,,,,,,,,,,,
,,,,,,,,,,,,,,,,,60fded24de9d0e39caa58493,20,2022-02-12_13h43.56.610,lexical_decision_task_DD,2021.2.3,iPhone,58.82352941,,,,,,,,,,1.841,1,,,,,,,,,,,,,,,,,,,,,,,0.389795918,-0.35255102,1,0,0,,,,,,,MUSCLE,HB,m,m,./images/MUSCLEHB.png,,,,,,,,,,,,,,,,,,,,,0,0.389795918,-0.35255102,1,0,0,1.841,button_right_test,0,0,0,4,1
,,,,,,,,,,,,,,,,,60fded24de9d0e39caa58493,20,2022-02-12_13h43.56.610,lexical_decision_task_DD,2021.2.3,iPhone,58.82352941,,,,,,,,,,1.343,1,,,,,,,,,,,,,,,,,,,,,,,-0.41122449,-0.326020408,1,0,0,,,,,,,PISTOL,LB,z,m,./images/PISTOLLB.png,,,,,,,,,,,,,,,,,,,,,0,-0.41122449,-0.326020408,1,0,0,1.343,button_left_test,0,1,1,113,1
,,,,,,,,,,,,,,,,,60fded24de9d0e39caa58493,20,2022-02-12_13h43.56.610,lexical_decision_task_DD,2021.2.3,iPhone,58.82352941,,,,,,,,,,0.975,1,,,,,,,,,,,,,,,,,,,,,,,0.4,-0.309693878,1,0,0,,,,,,,JAGUAR,C,m,m,./images/JAGUAR.png,,,,,,,,,,,,,,,,,,,,,0,0.4,-0.309693878,1,0,0,0.975,button_right_test,0,2,2,18,1
,,,,,,,,,,,,,,,,,60fded24de9d0e39caa58493,20,2022-02-12_13h43.56.610,lexical_decision_task_DD,2021.2.3,iPhone,58.82352941,,,,,,,,,,1.007,1,,,,,,,,,,,,,,,,,,,,,,,0.397959184,-0.304591837,1,0,0,,,,,,,JUNGLE,LB,m,m,./images/JUNGLELB.png,,,,,,,,,,,,,,,,,,,,,0,0.397959184,-0.304591837,1,0,0,1.007,button_right_test,0,3,3,83,1
,,,,,,,,,,,,,,,,,60fded24de9d0e39caa58493,20,2022-02-12_13h43.56.610,lexical_decision_task_DD,2021.2.3,iPhone,58.82352941,,,,,,,,,,0.925,1,,,,,,,,,,,,,,,,,,,,,,,-0.381632653,-0.285204082,1,0,0,,,,,,,STATUE,C,z,m,./images/STATUE.png,,,,,,,,,,,,,,,,,,,,,0,-0.381632653,-0.285204082,1,0,0,0.925,button_left_test,0,4,4,150,1
,,,,,,,,,,,,,,,,,60fded24de9d0e39caa58493,20,2022-02-12_13h43.56.610,lexical_decision_task_DD,2021.2.3,iPhone,58.82352941,,,,,,,,,,0.771,1,,,,,,,,,,,,,,,,,,,,,,,-0.379591837,-0.298469388,1,0,0,,,,,,,TIGER,HB,z,m,./images/TIGERHB.png,,,,,,,,,,,,,,,,,,,,,0,-0.379591837,-0.298469388,1,0,0,0.771,button_left_test,0,5,5,121,1
,,,,,,,,,,,,,,,,,60fded24de9d0e39caa58493,20,2022-02-12_13h43.56.610,lexical_decision_task_DD,2021.2.3,iPhone,58.82352941,,,,,,,,,,0.772,1,,,,,,,,,,,,,,,,,,,,,,,-0.396938776,-0.320918367,1,0,0,,,,,,,SPINE,LB,z,m,./images/SPINELB.png,,,,,,,,,,,,,,,,,,,,,0,-0.396938776,-0.320918367,1,0,0,0.772,button_left_test,0,6,6,149,1
,,,,,,,,,,,,,,,,,60fded24de9d0e39caa58493,20,2022-02-12_13h43.56.610,lexical_decision_task_DD,2021.2.3,iPhone,58.82352941,,,,,,,,,,1.326,0,,,,,,,,,,,,,,,,,,,,,,,0.413265306,-0.331122449,1,0,0,,,,,,,FENCE,LB,z,m,./images/FENCELB.png,,,,,,,,,,,,,,,,,,,,,0,0.413265306,-0.331122449,1,0,0,1.326,button_right_test,0,7,7,98,1
,,,,,,,,,,,,,,,,,60fded24de9d0e39caa58493,20,2022-02-12_13h43.56.610,lexical_decision_task_DD,2021.2.3,iPhone,58.82352941,,,,,,,,,,0.707,1,,,,,,,,,,,,,,,,,,,,,,,-0.384693878,-0.318877551,1,0,0,,,,,,,SAUNA,C,z,m,./images/SAUNA.png,,,,,,,,,,,,,,,,,,,,,0,-0.384693878,-0.318877551,1,0,0,0.707,button_left_test,0,8,8,117,1
,,,,,,,,,,,,,,,,,60fded24de9d0e39caa58493,20,2022-02-12_13h43.56.610,lexical_decision_task_DD,2021.2.3,iPhone,58.82352941,,,,,,,,,,0.741,1,,,,,,,,,,,,,,,,,,,,,,,0.405102041,-0.312755102,1,0,0,,,,,,,SMOKER,LB,m,m,./images/SMOKERLB.png,,,,,,,,,,,,,,,,,,,,,0,0.405102041,-0.312755102,1,0,0,0.741,button_right_test,0,9,9,26,1
,,,,,,,,,,,,,,,,,60fded24de9d0e39caa58493,20,2022-02-12_13h43.56.610,lexical_decision_task_DD,2021.2.3,iPhone,58.82352941,,,,,,,,,,0.757,1,,,,,,,,,,,,,,,,,,,,,,,-0.390816327,-0.310714286,1,0,0,,,,,,,GRANNY,LB,z,m,./images/GRANNYLB.png,,,,,,,,,,,,,,,,,,,,,0,-0.390816327,-0.310714286,1,0,0,0.757,button_left_test,0,10,10,104,1
,,,,,,,,,,,,,,,,,60fded24de9d0e39caa58493,20,2022-02-12_13h43.56.610,lexical_decision_task_DD,2021.2.3,iPhone,58.82352941,,,,,,,,,,1.407,0,,,,,,,,,,,,,,,,,,,,,,,0.406122449,-0.330102041,1,0,0,,,,,,,PILOT,LB,z,m,./images/PILOTLB.png,,,,,,,,,,,,,,,,,,,,,0,0.406122449,-0.330102041,1,0,0,1.407,button_right_test,0,11,11,134,1
,,,,,,,,,,,,,,,,,60fded24de9d0e39caa58493,20,2022-02-12_13h43.56.610,lexical_decision_task_DD,2021.2.3,iPhone,58.82352941,,,,,,,,,,0.607,0,,,,,,,,,,,,,,,,,,,,,,,0.404081633,-0.314795918,1,0,0,,,,,,,CHAIN,C,z,m,./images/CHAIN.png,,,,,,,,,,,,,,,,,,,,,0,0.404081633,-0.314795918,1,0,0,0.607,button_right_test,0,12,12,126,1
,,,,,,,,,,,,,,,,,60fded24de9d0e39caa58493,20,2022-02-12_13h43.56.610,lexical_decision_task_DD,2021.2.3,iPhone,58.82352941,,,,,,,,,,0.824,0,,,,,,,,,,,,,,,,,,,,,,,-0.407142857,-0.312755102,1,0,0,,,,,,,PAINT,HB,m,m,./images/PAINTHB.png,,,,,,,,,,,,,,,,,,,,,0,-0.407142857,-0.312755102,1,0,0,0.824,button_left_test,0,13,13,7,1
,,,,,,,,,,,,,,,,,60fded24de9d0e39caa58493,20,2022-02-12_13h43.56.610,lexical_decision_task_DD,2021.2.3,iPhone,58.82352941,,,,,,,,,,0.775,1,,,,,,,,,,,,,,,,,,,,,,,-0.406122449,-0.312755102,1,0,0,,,,,,,CLOUD,LB,z,m,./images/CLOUDLB.png,,,,,,,,,,,,,,,,,,,,,0,-0.406122449,-0.312755102,1,0,0,0.775,button_left_test,0,14,14,110,1
,,,,,,,,,,,,,,,,,60fded24de9d0e39caa58493,20,2022-02-12_13h43.56.610,lexical_decision_task_DD,2021.2.3,iPhone,58.82352941,,,,,,,,,,1.142,1,,,,,,,,,,,,,,,,,,,,,,,-0.386734694,-0.291326531,1,0,0,,,,,,,ALLEY,HB,z,m,./images/ALLEYHB.png,,,,,,,,,,,,,,,,,,,,,0,-0.386734694,-0.291326531,1,0,0,1.142,button_left_test,0,15,15,139,1
,,,,,,,,,,,,,,,,,60fded24de9d0e39caa58493,20,2022-02-12_13h43.56.610,lexical_decision_task_DD,2021.2.3,iPhone,58.82352941,,,,,,,,,,0.819,1,,,,,,,,,,,,,,,,,,,,,,,-0.369387755,-0.31377551,1,0,0,,,,,,,STOVE,LB,z,m,./images/STOVELB.png,,,,,,,,,,,,,,,,,,,,,0,-0.369387755,-0.31377551,1,0,0,0.819,button_left_test,0,16,16,86,1
,,,,,,,,,,,,,,,,,60fded24de9d0e39caa58493,20,2022-02-12_13h43.56.610,lexical_decision_task_DD,2021.2.3,iPhone,58.82352941,,,,,,,,,,0.877,0,,,,,,,,,,,,,,,,,,,,,,,0.393877551,-0.299489796,1,0,0,,,,,,,PLANET,LB,z,m,./images/PLANETLB.png,,,,,,,,,,,,,,,,,,,,,0,0.393877551,-0.299489796,1,0,0,0.877,button_right_test,0,17,17,164,1
,,,,,,,,,,,,,,,,,60fded24de9d0e39caa58493,20,2022-02-12_13h43.56.610,lexical_decision_task_DD,2021.2.3,iPhone,58.82352941,,,,,,,,,,0.638,0,,,,,,,,,,,,,,,,,,,,,,,0.390816327,-0.301530612,1,0,0,,,,,,,WHEEL,LB,z,m,./images/WHEELLB.png,,,,,,,,,,,,,,,,,,,,,0,0.390816327,-0.301530612,1,0,0,0.638,button_right_test,0,18,18,161,1
,,,,,,,,,,,,,,,,,60fded24de9d0e39caa58493,20,2022-02-12_13h43.56.610,lexical_decision_task_DD,2021.2.3,iPhone,58.82352941,,,,,,,,,,0.855,0,,,,,,,,,,,,,,,,,,,,,,,-0.381632653,-0.314795918,1,0,0,,,,,,,PENCE,HB,m,m,./images/PENCEHB.png,,,,,,,,,,,,,,,,,,,,,0,-0.381632653,-0.314795918,1,0,0,0.855,button_left_test,0,19,19,16,1
,,,,,,,,,,,,,,,,,60fded24de9d0e39caa58493,20,2022-02-12_13h43.56.610,lexical_decision_task_DD,2021.2.3,iPhone,58.82352941,,,,,,,,,,1.358,0,,,,,,,,,,,,,,,,,,,,,,,0.375510204,-0.310714286,1,0,0,,,,,,,RAZOR,HB,z,m,./images/RAZORHB.png,,,,,,,,,,,,,,,,,,,,,0,0.375510204,-0.310714286,1,0,0,1.358,button_right_test,0,20,20,118,1
,,,,,,,,,,,,,,,,,60fded24de9d0e39caa58493,20,2022-02-12_13h43.56.610,lexical_decision_task_DD,2021.2.3,iPhone,58.82352941,,,,,,,,,,0.742,1,,,,,,,,,,,,,,,,,,,,,,,0.420408163,-0.320918367,1,0,0,,,,,,,BERRY,LB,m,m,./images/BERRYLB.png,,,,,,,,,,,,,,,,,,,,,0,0.420408163,-0.320918367,1,0,0,0.742,button_right_test,0,21,21,47,1
,,,,,,,,,,,,,,,,,60fded24de9d0e39caa58493,20,2022-02-12_13h43.56.610,lexical_decision_task_DD,2021.2.3,iPhone,58.82352941,,,,,,,,,,1.591,1,,,,,,,,,,,,,,,,,,,,,,,-0.394897959,-0.328061224,1,0,0,,,,,,,MUMMY,HB,z,m,./images/MUMMYHB.png,,,,,,,,,,,,,,,,,,,,,0,-0.394897959,-0.328061224,1,0,0,1.591,button_left_test,0,22,22,130,1
,,,,,,,,,,,,,,,,,60fded24de9d0e39caa58493,20,2022-02-12_13h43.56.610,lexical_decision_task_DD,2021.2.3,iPhone,58.82352941,,,,,,,,,,1.191,1,,,,,,,,,,,,,,,,,,,,,,,-0.383673469,-0.315816327,1,0,0,,,,,,,CRATER,C,z,m,./images/CRATER.png,,,,,,,,,,,,,,,,,,,,,0,-0.383673469,-0.315816327,1,0,0,1.191,button_left_test,0,23,23,87,1
,,,,,,,,,,,,,,,,,60fded24de9d0e39caa58493,20,2022-02-12_13h43.56.610,lexical_decision_task_DD,2021.2.3,iPhone,58.82352941,,,,,,,,,,0.674,1,,,,,,,,,,,,,,,,,,,,,,,0.424489796,-0.326020408,1,0,0,,,,,,,SWEAT,C,m,m,./images/SWEAT.png,,,,,,,,,,,,,,,,,,,,,0,0.424489796,-0.326020408,1,0,0,0.674,button_right_test,0,24,24,66,1
,,,,,,,,,,,,,,,,,60fded24de9d0e39caa58493,20,2022-02-12_13h43.56.610,lexical_decision_task_DD,2021.2.3,iPhone,58.82352941,,,,,,,,,,0.691,1,,,,,,,,,,,,,,,,,,,,,,,-0.408163265,-0.322959184,1,0,0,,,,,,,BRIDE,HB,z,m,./images/BRIDEHB.png,,,,,,,,,,,,,,,,,,,,,0,-0.408163265,-0.322959184,1,0,0,0.691,button_left_test,0,25,25,148,1
,,,,,,,,,,,,,,,,,60fded24de9d0e39caa58493,20,2022-02-12_13h43.56.610,lexical_decision_task_DD,2021.2.3,iPhone,58.82352941,,,,,,,,,,0.756,0,,,,,,,,,,,,,,,,,,,,,,,0.425510204,-0.326020408,1,0,0,,,,,,,STAIN,C,z,m,./images/STAIN.png,,,,,,,,,,,,,,,,,,,,,0,0.425510204,-0.326020408,1,0,0,0.756,button_right_test,0,26,26,90,1
,,,,,,,,,,,,,,,,,60fded24de9d0e39caa58493,20,2022-02-12_13h43.56.610,lexical_decision_task_DD,2021.2.3,iPhone,58.82352941,,,,,,,,,,1.558,1,,,,,,,,,,,,,,,,,,,,,,,-0.394897959,-0.316836735,1,0,0,,,,,,,LAGOON,LB,z,m,./images/LAGOONLB.png,,,,,,,,,,,,,,,,,,,,,0,-0.394897959,-0.316836735,1,0,0,1.558,button_left_test,0,27,27,131,1
,,,,,,,,,,,,,,,,,60fded24de9d0e39caa58493,20,2022-02-12_13h43.56.610,lexical_decision_task_DD,2021.2.3,iPhone,58.82352941,,,,,,,,,,0.723,1,,,,,,,,,,,,,,,,,,,,,,,0.420408163,-0.326020408,1,0,0,,,,,,,MALLET,LB,m,m,./images/MALLETLB.png,,,,,,,,,,,,,,,,,,,,,0,0.420408163,-0.326020408,1,0,0,0.723,button_right_test,0,28,28,50,1
,,,,,,,,,,,,,,,,,60fded24de9d0e39caa58493,20,2022-02-12_13h43.56.610,lexical_decision_task_DD,2021.2.3,iPhone,58.82352941,,,,,,,,,,0.623,1,,,,,,,,,,,,,,,,,,,,,,,0.416326531,-0.314795918,1,0,0,,,,,,,TORCH,LB,m,m,./images/TORCHLB.png,,,,,,,,,,,,,,,,,,,,,0,0.416326531,-0.314795918,1,0,0,0.623,button_right_test,0,29,29,68,1
,,,,,,,,,,,,,,,,,60fded24de9d0e39caa58493,20,2022-02-12_13h43.56.610,lexical_decision_task_DD,2021.2.3,iPhone,58.82352941,,,,,,,,,,0.607,1,,,,,,,,,,,,,,,,,,,,,,,0.4,-0.327040816,1,0,0,,,,,,,PIMPLE,LB,m,m,./images/PIMPLELB.png,,,,,,,,,,,,,,,,,,,,,0,0.4,-0.327040816,1,0,0,0.607,button_right_test,0,30,30,71,1
,,,,,,,,,,,,,,,,,60fded24de9d0e39caa58493,20,2022-02-12_13h43.56.610,lexical_decision_task_DD,2021.2.3,iPhone,58.82352941,,,,,,,,,,0.938,1,,,,,,,,,,,,,,,,,,,,,,,0.398979592,-0.312755102,1,0,0,,,,,,,CANDLE,HB,m,m,./images/CANDLEHB.png,,,,,,,,,,,,,,,,,,,,,0,0.398979592,-0.312755102,1,0,0,0.938,button_right_test,0,31,31,61,1
,,,,,,,,,,,,,,,,,60fded24de9d0e39caa58493,20,2022-02-12_13h43.56.610,lexical_decision_task_DD,2021.2.3,iPhone,58.82352941,,,,,,,,,,0.725,0,,,,,,,,,,,,,,,,,,,,,,,-0.380612245,-0.331122449,1,0,0,,,,,,,JELLY,HB,m,m,./images/JELLYHB.png,,,,,,,,,,,,,,,,,,,,,0,-0.380612245,-0.331122449,1,0,0,0.725,button_left_test,0,32,32,64,1
,,,,,,,,,,,,,,,,,60fded24de9d0e39caa58493,20,2022-02-12_13h43.56.610,lexical_decision_task_DD,2021.2.3,iPhone,58.82352941,,,,,,,,,,0.642,1,,,,,,,,,,,,,,,,,,,,,,,0.410204082,-0.314795918,1,0,0,,,,,,,LITTER,C,m,m,./images/LITTER.png,,,,,,,,,,,,,,,,,,,,,0,0.410204082,-0.314795918,1,0,0,0.642,button_right_test,0,33,33,78,1
,,,,,,,,,,,,,,,,,60fded24de9d0e39caa58493,20,2022-02-12_13h43.56.610,lexical_decision_task_DD,2021.2.3,iPhone,58.82352941,,,,,,,,,,0.707,0,,,,,,,,,,,,,,,,,,,,,,,-0.390816327,-0.325,1,0,0,,,,,,,MELON,HB,m,m,./images/MELONHB.png,,,,,,,,,,,,,,,,,,,,,0,-0.390816327,-0.325,1,0,0,0.707,button_left_test,0,34,34,22,1
,,,,,,,,,,,,,,,,,60fded24de9d0e39caa58493,20,2022-02-12_13h43.56.610,lexical_decision_task_DD,2021.2.3,iPhone,58.82352941,,,,,,,,,,0.64,1,,,,,,,,,,,,,,,,,,,,,,,0.393877551,-0.303571429,1,0,0,,,,,,,SHORE,C,m,m,./images/SHORE.png,,,,,,,,,,,,,,,,,,,,,0,0.393877551,-0.303571429,1,0,0,0.64,button_right_test,0,35,35,12,1
,,,,,,,,,,,,,,,,,60fded24de9d0e39caa58493,20,2022-02-12_13h43.56.610,lexical_decision_task_DD,2021.2.3,iPhone,58.82352941,,,,,,,,,,0.675,1,,,,,,,,,,,,,,,,,,,,,,,0.407142857,-0.316836735,1,0,0,,,,,,,KIDNEY,C,m,m,./images/KIDNEY.png,,,,,,,,,,,,,,,,,,,,,0,0.407142857,-0.316836735,1,0,0,0.675,button_right_test,0,36,36,21,1
,,,,,,,,,,,,,,,,,60fded24de9d0e39caa58493,20,2022-02-12_13h43.56.610,lexical_decision_task_DD,2021.2.3,iPhone,58.82352941,,,,,,,,,,0.758,0,,,,,,,,,,,,,,,,,,,,,,,-0.375510204,-0.329081633,1,0,0,,,,,,,BEARD,LB,m,m,./images/BEARDLB.png,,,,,,,,,,,,,,,,,,,,,0,-0.375510204,-0.329081633,1,0,0,0.758,button_left_test,0,37,37,2,1
,,,,,,,,,,,,,,,,,60fded24de9d0e39caa58493,20,2022-02-12_13h43.56.610,lexical_decision_task_DD,2021.2.3,iPhone,58.82352941,,,,,,,,,,0.807,1,,,,,,,,,,,,,,,,,,,,,,,0.401020408,-0.333163265,1,0,0,,,,,,,PEACH,LB,m,m,./images/PEACHLB.png,,,,,,,,,,,,,,,,,,,,,0,0.401020408,-0.333163265,1,0,0,0.807,button_right_test,0,38,38,35,1
,,,,,,,,,,,,,,,,,60fded24de9d0e39caa58493,20,2022-02-12_13h43.56.610,lexical_decision_task_DD,2021.2.3,iPhone,58.82352941,,,,,,,,,,0.874,1,,,,,,,,,,,,,,,,,,,,,,,-0.416326531,-0.323979592,1,0,0,,,,,,,MONKEY,C,z,m,./images/MONKEY.png,,,,,,,,,,,,,,,,,,,,,0,-0.416326531,-0.323979592,1,0,0,0.874,button_left_test,0,39,39,129,1
,,,,,,,,,,,,,,,,,60fded24de9d0e39caa58493,20,2022-02-12_13h43.56.610,lexical_decision_task_DD,2021.2.3,iPhone,58.82352941,,,,,,,,,,0.822,1,,,,,,,,,,,,,,,,,,,,,,,-0.392857143,-0.306632653,1,0,0,,,,,,,MIDGET,HB,z,m,./images/MIDGETHB.png,,,,,,,,,,,,,,,,,,,,,0,-0.392857143,-0.306632653,1,0,0,0.822,button_left_test,0,40,40,160,1
,,,,,,,,,,,,,,,,,60fded24de9d0e39caa58493,20,2022-02-12_13h43.56.610,lexical_decision_task_DD,2021.2.3,iPhone,58.82352941,,,,,,,,,,1.026,1,,,,,,,,,,,,,,,,,,,,,,,0.12755102,-0.38622449,1,0,0,,,,,,,JUMPER,LB,z,m,./images/JUMPERLB.png,break_done_button,,,,,,,,,,,,,,,,,,,,0,-0.404081633,-0.314795918,1,0,0,1.026,button_left_test,0,41,41,158,1
,,,,,,,,,,,,,,,,,60fded24de9d0e39caa58493,20,2022-02-12_13h43.56.610,lexical_decision_task_DD,2021.2.3,iPhone,58.82352941,,,,,,,,,,1.057,1,,,,,,,,,,,,,,,,,,,,,,,0.386734694,-0.312755102,1,0,0,,,,,,,DOUGH,HB,m,m,./images/DOUGHHB.png,,,,,,,,,,,,,,,,,,,,,0,0.386734694,-0.312755102,1,0,0,1.057,button_right_test,0,42,42,19,1
,,,,,,,,,,,,,,,,,60fded24de9d0e39caa58493,20,2022-02-12_13h43.56.610,lexical_decision_task_DD,2021.2.3,iPhone,58.82352941,,,,,,,,,,0.591,1,,,,,,,,,,,,,,,,,,,,,,,0.384693878,-0.321938776,1,0,0,,,,,,,WEASEL,LB,m,m,./images/WEASELLB.png,,,,,,,,,,,,,,,,,,,,,0,0.384693878,-0.321938776,1,0,0,0.591,button_right_test,0,43,43,80,1
,,,,,,,,,,,,,,,,,60fded24de9d0e39caa58493,20,2022-02-12_13h43.56.610,lexical_decision_task_DD,2021.2.3,iPhone,58.82352941,,,,,,,,,,0.675,1,,,,,,,,,,,,,,,,,,,,,,,0.370408163,-0.330102041,1,0,0,,,,,,,WRIST,HB,m,m,./images/WRISTHB.png,,,,,,,,,,,,,,,,,,,,,0,0.370408163,-0.330102041,1,0,0,0.675,button_right_test,0,44,44,25,1
,,,,,,,,,,,,,,,,,60fded24de9d0e39caa58493,20,2022-02-12_13h43.56.610,lexical_decision_task_DD,2021.2.3,iPhone,58.82352941,,,,,,,,,,0.642,1,,,,,,,,,,,,,,,,,,,,,,,-0.358163265,-0.304591837,1,0,0,,,,,,,ARROW,C,z,m,./images/ARROW.png,,,,,,,,,,,,,,,,,,,,,0,-0.358163265,-0.304591837,1,0,0,0.642,button_left_test,0,45,45,153,1
,,,,,,,,,,,,,,,,,60fded24de9d0e39caa58493,20,2022-02-12_13h43.56.610,lexical_decision_task_DD,2021.2.3,iPhone,58.82352941,,,,,,,,,,0.638,1,,,,,,,,,,,,,,,,,,,,,,,0.370408163,-0.314795918,1,0,0,,,,,,,BABOON,HB,m,m,./images/BABOONHB.png,,,,,,,,,,,,,,,,,,,,,0,0.370408163,-0.314795918,1,0,0,0.638,button_right_test,0,46,46,58,1
,,,,,,,,,,,,,,,,,60fded24de9d0e39caa58493,20,2022-02-12_13h43.56.610,lexical_decision_task_DD,2021.2.3,iPhone,58.82352941,,,,,,,,,,0.723,1,,,,,,,,,,,,,,,,,,,,,,,-0.362244898,-0.311734694,1,0,0,,,,,,,GARDEN,HB,z,m,./images/GARDENHB.png,,,,,,,,,,,,,,,,,,,,,0,-0.362244898,-0.311734694,1,0,0,0.723,button_left_test,0,47,47,94,1
,,,,,,,,,,,,,,,,,60fded24de9d0e39caa58493,20,2022-02-12_13h43.56.610,lexical_decision_task_DD,2021.2.3,iPhone,58.82352941,,,,,,,,,,1.041,0,,,,,,,,,,,,,,,,,,,,,,,-0.366326531,-0.309693878,1,0,0,,,,,,,CANYON,HB,m,m,./images/CANYONHB.png,,,,,,,,,,,,,,,,,,,,,0,-0.366326531,-0.309693878,1,0,0,1.041,button_left_test,0,48,48,34,1
,,,,,,,,,,,,,,,,,60fded24de9d0e39caa58493,20,2022-02-12_13h43.56.610,lexical_decision_task_DD,2021.2.3,iPhone,58.82352941,,,,,,,,,,0.809,1,,,,,,,,,,,,,,,,,,,,,,,-0.368367347,-0.299489796,1,0,0,,,,,,,WALNUT,C,z,m,./images/WALNUT.png,,,,,,,,,,,,,,,,,,,,,0,-0.368367347,-0.299489796,1,0,0,0.809,button_left_test,0,49,49,84,1
,,,,,,,,,,,,,,,,,60fded24de9d0e39caa58493,20,2022-02-12_13h43.56.610,lexical_decision_task_DD,2021.2.3,iPhone,58.82352941,,,,,,,,,,2.077,0,,,,,,,,,,,,,,,,,,,,,,,-0.373469388,-0.294387755,1,0,0,,,,,,,SQUARE,C,m,m,./images/SQUARE.png,,,,,,,,,,,,,,,,,,,,,0,-0.373469388,-0.294387755,1,0,0,2.077,button_left_test,0,50,50,6,1
,,,,,,,,,,,,,,,,,60fded24de9d0e39caa58493,20,2022-02-12_13h43.56.610,lexical_decision_task_DD,2021.2.3,iPhone,58.82352941,,,,,,,,,,1.008,1,,,,,,,,,,,,,,,,,,,,,,,-0.386734694,-0.308673469,1,0,0,,,,,,,BASKET,LB,z,m,./images/BASKETLB.png,,,,,,,,,,,,,,,,,,,,,0,-0.386734694,-0.308673469,1,0,0,1.008,button_left_test,0,51,51,128,1
,,,,,,,,,,,,,,,,,60fded24de9d0e39caa58493,20,2022-02-12_13h43.56.610,lexical_decision_task_DD,2021.2.3,iPhone,58.82352941,,,,,,,,,,1.058,1,,,,,,,,,,,,,,,,,,,,,,,-0.384693878,-0.293367347,1,0,0,,,,,,,MAMMAL,LB,z,m,./images/MAMMALLB.png,,,,,,,,,,,,,,,,,,,,,0,-0.384693878,-0.293367347,1,0,0,1.058,button_left_test,0,52,52,146,1
,,,,,,,,,,,,,,,,,60fded24de9d0e39caa58493,20,2022-02-12_13h43.56.610,lexical_decision_task_DD,2021.2.3,iPhone,58.82352941,,,,,,,,,,0.756,1,,,,,,,,,,,,,,,,,,,,,,,-0.386734694,-0.312755102,1,0,0,,,,,,,PARADE,LB,z,m,./images/PARADELB.png,,,,,,,,,,,,,,,,,,,,,0,-0.386734694,-0.312755102,1,0,0,0.756,button_left_test,0,53,53,101,1
,,,,,,,,,,,,,,,,,60fded24de9d0e39caa58493,20,2022-02-12_13h43.56.610,lexical_decision_task_DD,2021.2.3,iPhone,58.82352941,,,,,,,,,,0.841,1,,,,,,,,,,,,,,,,,,,,,,,0.378571429,-0.323979592,1,0,0,,,,,,,BARREL,LB,m,m,./images/BARRELLB.png,,,,,,,,,,,,,,,,,,,,,0,0.378571429,-0.323979592,1,0,0,0.841,button_right_test,0,54,54,32,1
,,,,,,,,,,,,,,,,,60fded24de9d0e39caa58493,20,2022-02-12_13h43.56.610,lexical_decision_task_DD,2021.2.3,iPhone,58.82352941,,,,,,,,,,0.706,1,,,,,,,,,,,,,,,,,,,,,,,-0.365306122,-0.326020408,1,0,0,,,,,,,STOOL,HB,z,m,./images/STOOLHB.png,,,,,,,,,,,,,,,,,,,,,0,-0.365306122,-0.326020408,1,0,0,0.706,button_left_test,0,55,55,127,1
,,,,,,,,,,,,,,,,,60fded24de9d0e39caa58493,20,2022-02-12_13h43.56.610,lexical_decision_task_DD,2021.2.3,iPhone,58.82352941,,,,,,,,,,3.196,1,,,,,,,,,,,,,,,,,,,,,,,-0.390816327,-0.312755102,1,0,0,,,,,,,CASINO,HB,z,m,./images/CASINOHB.png,,,,,,,,,,,,,,,,,,,,,0,-0.390816327,-0.312755102,1,0,0,3.196,button_left_test,0,56,56,112,1
,,,,,,,,,,,,,,,,,60fded24de9d0e39caa58493,20,2022-02-12_13h43.56.610,lexical_decision_task_DD,2021.2.3,iPhone,58.82352941,,,,,,,,,,0.841,1,,,,,,,,,,,,,,,,,,,,,,,0.425510204,-0.320918367,1,0,0,,,,,,,SPORT,C,m,m,./images/SPORT.png,,,,,,,,,,,,,,,,,,,,,0,0.425510204,-0.320918367,1,0,0,0.841,button_right_test,0,57,57,48,1
,,,,,,,,,,,,,,,,,60fded24de9d0e39caa58493,20,2022-02-12_13h43.56.610,lexical_decision_task_DD,2021.2.3,iPhone,58.82352941,,,,,,,,,,0.675,1,,,,,,,,,,,,,,,,,,,,,,,0.383673469,-0.309693878,1,0,0,,,,,,,CARPET,LB,m,m,./images/CARPETLB.png,,,,,,,,,,,,,,,,,,,,,0,0.383673469,-0.309693878,1,0,0,0.675,button_right_test,0,58,58,53,1
,,,,,,,,,,,,,,,,,60fded24de9d0e39caa58493,20,2022-02-12_13h43.56.610,lexical_decision_task_DD,2021.2.3,iPhone,58.82352941,,,,,,,,,,1.025,0,,,,,,,,,,,,,,,,,,,,,,,0.406122449,-0.320918367,1,0,0,,,,,,,TOWEL,HB,z,m,./images/TOWELHB.png,,,,,,,,,,,,,,,,,,,,,0,0.406122449,-0.320918367,1,0,0,1.025,button_right_test,0,59,59,85,1
,,,,,,,,,,,,,,,,,60fded24de9d0e39caa58493,20,2022-02-12_13h43.56.610,lexical_decision_task_DD,2021.2.3,iPhone,58.82352941,,,,,,,,,,0.959,1,,,,,,,,,,,,,,,,,,,,,,,0.410204082,-0.304591837,1,0,0,,,,,,,POODLE,C,m,m,./images/POODLE.png,,,,,,,,,,,,,,,,,,,,,0,0.410204082,-0.304591837,1,0,0,0.959,button_right_test,0,60,60,81,1
,,,,,,,,,,,,,,,,,60fded24de9d0e39caa58493,20,2022-02-12_13h43.56.610,lexical_decision_task_DD,2021.2.3,iPhone,58.82352941,,,,,,,,,,0.792,1,,,,,,,,,,,,,,,,,,,,,,,0.421428571,-0.314795918,1,0,0,,,,,,,FINGER,C,m,m,./images/FINGER.png,,,,,,,,,,,,,,,,,,,,,0,0.421428571,-0.314795918,1,0,0,0.792,button_right_test,0,61,61,3,1
,,,,,,,,,,,,,,,,,60fded24de9d0e39caa58493,20,2022-02-12_13h43.56.610,lexical_decision_task_DD,2021.2.3,iPhone,58.82352941,,,,,,,,,,0.924,0,,,,,,,,,,,,,,,,,,,,,,,0.404081633,-0.300510204,1,0,0,,,,,,,STEAK,HB,z,m,./images/STEAKHB.png,,,,,,,,,,,,,,,,,,,,,0,0.404081633,-0.300510204,1,0,0,0.924,button_right_test,0,62,62,115,1
,,,,,,,,,,,,,,,,,60fded24de9d0e39caa58493,20,2022-02-12_13h43.56.610,lexical_decision_task_DD,2021.2.3,iPhone,58.82352941,,,,,,,,,,1.013,1,,,,,,,,,,,,,,,,,,,,,,,0.408163265,-0.299489796,1,0,0,,,,,,,MOOSE,C,m,m,./images/MOOSE.png,,,,,,,,,,,,,,,,,,,,,0,0.408163265,-0.299489796,1,0,0,1.013,button_right_test,0,63,63,57,1
,,,,,,,,,,,,,,,,,60fded24de9d0e39caa58493,20,2022-02-12_13h43.56.610,lexical_decision_task_DD,2021.2.3,iPhone,58.82352941,,,,,,,,,,0.708,1,,,,,,,,,,,,,,,,,,,,,,,0.405102041,-0.317857143,1,0,0,,,,,,,ATTIC,C,m,m,./images/ATTIC.png,,,,,,,,,,,,,,,,,,,,,0,0.405102041,-0.317857143,1,0,0,0.708,button_right_test,0,64,64,27,1
,,,,,,,,,,,,,,,,,60fded24de9d0e39caa58493,20,2022-02-12_13h43.56.610,lexical_decision_task_DD,2021.2.3,iPhone,58.82352941,,,,,,,,,,0.689,1,,,,,,,,,,,,,,,,,,,,,,,-0.370408163,-0.320918367,1,0,0,,,,,,,LLAMA,LB,z,m,./images/LLAMALB.png,,,,,,,,,,,,,,,,,,,,,0,-0.370408163,-0.320918367,1,0,0,0.689,button_left_test,0,65,65,119,1
,,,,,,,,,,,,,,,,,60fded24de9d0e39caa58493,20,2022-02-12_13h43.56.610,lexical_decision_task_DD,2021.2.3,iPhone,58.82352941,,,,,,,,,,1.526,1,,,,,,,,,,,,,,,,,,,,,,,0.410204082,-0.316836735,1,0,0,,,,,,,CRUST,HB,m,m,./images/CRUSTHB.png,,,,,,,,,,,,,,,,,,,,,0,0.410204082,-0.316836735,1,0,0,1.526,button_right_test,0,66,66,79,1
,,,,,,,,,,,,,,,,,60fded24de9d0e39caa58493,20,2022-02-12_13h43.56.610,lexical_decision_task_DD,2021.2.3,iPhone,58.82352941,,,,,,,,,,0.875,1,,,,,,,,,,,,,,,,,,,,,,,-0.347959184,-0.364795918,1,0,0,,,,,,,BLOKE,C,z,m,./images/BLOKE.png,,,,,,,,,,,,,,,,,,,,,0,-0.347959184,-0.364795918,1,0,0,0.875,button_left_test,0,67,67,96,1
,,,,,,,,,,,,,,,,,60fded24de9d0e39caa58493,20,2022-02-12_13h43.56.610,lexical_decision_task_DD,2021.2.3,iPhone,58.82352941,,,,,,,,,,0.923,1,,,,,,,,,,,,,,,,,,,,,,,-0.381632653,-0.325,1,0,0,,,,,,,BUTTER,C,z,m,./images/BUTTER.png,,,,,,,,,,,,,,,,,,,,,0,-0.381632653,-0.325,1,0,0,0.923,button_left_test,0,68,68,111,1
,,,,,,,,,,,,,,,,,60fded24de9d0e39caa58493,20,2022-02-12_13h43.56.610,lexical_decision_task_DD,2021.2.3,iPhone,58.82352941,,,,,,,,,,1.893,1,,,,,,,,,,,,,,,,,,,,,,,-0.375510204,-0.322959184,1,0,0,,,,,,,FLESH,C,z,m,./images/FLESH.png,,,,,,,,,,,,,,,,,,,,,0,-0.375510204,-0.322959184,1,0,0,1.893,button_left_test,0,69,69,108,1
,,,,,,,,,,,,,,,,,60fded24de9d0e39caa58493,20,2022-02-12_13h43.56.610,lexical_decision_task_DD,2021.2.3,iPhone,58.82352941,,,,,,,,,,1.325,1,,,,,,,,,,,,,,,,,,,,,,,-0.376530612,-0.296428571,1,0,0,,,,,,,BROOM,C,z,m,./images/BROOM.png,,,,,,,,,,,,,,,,,,,,,0,-0.376530612,-0.296428571,1,0,0,1.325,button_left_test,0,70,70,162,1
,,,,,,,,,,,,,,,,,60fded24de9d0e39caa58493,20,2022-02-12_13h43.56.610,lexical_decision_task_DD,2021.2.3,iPhone,58.82352941,,,,,,,,,,0.674,1,,,,,,,,,,,,,,,,,,,,,,,-0.37244898,-0.316836735,1,0,0,,,,,,,FERRY,C,z,m,./images/FERRY.png,,,,,,,,,,,,,,,,,,,,,0,-0.37244898,-0.316836735,1,0,0,0.674,button_left_test,0,71,71,141,1
,,,,,,,,,,,,,,,,,60fded24de9d0e39caa58493,20,2022-02-12_13h43.56.610,lexical_decision_task_DD,2021.2.3,iPhone,58.82352941,,,,,,,,,,0.839,1,,,,,,,,,,,,,,,,,,,,,,,-0.382653061,-0.288265306,1,0,0,,,,,,,MEDAL,LB,z,m,./images/MEDALLB.png,,,,,,,,,,,,,,,,,,,,,0,-0.382653061,-0.288265306,1,0,0,0.839,button_left_test,0,72,72,95,1
,,,,,,,,,,,,,,,,,60fded24de9d0e39caa58493,20,2022-02-12_13h43.56.610,lexical_decision_task_DD,2021.2.3,iPhone,58.82352941,,,,,,,,,,1.459,1,,,,,,,,,,,,,,,,,,,,,,,-0.374489796,-0.312755102,1,0,0,,,,,,,SNAKE,HB,z,m,./images/SNAKEHB.png,,,,,,,,,,,,,,,,,,,,,0,-0.374489796,-0.312755102,1,0,0,1.459,button_left_test,0,73,73,124,1
,,,,,,,,,,,,,,,,,60fded24de9d0e39caa58493,20,2022-02-12_13h43.56.610,lexical_decision_task_DD,2021.2.3,iPhone,58.82352941,,,,,,,,,,0.673,1,,,,,,,,,,,,,,,,,,,,,,,-0.367346939,-0.309693878,1,0,0,,,,,,,BRUSH,LB,z,m,./images/BRUSHLB.png,,,,,,,,,,,,,,,,,,,,,0,-0.367346939,-0.309693878,1,0,0,0.673,button_left_test,0,74,74,143,1
,,,,,,,,,,,,,,,,,60fded24de9d0e39caa58493,20,2022-02-12_13h43.56.610,lexical_decision_task_DD,2021.2.3,iPhone,58.82352941,,,,,,,,,,0.824,1,,,,,,,,,,,,,,,,,,,,,,,0.407142857,-0.307653061,1,0,0,,,,,,,MUFFIN,HB,m,m,./images/MUFFINHB.png,,,,,,,,,,,,,,,,,,,,,0,0.407142857,-0.307653061,1,0,0,0.824,button_right_test,0,75,75,55,1
,,,,,,,,,,,,,,,,,60fded24de9d0e39caa58493,20,2022-02-12_13h43.56.610,lexical_decision_task_DD,2021.2.3,iPhone,58.82352941,,,,,,,,,,0.675,1,,,,,,,,,,,,,,,,,,,,,,,0.405102041,-0.311734694,1,0,0,,,,,,,WALRUS,LB,m,m,./images/WALRUSLB.png,,,,,,,,,,,,,,,,,,,,,0,0.405102041,-0.311734694,1,0,0,0.675,button_right_test,0,76,76,23,1
,,,,,,,,,,,,,,,,,60fded24de9d0e39caa58493,20,2022-02-12_13h43.56.610,lexical_decision_task_DD,2021.2.3,iPhone,58.82352941,,,,,,,,,,0.608,1,,,,,,,,,,,,,,,,,,,,,,,0.441836735,-0.306632653,1,0,0,,,,,,,SUNSET,HB,m,m,./images/SUNSETHB.png,,,,,,,,,,,,,,,,,,,,,0,0.441836735,-0.306632653,1,0,0,0.608,button_right_test,0,77,77,82,1
,,,,,,,,,,,,,,,,,60fded24de9d0e39caa58493,20,2022-02-12_13h43.56.610,lexical_decision_task_DD,2021.2.3,iPhone,58.82352941,,,,,,,,,,1.391,1,,,,,,,,,,,,,,,,,,,,,,,-0.33877551,-0.303571429,1,0,0,,,,,,,SHIELD,C,z,m,./images/SHIELD.png,,,,,,,,,,,,,,,,,,,,,0,-0.33877551,-0.303571429,1,0,0,1.391,button_left_test,0,78,78,132,1
,,,,,,,,,,,,,,,,,60fded24de9d0e39caa58493,20,2022-02-12_13h43.56.610,lexical_decision_task_DD,2021.2.3,iPhone,58.82352941,,,,,,,,,,2.71,0,,,,,,,,,,,,,,,,,,,,,,,0.416326531,-0.312755102,1,0,0,,,,,,,DANCER,C,z,m,./images/DANCER.png,,,,,,,,,,,,,,,,,,,,,0,0.416326531,-0.312755102,1,0,0,2.71,button_right_test,0,79,79,105,1
,,,,,,,,,,,,,,,,,60fded24de9d0e39caa58493,20,2022-02-12_13h43.56.610,lexical_decision_task_DD,2021.2.3,iPhone,58.82352941,,,,,,,,,,0.824,1,,,,,,,,,,,,,,,,,,,,,,,0.425510204,-0.301530612,1,0,0,,,,,,,COOKER,C,m,m,./images/COOKER.png,,,,,,,,,,,,,,,,,,,,,0,0.425510204,-0.301530612,1,0,0,0.824,button_right_test,0,80,80,69,1
,,,,,,,,,,,,,,,,,60fded24de9d0e39caa58493,20,2022-02-12_13h43.56.610,lexical_decision_task_DD,2021.2.3,iPhone,58.82352941,,,,,,,,,,0.825,1,,,,,,,,,,,,,,,,,,,,,,,-0.384693878,-0.304591837,1,0,0,,,,,,,CANOE,HB,z,m,./images/CANOEHB.png,,,,,,,,,,,,,,,,,,,,,0,-0.384693878,-0.304591837,1,0,0,0.825,button_left_test,0,81,81,142,1
,,,,,,,,,,,,,,,,,60fded24de9d0e39caa58493,20,2022-02-12_13h43.56.610,lexical_decision_task_DD,2021.2.3,iPhone,58.82352941,,,,,,,,,,1.475,0,,,,,,,,,,,,,,,,,,,,,,,-0.389795918,-0.329081633,1,0,0,,,,,,,FALCON,HB,m,m,./images/FALCONHB.png,,,,,,,,,,,,,,,,,,,,,0,-0.389795918,-0.329081633,1,0,0,1.475,button_left_test,0,82,82,28,1
,,,,,,,,,,,,,,,,,60fded24de9d0e39caa58493,20,2022-02-12_13h43.56.610,lexical_decision_task_DD,2021.2.3,iPhone,58.82352941,,,,,,,,,,0.842,1,,,,,,,,,,,,,,,,,,,,,,,0.098979592,-0.399489796,1,0,0,,,,,,,DIVER,C,z,m,./images/DIVER.png,break_done_button,,,,,,,,,,,,,,,,,,,,0,-0.389795918,-0.331122449,1,0,0,0.842,button_left_test,0,83,83,93,1
,,,,,,,,,,,,,,,,,60fded24de9d0e39caa58493,20,2022-02-12_13h43.56.610,lexical_decision_task_DD,2021.2.3,iPhone,58.82352941,,,,,,,,,,0.657,1,,,,,,,,,,,,,,,,,,,,,,,-0.36122449,-0.312755102,1,0,0,,,,,,,SLOPE,C,z,m,./images/SLOPE.png,,,,,,,,,,,,,,,,,,,,,0,-0.36122449,-0.312755102,1,0,0,0.657,button_left_test,0,84,84,114,1
,,,,,,,,,,,,,,,,,60fded24de9d0e39caa58493,20,2022-02-12_13h43.56.610,lexical_decision_task_DD,2021.2.3,iPhone,58.82352941,,,,,,,,,,0.825,1,,,,,,,,,,,,,,,,,,,,,,,-0.353061224,-0.285204082,1,0,0,,,,,,,POSTER,LB,z,m,./images/POSTERLB.png,,,,,,,,,,,,,,,,,,,,,0,-0.353061224,-0.285204082,1,0,0,0.825,button_left_test,0,85,85,137,1
,,,,,,,,,,,,,,,,,60fded24de9d0e39caa58493,20,2022-02-12_13h43.56.610,lexical_decision_task_DD,2021.2.3,iPhone,58.82352941,,,,,,,,,,0.722,0,,,,,,,,,,,,,,,,,,,,,,,0.366326531,-0.312755102,1,0,0,,,,,,,ENGINE,LB,z,m,./images/ENGINELB.png,,,,,,,,,,,,,,,,,,,,,0,0.366326531,-0.312755102,1,0,0,0.722,button_right_test,0,86,86,122,1
,,,,,,,,,,,,,,,,,60fded24de9d0e39caa58493,20,2022-02-12_13h43.56.610,lexical_decision_task_DD,2021.2.3,iPhone,58.82352941,,,,,,,,,,0.708,1,,,,,,,,,,,,,,,,,,,,,,,-0.339795918,-0.294387755,1,0,0,,,,,,,RULER,HB,z,m,./images/RULERHB.png,,,,,,,,,,,,,,,,,,,,,0,-0.339795918,-0.294387755,1,0,0,0.708,button_left_test,0,87,87,163,1
,,,,,,,,,,,,,,,,,60fded24de9d0e39caa58493,20,2022-02-12_13h43.56.610,lexical_decision_task_DD,2021.2.3,iPhone,58.82352941,,,,,,,,,,0.825,0,,,,,,,,,,,,,,,,,,,,,,,-0.358163265,-0.301530612,1,0,0,,,,,,,CRADLE,LB,m,m,./images/CRADLELB.png,,,,,,,,,,,,,,,,,,,,,0,-0.358163265,-0.301530612,1,0,0,0.825,button_left_test,0,88,88,20,1
,,,,,,,,,,,,,,,,,60fded24de9d0e39caa58493,20,2022-02-12_13h43.56.610,lexical_decision_task_DD,2021.2.3,iPhone,58.82352941,,,,,,,,,,0.758,1,,,,,,,,,,,,,,,,,,,,,,,0.379591837,-0.306632653,1,0,0,,,,,,,THROAT,C,m,m,./images/THROAT.png,,,,,,,,,,,,,,,,,,,,,0,0.379591837,-0.306632653,1,0,0,0.758,button_right_test,0,89,89,36,1
,,,,,,,,,,,,,,,,,60fded24de9d0e39caa58493,20,2022-02-12_13h43.56.610,lexical_decision_task_DD,2021.2.3,iPhone,58.82352941,,,,,,,,,,0.723,1,,,,,,,,,,,,,,,,,,,,,,,-0.362244898,-0.30255102,1,0,0,,,,,,,CANDY,C,z,m,./images/CANDY.png,,,,,,,,,,,,,,,,,,,,,0,-0.362244898,-0.30255102,1,0,0,0.723,button_left_test,0,90,90,123,1
,,,,,,,,,,,,,,,,,60fded24de9d0e39caa58493,20,2022-02-12_13h43.56.610,lexical_decision_task_DD,2021.2.3,iPhone,58.82352941,,,,,,,,,,0.722,1,,,,,,,,,,,,,,,,,,,,,,,-0.354081633,-0.312755102,1,0,0,,,,,,,BUNNY,HB,z,m,./images/BUNNYHB.png,,,,,,,,,,,,,,,,,,,,,0,-0.354081633,-0.312755102,1,0,0,0.722,button_left_test,0,91,91,97,1
,,,,,,,,,,,,,,,,,60fded24de9d0e39caa58493,20,2022-02-12_13h43.56.610,lexical_decision_task_DD,2021.2.3,iPhone,58.82352941,,,,,,,,,,0.655,1,,,,,,,,,,,,,,,,,,,,,,,0.384693878,-0.320918367,1,0,0,,,,,,,MOTOR,HB,m,m,./images/MOTORHB.png,,,,,,,,,,,,,,,,,,,,,0,0.384693878,-0.320918367,1,0,0,0.655,button_right_test,0,92,92,13,1
,,,,,,,,,,,,,,,,,60fded24de9d0e39caa58493,20,2022-02-12_13h43.56.610,lexical_decision_task_DD,2021.2.3,iPhone,58.82352941,,,,,,,,,,0.972,1,,,,,,,,,,,,,,,,,,,,,,,0.392857143,-0.309693878,1,0,0,,,,,,,INFANT,HB,m,m,./images/INFANTHB.png,,,,,,,,,,,,,,,,,,,,,0,0.392857143,-0.309693878,1,0,0,0.972,button_right_test,0,93,93,76,1
,,,,,,,,,,,,,,,,,60fded24de9d0e39caa58493,20,2022-02-12_13h43.56.610,lexical_decision_task_DD,2021.2.3,iPhone,58.82352941,,,,,,,,,,0.84,1,,,,,,,,,,,,,,,,,,,,,,,-0.367346939,-0.304591837,1,0,0,,,,,,,HEATER,LB,z,m,./images/HEATERLB.png,,,,,,,,,,,,,,,,,,,,,0,-0.367346939,-0.304591837,1,0,0,0.84,button_left_test,0,94,94,140,1
,,,,,,,,,,,,,,,,,60fded24de9d0e39caa58493,20,2022-02-12_13h43.56.610,lexical_decision_task_DD,2021.2.3,iPhone,58.82352941,,,,,,,,,,0.658,0,,,,,,,,,,,,,,,,,,,,,,,-0.369387755,-0.319897959,1,0,0,,,,,,,FARMER,LB,m,m,./images/FARMERLB.png,,,,,,,,,,,,,,,,,,,,,0,-0.369387755,-0.319897959,1,0,0,0.658,button_left_test,0,95,95,65,1
,,,,,,,,,,,,,,,,,60fded24de9d0e39caa58493,20,2022-02-12_13h43.56.610,lexical_decision_task_DD,2021.2.3,iPhone,58.82352941,,,,,,,,,,0.708,0,,,,,,,,,,,,,,,,,,,,,,,0.417346939,-0.304591837,1,0,0,,,,,,,DESERT,HB,z,m,./images/DESERTHB.png,,,,,,,,,,,,,,,,,,,,,0,0.417346939,-0.304591837,1,0,0,0.708,button_right_test,0,96,96,136,1
,,,,,,,,,,,,,,,,,60fded24de9d0e39caa58493,20,2022-02-12_13h43.56.610,lexical_decision_task_DD,2021.2.3,iPhone,58.82352941,,,,,,,,,,0.624,1,,,,,,,,,,,,,,,,,,,,,,,0.407142857,-0.308673469,1,0,0,,,,,,,MOSQUE,HB,m,m,./images/MOSQUEHB.png,,,,,,,,,,,,,,,,,,,,,0,0.407142857,-0.308673469,1,0,0,0.624,button_right_test,0,97,97,43,1
,,,,,,,,,,,,,,,,,60fded24de9d0e39caa58493,20,2022-02-12_13h43.56.610,lexical_decision_task_DD,2021.2.3,iPhone,58.82352941,,,,,,,,,,0.674,1,,,,,,,,,,,,,,,,,,,,,,,0.416326531,-0.316836735,1,0,0,,,,,,,URINE,HB,m,m,./images/URINEHB.png,,,,,,,,,,,,,,,,,,,,,0,0.416326531,-0.316836735,1,0,0,0.674,button_right_test,0,98,98,70,1
