key_resp.keys,key_resp.rt,instr_done_touch.x,instr_done_touch.y,instr_done_touch.leftButton,instr_done_touch.midButton,instr_done_touch.rightButton,instruction_pages.thisRepN,instruction_pages.thisTrialN,instruction_pages.thisN,instruction_pages.thisIndex,instruction_pages.ran,pageN,phase,instruct_text,has_image,instruct_image,participant,age,date,expName,psychopyVersion,OS,frameRate,instr_done_touch.clicked_name,response.keys,response.corr,response.rt,touch_resp.x,touch_resp.y,touch_resp.leftButton,touch_resp.midButton,touch_resp.rightButton,touch_resp.time,touch_resp.clicked_name,rt,corr,practrials.thisRepN,practrials.thisTrialN,practrials.thisN,practrials.thisIndex,practrials.ran,TrialID,Target,corrAns,end_of_practice_trials_pages.thisRepN,end_of_practice_trials_pages.thisTrialN,end_of_practice_trials_pages.thisN,end_of_practice_trials_pages.thisIndex,end_of_practice_trials_pages.ran,key_resp_2.keys,key_resp_2.corr,key_resp_2.rt,targ_click.x,targ_click.y,targ_click.leftButton,targ_click.midButton,targ_click.rightButton,targ_click.time,targ_click.clicked_name,break_done_touch.x,break_done_touch.y,break_done_touch.leftButton,break_done_touch.midButton,break_done_touch.rightButton,break_done_keyboard.keys,maintrials.thisRepN,maintrials.thisTrialN,maintrials.thisN,maintrials.thisIndex,maintrials.ran,string,blur,study,lex,stim_path,break_done_keyboard.rt,mouse_2.x,mouse_2.y,mouse_2.leftButton,mouse_2.midButton,mouse_2.rightButton,mouse_2.clicked_name,slider.response,slider.rt,trials.thisRepN,trials.thisTrialN,trials.thisN,trials.thisIndex,trials.ran,test_instructions.thisRepN,test_instructions.thisTrialN,test_instructions.thisN,test_instructions.thisIndex,test_instructions.ran,key_resp_3.keys,key_resp_3.corr,key_resp_3.rt,test_click.x,test_click.y,test_click.leftButton,test_click.midButton,test_click.rightButton,test_click.time,test_click.clicked_name,test_phase.thisRepN,test_phase.thisTrialN,test_phase.thisN,test_phase.thisIndex,test_phase.ran
space,21.7903,0.263020833,-0.192708333,0,0,0,0,0,0,0,1,1,instructions,"INSTRUCTIONS
At the start of each trial, look at the plus sign  (+) in the center of the screen.  This tells you that a trial is about to begin and where to look. Second, the plus sign will disappear and a string of letters will appear. Your task is to determine if the string of letters is a word or not. If the item is a word press the M key (on keyboard)  or touch the word button (phone/tablet).  If the item is not a word,  press the  Z key (on keyboard)  or touch the nonword button (on phone/tablet). 
Press the space bar or touch  continue.",0,,6103266d6b839e4955e8e2f3,24,2022-02-12_10h47.45.687,lexical_decision_task_DD,2021.2.3,Win32,60.25911419,,,,,,,,,,,,,,,,,,,,,,,,,,,,,,,,,,,,,,,,,,,,,,,,,,,,,,,,,,,,,,,,,,,,,,,,,,,,,,,,,,,,,,
,,0.022135417,-0.37890625,1,0,0,0,1,1,1,1,2,instructions,"If your device has a keyboard, press the 'Z' key for nonwords and the 'M' key for words.





Press the space bar or touch the button below to continue.",0,keyboard-example.gif,6103266d6b839e4955e8e2f3,24,2022-02-12_10h47.45.687,lexical_decision_task_DD,2021.2.3,Win32,60.25911419,instr_done_button,,,,,,,,,,,,,,,,,,,,,,,,,,,,,,,,,,,,,,,,,,,,,,,,,,,,,,,,,,,,,,,,,,,,,,,,,,,,,,,,,,,,,
,,0.071614583,-0.385416667,1,0,0,0,2,2,2,1,3,instructions,"If you are using a touchscreen only device, use the buttons on the screen. Do not use the mouse.





Press the space bar or touch the button below to continue.",0,touchscreen-example.gif,6103266d6b839e4955e8e2f3,24,2022-02-12_10h47.45.687,lexical_decision_task_DD,2021.2.3,Win32,60.25911419,instr_done_button,,,,,,,,,,,,,,,,,,,,,,,,,,,,,,,,,,,,,,,,,,,,,,,,,,,,,,,,,,,,,,,,,,,,,,,,,,,,,,,,,,,,,
space,19.9832,0.404947917,-0.21484375,0,0,0,0,3,3,3,1,4,instructions,"It is very important that you respond as quickly and accurately as possible, as each letter string will only be on the screen for two seconds. If you do not respond within this time, the message 'Too slow!' will be displayed and the experiment will progress to the next letter string. The first 20 trials will be practice trials and you will receive feedback on your answers. 

Press the space bar or touch the button below to start the practice trials.",0,,6103266d6b839e4955e8e2f3,24,2022-02-12_10h47.45.687,lexical_decision_task_DD,2021.2.3,Win32,60.25911419,,,,,,,,,,,,,,,,,,,,,,,,,,,,,,,,,,,,,,,,,,,,,,,,,,,,,,,,,,,,,,,,,,,,,,,,,,,,,,,,,,,,,,
,,,,,,,,,,,,,,,,,6103266d6b839e4955e8e2f3,24,2022-02-12_10h47.45.687,lexical_decision_task_DD,2021.2.3,Win32,60.25911419,,m,1,1.4303,,,,,,,,1.4303,1,0,0,0,0,1,1001,UTOPIA,m,,,,,,,,,,,,,,,,,,,,,,,,,,,,,,,,,,,,,,,,,,,,,,,,,,,,,,,,,,,,,,,,,
,,,,,,,,,,,,,,,,,6103266d6b839e4955e8e2f3,24,2022-02-12_10h47.45.687,lexical_decision_task_DD,2021.2.3,Win32,60.25911419,,m,1,0.5561,,,,,,,,0.5561,1,0,1,1,1,1,1001,ADJUST,m,,,,,,,,,,,,,,,,,,,,,,,,,,,,,,,,,,,,,,,,,,,,,,,,,,,,,,,,,,,,,,,,,
,,,,,,,,,,,,,,,,,6103266d6b839e4955e8e2f3,24,2022-02-12_10h47.45.687,lexical_decision_task_DD,2021.2.3,Win32,60.25911419,,m,1,0.5806,,,,,,,,0.5806,1,0,2,2,3,1,1001,MATRIX,m,,,,,,,,,,,,,,,,,,,,,,,,,,,,,,,,,,,,,,,,,,,,,,,,,,,,,,,,,,,,,,,,,
,,,,,,,,,,,,,,,,,6103266d6b839e4955e8e2f3,24,2022-02-12_10h47.45.687,lexical_decision_task_DD,2021.2.3,Win32,60.25911419,,m,1,0.4498,,,,,,,,0.4498,1,0,3,3,4,1,1001,SQUEAK,m,,,,,,,,,,,,,,,,,,,,,,,,,,,,,,,,,,,,,,,,,,,,,,,,,,,,,,,,,,,,,,,,,
,,,,,,,,,,,,,,,,,6103266d6b839e4955e8e2f3,24,2022-02-12_10h47.45.687,lexical_decision_task_DD,2021.2.3,Win32,60.25911419,,z,1,0.6737,,,,,,,,0.6737,1,0,4,4,10,1,1001,INLADE,z,,,,,,,,,,,,,,,,,,,,,,,,,,,,,,,,,,,,,,,,,,,,,,,,,,,,,,,,,,,,,,,,,
,,,,,,,,,,,,,,,,,6103266d6b839e4955e8e2f3,24,2022-02-12_10h47.45.687,lexical_decision_task_DD,2021.2.3,Win32,60.25911419,,z,1,0.7141,,,,,,,,0.7141,1,0,5,5,13,1,1001,ROUPET,z,,,,,,,,,,,,,,,,,,,,,,,,,,,,,,,,,,,,,,,,,,,,,,,,,,,,,,,,,,,,,,,,,
,,,,,,,,,,,,,,,,,6103266d6b839e4955e8e2f3,24,2022-02-12_10h47.45.687,lexical_decision_task_DD,2021.2.3,Win32,60.25911419,,z,1,0.6367,,,,,,,,0.6367,1,0,6,6,8,1,1001,ASLERT,z,,,,,,,,,,,,,,,,,,,,,,,,,,,,,,,,,,,,,,,,,,,,,,,,,,,,,,,,,,,,,,,,,
,,,,,,,,,,,,,,,,,6103266d6b839e4955e8e2f3,24,2022-02-12_10h47.45.687,lexical_decision_task_DD,2021.2.3,Win32,60.25911419,,m,1,0.5945,,,,,,,,0.5945,1,0,7,7,2,1,1001,ALMOND,m,,,,,,,,,,,,,,,,,,,,,,,,,,,,,,,,,,,,,,,,,,,,,,,,,,,,,,,,,,,,,,,,,
,,,,,,,,,,,,,,,,,6103266d6b839e4955e8e2f3,24,2022-02-12_10h47.45.687,lexical_decision_task_DD,2021.2.3,Win32,60.25911419,,m,1,0.5716,,,,,,,,0.5716,1,0,8,8,5,1,1001,OBTAIN,m,,,,,,,,,,,,,,,,,,,,,,,,,,,,,,,,,,,,,,,,,,,,,,,,,,,,,,,,,,,,,,,,,
,,,,,,,,,,,,,,,,,6103266d6b839e4955e8e2f3,24,2022-02-12_10h47.45.687,lexical_decision_task_DD,2021.2.3,Win32,60.25911419,,m,1,0.5684,,,,,,,,0.5684,1,0,9,9,7,1,1001,VOLUME,m,,,,,,,,,,,,,,,,,,,,,,,,,,,,,,,,,,,,,,,,,,,,,,,,,,,,,,,,,,,,,,,,,
,,,,,,,,,,,,,,,,,6103266d6b839e4955e8e2f3,24,2022-02-12_10h47.45.687,lexical_decision_task_DD,2021.2.3,Win32,60.25911419,,z,1,0.7994,,,,,,,,0.7994,1,0,10,10,9,1,1001,FARINY,z,,,,,,,,,,,,,,,,,,,,,,,,,,,,,,,,,,,,,,,,,,,,,,,,,,,,,,,,,,,,,,,,,
,,,,,,,,,,,,,,,,,6103266d6b839e4955e8e2f3,24,2022-02-12_10h47.45.687,lexical_decision_task_DD,2021.2.3,Win32,60.25911419,,z,1,0.6864,,,,,,,,0.6864,1,0,11,11,11,1,1001,RASHET,z,,,,,,,,,,,,,,,,,,,,,,,,,,,,,,,,,,,,,,,,,,,,,,,,,,,,,,,,,,,,,,,,,
,,,,,,,,,,,,,,,,,6103266d6b839e4955e8e2f3,24,2022-02-12_10h47.45.687,lexical_decision_task_DD,2021.2.3,Win32,60.25911419,,z,1,0.6775,,,,,,,,0.6775,1,0,12,12,12,1,1001,SPRINY,z,,,,,,,,,,,,,,,,,,,,,,,,,,,,,,,,,,,,,,,,,,,,,,,,,,,,,,,,,,,,,,,,,
,,,,,,,,,,,,,,,,,6103266d6b839e4955e8e2f3,24,2022-02-12_10h47.45.687,lexical_decision_task_DD,2021.2.3,Win32,60.25911419,,z,1,0.5493,,,,,,,,0.5493,1,0,13,13,14,1,1001,THRALE,z,,,,,,,,,,,,,,,,,,,,,,,,,,,,,,,,,,,,,,,,,,,,,,,,,,,,,,,,,,,,,,,,,
,,,,,,,,,,,,,,,,,6103266d6b839e4955e8e2f3,24,2022-02-12_10h47.45.687,lexical_decision_task_DD,2021.2.3,Win32,60.25911419,,z,1,0.4501,,,,,,,,0.4501,1,0,14,14,15,1,1001,WHAISE,z,,,,,,,,,,,,,,,,,,,,,,,,,,,,,,,,,,,,,,,,,,,,,,,,,,,,,,,,,,,,,,,,,
,,,,,,,,,,,,,,,,,6103266d6b839e4955e8e2f3,24,2022-02-12_10h47.45.687,lexical_decision_task_DD,2021.2.3,Win32,60.25911419,,m,1,0.6768,,,,,,,,0.6768,1,0,15,15,6,1,1001,ZOMBIE,m,,,,,,,,,,,,,,,,,,,,,,,,,,,,,,,,,,,,,,,,,,,,,,,,,,,,,,,,,,,,,,,,,
space,13.1626,0.412760417,-0.41015625,1,0,0,,,,,,1,end_of_practice,"You have completed the practice trials. During the experimental trials, you will not receive feedback. 
Before you begin, please ensure that you are in a comfortable and quiet location and will not be disturbed for about 15 minutes, as we cannot use your data if you do not complete all the trials. 
 When you are ready to start the experimental trials, please press space or touch the button below.",,,6103266d6b839e4955e8e2f3,24,2022-02-12_10h47.45.687,lexical_decision_task_DD,2021.2.3,Win32,60.25911419,,,,,,,,,,,,,,,,,,,,,,0,0,0,0,1,,,,,,,,,,,,,,,,,,,,,,,,,,,,,,,,,,,,,,,,,,,,,,,,,,,,,,,,,,,,
,,,,,,,,,,,,,,,,,6103266d6b839e4955e8e2f3,24,2022-02-12_10h47.45.687,lexical_decision_task_DD,2021.2.3,Win32,60.25911419,,,,,,,,,,,,1.5782,1,,,,,,,,,,,,,,z,1,1.5782,0.40625,-0.455729167,1,0,0,1.3388,,0.40625,-0.455729167,0,0,0,,0,0,0,89,1,DRIEK,LB,old,z,./images/DRIEKLB.png,,,,,,,,,,,,,,,,,,,,,,,,,,,,,,,,,,
,,,,,,,,,,,,,,,,,6103266d6b839e4955e8e2f3,24,2022-02-12_10h47.45.687,lexical_decision_task_DD,2021.2.3,Win32,60.25911419,,,,,,,,,,,,0.6251,1,,,,,,,,,,,,,,m,1,0.6251,,,,,,,,0.40625,-0.455729167,0,0,0,,0,1,1,23,1,WALRUS,LB,old,m,./images/WALRUSLB.png,,,,,,,,,,,,,,,,,,,,,,,,,,,,,,,,,,
,,,,,,,,,,,,,,,,,6103266d6b839e4955e8e2f3,24,2022-02-12_10h47.45.687,lexical_decision_task_DD,2021.2.3,Win32,60.25911419,,,,,,,,,,,,0.6014,1,,,,,,,,,,,,,,m,1,0.6014,,,,,,,,0.40625,-0.455729167,0,0,0,,0,2,2,50,1,MALLET,LB,old,m,./images/MALLETLB.png,,,,,,,,,,,,,,,,,,,,,,,,,,,,,,,,,,
,,,,,,,,,,,,,,,,,6103266d6b839e4955e8e2f3,24,2022-02-12_10h47.45.687,lexical_decision_task_DD,2021.2.3,Win32,60.25911419,,,,,,,,,,,,0.5626,1,,,,,,,,,,,,,,z,1,0.5626,,,,,,,,0.40625,-0.455729167,0,0,0,,0,3,3,156,1,HIXES,C,old,z,./images/HIXES.png,,,,,,,,,,,,,,,,,,,,,,,,,,,,,,,,,,
,,,,,,,,,,,,,,,,,6103266d6b839e4955e8e2f3,24,2022-02-12_10h47.45.687,lexical_decision_task_DD,2021.2.3,Win32,60.25911419,,,,,,,,,,,,0.489,1,,,,,,,,,,,,,,z,1,0.489,,,,,,,,0.40625,-0.455729167,0,0,0,,0,4,4,123,1,SEDGE,C,old,z,./images/SEDGE.png,,,,,,,,,,,,,,,,,,,,,,,,,,,,,,,,,,
,,,,,,,,,,,,,,,,,6103266d6b839e4955e8e2f3,24,2022-02-12_10h47.45.687,lexical_decision_task_DD,2021.2.3,Win32,60.25911419,,,,,,,,,,,,0.494,1,,,,,,,,,,,,,,m,1,0.494,,,,,,,,0.40625,-0.455729167,0,0,0,,0,5,5,75,1,GRAIN,C,old,m,./images/GRAIN.png,,,,,,,,,,,,,,,,,,,,,,,,,,,,,,,,,,
,,,,,,,,,,,,,,,,,6103266d6b839e4955e8e2f3,24,2022-02-12_10h47.45.687,lexical_decision_task_DD,2021.2.3,Win32,60.25911419,,,,,,,,,,,,1.3179,1,,,,,,,,,,,,,,z,1,1.3179,,,,,,,,0.40625,-0.458333333,0,0,0,,0,6,6,94,1,BLANS,HB,old,z,./images/BLANSHB.png,,,,,,,,,,,,,,,,,,,,,,,,,,,,,,,,,,
,,,,,,,,,,,,,,,,,6103266d6b839e4955e8e2f3,24,2022-02-12_10h47.45.687,lexical_decision_task_DD,2021.2.3,Win32,60.25911419,,,,,,,,,,,,0.542,1,,,,,,,,,,,,,,z,1,0.542,,,,,,,,0.403645833,-0.466145833,0,0,0,,0,7,7,129,1,PRANS,C,old,z,./images/PRANS.png,,,,,,,,,,,,,,,,,,,,,,,,,,,,,,,,,,
,,,,,,,,,,,,,,,,,6103266d6b839e4955e8e2f3,24,2022-02-12_10h47.45.687,lexical_decision_task_DD,2021.2.3,Win32,60.25911419,,,,,,,,,,,,0.709,1,,,,,,,,,,,,,,m,1,0.709,,,,,,,,0.403645833,-0.466145833,0,0,0,,0,8,8,25,1,WRIST,HB,old,m,./images/WRISTHB.png,,,,,,,,,,,,,,,,,,,,,,,,,,,,,,,,,,
,,,,,,,,,,,,,,,,,6103266d6b839e4955e8e2f3,24,2022-02-12_10h47.45.687,lexical_decision_task_DD,2021.2.3,Win32,60.25911419,,,,,,,,,,,,0.4164,1,,,,,,,,,,,,,,z,1,0.4164,,,,,,,,0.403645833,-0.466145833,0,0,0,,0,9,9,108,1,GRUET,C,old,z,./images/GRUET.png,,,,,,,,,,,,,,,,,,,,,,,,,,,,,,,,,,
,,,,,,,,,,,,,,,,,6103266d6b839e4955e8e2f3,24,2022-02-12_10h47.45.687,lexical_decision_task_DD,2021.2.3,Win32,60.25911419,,,,,,,,,,,,0.6537,1,,,,,,,,,,,,,,m,1,0.6537,,,,,,,,0.403645833,-0.46875,0,0,0,,0,10,10,54,1,TRIPOD,C,old,m,./images/TRIPOD.png,,,,,,,,,,,,,,,,,,,,,,,,,,,,,,,,,,
,,,,,,,,,,,,,,,,,6103266d6b839e4955e8e2f3,24,2022-02-12_10h47.45.687,lexical_decision_task_DD,2021.2.3,Win32,60.25911419,,,,,,,,,,,,0.6678,1,,,,,,,,,,,,,,m,1,0.6678,,,,,,,,0.403645833,-0.46875,0,0,0,,0,11,11,22,1,MELON,HB,old,m,./images/MELONHB.png,,,,,,,,,,,,,,,,,,,,,,,,,,,,,,,,,,
,,,,,,,,,,,,,,,,,6103266d6b839e4955e8e2f3,24,2022-02-12_10h47.45.687,lexical_decision_task_DD,2021.2.3,Win32,60.25911419,,,,,,,,,,,,0.6317,0,,,,,,,,,,,,,,m,0,0.6317,,,,,,,,0.403645833,-0.46875,0,0,0,,0,12,12,166,1,SHORY,HB,old,z,./images/SHORYHB.png,,,,,,,,,,,,,,,,,,,,,,,,,,,,,,,,,,
,,,,,,,,,,,,,,,,,6103266d6b839e4955e8e2f3,24,2022-02-12_10h47.45.687,lexical_decision_task_DD,2021.2.3,Win32,60.25911419,,,,,,,,,,,,0.6226,1,,,,,,,,,,,,,,z,1,0.6226,,,,,,,,0.403645833,-0.46875,0,0,0,,0,13,13,152,1,FRAIN,LB,old,z,./images/FRAINLB.png,,,,,,,,,,,,,,,,,,,,,,,,,,,,,,,,,,
,,,,,,,,,,,,,,,,,6103266d6b839e4955e8e2f3,24,2022-02-12_10h47.45.687,lexical_decision_task_DD,2021.2.3,Win32,60.25911419,,,,,,,,,,,,0.5822,1,,,,,,,,,,,,,,m,1,0.5822,,,,,,,,0.403645833,-0.46875,0,0,0,,0,14,14,12,1,SHORE,C,old,m,./images/SHORE.png,,,,,,,,,,,,,,,,,,,,,,,,,,,,,,,,,,
,,,,,,,,,,,,,,,,,6103266d6b839e4955e8e2f3,24,2022-02-12_10h47.45.687,lexical_decision_task_DD,2021.2.3,Win32,60.25911419,,,,,,,,,,,,0.5739,1,,,,,,,,,,,,,,z,1,0.5739,,,,,,,,0.403645833,-0.46875,0,0,0,,0,15,15,136,1,WERVE,HB,old,z,./images/WERVEHB.png,,,,,,,,,,,,,,,,,,,,,,,,,,,,,,,,,,
,,,,,,,,,,,,,,,,,6103266d6b839e4955e8e2f3,24,2022-02-12_10h47.45.687,lexical_decision_task_DD,2021.2.3,Win32,60.25911419,,,,,,,,,,,,0.531,1,,,,,,,,,,,,,,z,1,0.531,,,,,,,,0.403645833,-0.46875,0,0,0,,0,16,16,146,1,MOOST,LB,old,z,./images/MOOSTLB.png,,,,,,,,,,,,,,,,,,,,,,,,,,,,,,,,,,
,,,,,,,,,,,,,,,,,6103266d6b839e4955e8e2f3,24,2022-02-12_10h47.45.687,lexical_decision_task_DD,2021.2.3,Win32,60.25911419,,,,,,,,,,,,0.7409,1,,,,,,,,,,,,,,m,1,0.7409,,,,,,,,0.403645833,-0.46875,0,0,0,,0,17,17,19,1,DOUGH,HB,old,m,./images/DOUGHHB.png,,,,,,,,,,,,,,,,,,,,,,,,,,,,,,,,,,
,,,,,,,,,,,,,,,,,6103266d6b839e4955e8e2f3,24,2022-02-12_10h47.45.687,lexical_decision_task_DD,2021.2.3,Win32,60.25911419,,,,,,,,,,,,0.7194,1,,,,,,,,,,,,,,m,1,0.7194,,,,,,,,0.403645833,-0.46875,0,0,0,,0,18,18,11,1,BONNET,LB,old,m,./images/BONNETLB.png,,,,,,,,,,,,,,,,,,,,,,,,,,,,,,,,,,
,,,,,,,,,,,,,,,,,6103266d6b839e4955e8e2f3,24,2022-02-12_10h47.45.687,lexical_decision_task_DD,2021.2.3,Win32,60.25911419,,,,,,,,,,,,0.4786,1,,,,,,,,,,,,,,z,1,0.4786,,,,,,,,0.403645833,-0.46875,0,0,0,,0,19,19,98,1,BAMPS,LB,old,z,./images/BAMPSLB.png,,,,,,,,,,,,,,,,,,,,,,,,,,,,,,,,,,
,,,,,,,,,,,,,,,,,6103266d6b839e4955e8e2f3,24,2022-02-12_10h47.45.687,lexical_decision_task_DD,2021.2.3,Win32,60.25911419,,,,,,,,,,,,0.5627,1,,,,,,,,,,,,,,z,1,0.5627,,,,,,,,0.403645833,-0.46875,0,0,0,,0,20,20,145,1,LAMEL,HB,old,z,./images/LAMELHB.png,,,,,,,,,,,,,,,,,,,,,,,,,,,,,,,,,,
,,,,,,,,,,,,,,,,,6103266d6b839e4955e8e2f3,24,2022-02-12_10h47.45.687,lexical_decision_task_DD,2021.2.3,Win32,60.25911419,,,,,,,,,,,,0.5252,1,,,,,,,,,,,,,,m,1,0.5252,,,,,,,,0.403645833,-0.46875,0,0,0,,0,21,21,41,1,STRING,LB,old,m,./images/STRINGLB.png,,,,,,,,,,,,,,,,,,,,,,,,,,,,,,,,,,
,,,,,,,,,,,,,,,,,6103266d6b839e4955e8e2f3,24,2022-02-12_10h47.45.687,lexical_decision_task_DD,2021.2.3,Win32,60.25911419,,,,,,,,,,,,0.7305,1,,,,,,,,,,,,,,m,1,0.7305,,,,,,,,0.403645833,-0.46875,0,0,0,,0,22,22,28,1,FALCON,HB,old,m,./images/FALCONHB.png,,,,,,,,,,,,,,,,,,,,,,,,,,,,,,,,,,
,,,,,,,,,,,,,,,,,6103266d6b839e4955e8e2f3,24,2022-02-12_10h47.45.687,lexical_decision_task_DD,2021.2.3,Win32,60.25911419,,,,,,,,,,,,0.5834,1,,,,,,,,,,,,,,m,1,0.5834,,,,,,,,0.403645833,-0.46875,0,0,0,,0,23,23,71,1,PIMPLE,LB,old,m,./images/PIMPLELB.png,,,,,,,,,,,,,,,,,,,,,,,,,,,,,,,,,,
,,,,,,,,,,,,,,,,,6103266d6b839e4955e8e2f3,24,2022-02-12_10h47.45.687,lexical_decision_task_DD,2021.2.3,Win32,60.25911419,,,,,,,,,,,,0.6776,1,,,,,,,,,,,,,,z,1,0.6776,,,,,,,,0.403645833,-0.46875,0,0,0,,0,24,24,103,1,FLORT,HB,old,z,./images/FLORTHB.png,,,,,,,,,,,,,,,,,,,,,,,,,,,,,,,,,,
,,,,,,,,,,,,,,,,,6103266d6b839e4955e8e2f3,24,2022-02-12_10h47.45.687,lexical_decision_task_DD,2021.2.3,Win32,60.25911419,,,,,,,,,,,,1.3186,1,,,,,,,,,,,,,,m,1,1.3186,,,,,,,,0.403645833,-0.46875,0,0,0,,0,25,25,62,1,PURSE,LB,old,m,./images/PURSELB.png,,,,,,,,,,,,,,,,,,,,,,,,,,,,,,,,,,
,,,,,,,,,,,,,,,,,6103266d6b839e4955e8e2f3,24,2022-02-12_10h47.45.687,lexical_decision_task_DD,2021.2.3,Win32,60.25911419,,,,,,,,,,,,0.6024,1,,,,,,,,,,,,,,m,1,0.6024,,,,,,,,0.403645833,-0.470052083,0,0,0,,0,26,26,64,1,JELLY,HB,old,m,./images/JELLYHB.png,,,,,,,,,,,,,,,,,,,,,,,,,,,,,,,,,,
,,,,,,,,,,,,,,,,,6103266d6b839e4955e8e2f3,24,2022-02-12_10h47.45.687,lexical_decision_task_DD,2021.2.3,Win32,60.25911419,,,,,,,,,,,,0.5189,1,,,,,,,,,,,,,,m,1,0.5189,,,,,,,,0.403645833,-0.470052083,0,0,0,,0,27,27,1,1,PLANK,HB,old,m,./images/PLANKHB.png,,,,,,,,,,,,,,,,,,,,,,,,,,,,,,,,,,
,,,,,,,,,,,,,,,,,6103266d6b839e4955e8e2f3,24,2022-02-12_10h47.45.687,lexical_decision_task_DD,2021.2.3,Win32,60.25911419,,,,,,,,,,,,0.5683,1,,,,,,,,,,,,,,z,1,0.5683,,,,,,,,0.403645833,-0.470052083,0,0,0,,0,28,28,138,1,PLICE,C,old,z,./images/PLICE.png,,,,,,,,,,,,,,,,,,,,,,,,,,,,,,,,,,
,,,,,,,,,,,,,,,,,6103266d6b839e4955e8e2f3,24,2022-02-12_10h47.45.687,lexical_decision_task_DD,2021.2.3,Win32,60.25911419,,,,,,,,,,,,0.9493,1,,,,,,,,,,,,,,z,1,0.9493,,,,,,,,0.403645833,-0.470052083,0,0,0,,0,29,29,107,1,FASKS,LB,old,z,./images/FASKSLB.png,,,,,,,,,,,,,,,,,,,,,,,,,,,,,,,,,,
,,,,,,,,,,,,,,,,,6103266d6b839e4955e8e2f3,24,2022-02-12_10h47.45.687,lexical_decision_task_DD,2021.2.3,Win32,60.25911419,,,,,,,,,,,,0.4846,1,,,,,,,,,,,,,,m,1,0.4846,,,,,,,,0.403645833,-0.470052083,0,0,0,,0,30,30,24,1,SCREW,C,old,m,./images/SCREW.png,,,,,,,,,,,,,,,,,,,,,,,,,,,,,,,,,,
,,,,,,,,,,,,,,,,,6103266d6b839e4955e8e2f3,24,2022-02-12_10h47.45.687,lexical_decision_task_DD,2021.2.3,Win32,60.25911419,,,,,,,,,,,,0.6422,1,,,,,,,,,,,,,,z,1,0.6422,,,,,,,,0.403645833,-0.470052083,0,0,0,,0,31,31,85,1,CHULK,HB,old,z,./images/CHULKHB.png,,,,,,,,,,,,,,,,,,,,,,,,,,,,,,,,,,
,,,,,,,,,,,,,,,,,6103266d6b839e4955e8e2f3,24,2022-02-12_10h47.45.687,lexical_decision_task_DD,2021.2.3,Win32,60.25911419,,,,,,,,,,,,0.5298,1,,,,,,,,,,,,,,m,1,0.5298,,,,,,,,0.403645833,-0.470052083,0,0,0,,0,32,32,35,1,PEACH,LB,old,m,./images/PEACHLB.png,,,,,,,,,,,,,,,,,,,,,,,,,,,,,,,,,,
,,,,,,,,,,,,,,,,,6103266d6b839e4955e8e2f3,24,2022-02-12_10h47.45.687,lexical_decision_task_DD,2021.2.3,Win32,60.25911419,,,,,,,,,,,,0.5508,1,,,,,,,,,,,,,,z,1,0.5508,,,,,,,,0.403645833,-0.470052083,0,0,0,,0,33,33,95,1,HANTY,LB,old,z,./images/HANTYLB.png,,,,,,,,,,,,,,,,,,,,,,,,,,,,,,,,,,
,,,,,,,,,,,,,,,,,6103266d6b839e4955e8e2f3,24,2022-02-12_10h47.45.687,lexical_decision_task_DD,2021.2.3,Win32,60.25911419,,,,,,,,,,,,0.4718,1,,,,,,,,,,,,,,z,1,0.4718,,,,,,,,0.403645833,-0.470052083,0,0,0,,0,34,34,96,1,KEAMS,C,old,z,./images/KEAMS.png,,,,,,,,,,,,,,,,,,,,,,,,,,,,,,,,,,
,,,,,,,,,,,,,,,,,6103266d6b839e4955e8e2f3,24,2022-02-12_10h47.45.687,lexical_decision_task_DD,2021.2.3,Win32,60.25911419,,,,,,,,,,,,0.537,1,,,,,,,,,,,,,,z,1,0.537,,,,,,,,0.403645833,-0.470052083,0,0,0,,0,35,35,137,1,JOOST,LB,old,z,./images/JOOSTLB.png,,,,,,,,,,,,,,,,,,,,,,,,,,,,,,,,,,
,,,,,,,,,,,,,,,,,6103266d6b839e4955e8e2f3,24,2022-02-12_10h47.45.687,lexical_decision_task_DD,2021.2.3,Win32,60.25911419,,,,,,,,,,,,0.7264,1,,,,,,,,,,,,,,m,1,0.7264,,,,,,,,0.403645833,-0.470052083,0,0,0,,0,36,36,61,1,CANDLE,HB,old,m,./images/CANDLEHB.png,,,,,,,,,,,,,,,,,,,,,,,,,,,,,,,,,,
,,,,,,,,,,,,,,,,,6103266d6b839e4955e8e2f3,24,2022-02-12_10h47.45.687,lexical_decision_task_DD,2021.2.3,Win32,60.25911419,,,,,,,,,,,,0.504,1,,,,,,,,,,,,,,z,1,0.504,,,,,,,,0.403645833,-0.470052083,0,0,0,,0,37,37,155,1,CANGY,LB,old,z,./images/CANGYLB.png,,,,,,,,,,,,,,,,,,,,,,,,,,,,,,,,,,
,,,,,,,,,,,,,,,,,6103266d6b839e4955e8e2f3,24,2022-02-12_10h47.45.687,lexical_decision_task_DD,2021.2.3,Win32,60.25911419,,,,,,,,,,,,0.7404,1,,,,,,,,,,,,,,m,1,0.7404,,,,,,,,0.403645833,-0.470052083,0,0,0,,0,38,38,49,1,DRUMS,HB,old,m,./images/DRUMSHB.png,,,,,,,,,,,,,,,,,,,,,,,,,,,,,,,,,,
,,,,,,,,,,,,,,,,,6103266d6b839e4955e8e2f3,24,2022-02-12_10h47.45.687,lexical_decision_task_DD,2021.2.3,Win32,60.25911419,,,,,,,,,,,,0.563,1,,,,,,,,,,,,,,z,1,0.563,,,,,,,,0.403645833,-0.470052083,0,0,0,,0,39,39,111,1,HOSSE,C,old,z,./images/HOSSE.png,,,,,,,,,,,,,,,,,,,,,,,,,,,,,,,,,,
,,,,,,,,,,,,,,,,,6103266d6b839e4955e8e2f3,24,2022-02-12_10h47.45.687,lexical_decision_task_DD,2021.2.3,Win32,60.25911419,,,,,,,,,,,,0.5143,1,,,,,,,,,,,,,,z,1,0.5143,,,,,,,,0.403645833,-0.470052083,0,0,0,,0,40,40,159,1,CUDDY,C,old,z,./images/CUDDY.png,,,,,,,,,,,,,,,,,,,,,,,,,,,,,,,,,,
,,,,,,,,,,,,,,,,,6103266d6b839e4955e8e2f3,24,2022-02-12_10h47.45.687,lexical_decision_task_DD,2021.2.3,Win32,60.25911419,,,,,,,,,,,,0.6689,1,,,,,,,,,,,,,,m,1,0.6689,,,,,,,,0.401041667,-0.471354167,0,0,0,space,0,41,41,74,1,CEMENT,LB,old,m,./images/CEMENTLB.png,7.205,,,,,,,,,,,,,,,,,,,,,,,,,,,,,,,,,
,,,,,,,,,,,,,,,,,6103266d6b839e4955e8e2f3,24,2022-02-12_10h47.45.687,lexical_decision_task_DD,2021.2.3,Win32,60.25911419,,,,,,,,,,,,0.9591,1,,,,,,,,,,,,,,m,1,0.9591,0.399739583,-0.47265625,1,0,0,0.7314,,0.399739583,-0.47265625,0,0,0,,0,42,42,52,1,BANNER,HB,old,m,./images/BANNERHB.png,,,,,,,,,,,,,,,,,,,,,,,,,,,,,,,,,,
,,,,,,,,,,,,,,,,,6103266d6b839e4955e8e2f3,24,2022-02-12_10h47.45.687,lexical_decision_task_DD,2021.2.3,Win32,60.25911419,,,,,,,,,,,,0.578,1,,,,,,,,,,,,,,m,1,0.578,,,,,,,,0.399739583,-0.47265625,0,0,0,,0,43,43,21,1,KIDNEY,C,old,m,./images/KIDNEY.png,,,,,,,,,,,,,,,,,,,,,,,,,,,,,,,,,,
,,,,,,,,,,,,,,,,,6103266d6b839e4955e8e2f3,24,2022-02-12_10h47.45.687,lexical_decision_task_DD,2021.2.3,Win32,60.25911419,,,,,,,,,,,,0.6235,0,,,,,,,,,,,,,,z,0,0.6235,,,,,,,,0.399739583,-0.47265625,0,0,0,,0,44,44,63,1,MIRROR,C,old,m,./images/MIRROR.png,,,,,,,,,,,,,,,,,,,,,,,,,,,,,,,,,,
,,,,,,,,,,,,,,,,,6103266d6b839e4955e8e2f3,24,2022-02-12_10h47.45.687,lexical_decision_task_DD,2021.2.3,Win32,60.25911419,,,,,,,,,,,,0.7246,1,,,,,,,,,,,,,,z,1,0.7246,,,,,,,,0.399739583,-0.47265625,0,0,0,,0,45,45,105,1,MOKER,C,old,z,./images/MOKER.png,,,,,,,,,,,,,,,,,,,,,,,,,,,,,,,,,,
,,,,,,,,,,,,,,,,,6103266d6b839e4955e8e2f3,24,2022-02-12_10h47.45.687,lexical_decision_task_DD,2021.2.3,Win32,60.25911419,,,,,,,,,,,,1.3124,1,,,,,,,,,,,,,,z,1,1.3124,,,,,,,,0.3984375,-0.47265625,0,0,0,,0,46,46,118,1,BAVEL,HB,old,z,./images/BAVELHB.png,,,,,,,,,,,,,,,,,,,,,,,,,,,,,,,,,,
,,,,,,,,,,,,,,,,,6103266d6b839e4955e8e2f3,24,2022-02-12_10h47.45.687,lexical_decision_task_DD,2021.2.3,Win32,60.25911419,,,,,,,,,,,,0.6404,1,,,,,,,,,,,,,,z,1,0.6404,,,,,,,,0.389322917,-0.47265625,0,0,0,,0,47,47,144,1,NAIRY,C,old,z,./images/NAIRY.png,,,,,,,,,,,,,,,,,,,,,,,,,,,,,,,,,,
,,,,,,,,,,,,,,,,,6103266d6b839e4955e8e2f3,24,2022-02-12_10h47.45.687,lexical_decision_task_DD,2021.2.3,Win32,60.25911419,,,,,,,,,,,,0.6063,1,,,,,,,,,,,,,,z,1,0.6063,,,,,,,,0.388020833,-0.473958333,0,0,0,,0,48,48,87,1,TRING,C,old,z,./images/TRING.png,,,,,,,,,,,,,,,,,,,,,,,,,,,,,,,,,,
,,,,,,,,,,,,,,,,,6103266d6b839e4955e8e2f3,24,2022-02-12_10h47.45.687,lexical_decision_task_DD,2021.2.3,Win32,60.25911419,,,,,,,,,,,,0.5457,1,,,,,,,,,,,,,,z,1,0.5457,,,,,,,,0.38671875,-0.475260417,0,0,0,,0,49,49,143,1,MONGS,LB,old,z,./images/MONGSLB.png,,,,,,,,,,,,,,,,,,,,,,,,,,,,,,,,,,
,,,,,,,,,,,,,,,,,6103266d6b839e4955e8e2f3,24,2022-02-12_10h47.45.687,lexical_decision_task_DD,2021.2.3,Win32,60.25911419,,,,,,,,,,,,0.4859,1,,,,,,,,,,,,,,z,1,0.4859,,,,,,,,0.384114583,-0.477864583,0,0,0,,0,50,50,165,1,TROWN,C,old,z,./images/TROWN.png,,,,,,,,,,,,,,,,,,,,,,,,,,,,,,,,,,
,,,,,,,,,,,,,,,,,6103266d6b839e4955e8e2f3,24,2022-02-12_10h47.45.687,lexical_decision_task_DD,2021.2.3,Win32,60.25911419,,,,,,,,,,,,0.442,1,,,,,,,,,,,,,,m,1,0.442,,,,,,,,0.384114583,-0.479166667,0,0,0,,0,51,51,45,1,KITTEN,C,old,m,./images/KITTEN.png,,,,,,,,,,,,,,,,,,,,,,,,,,,,,,,,,,
,,,,,,,,,,,,,,,,,6103266d6b839e4955e8e2f3,24,2022-02-12_10h47.45.687,lexical_decision_task_DD,2021.2.3,Win32,60.25911419,,,,,,,,,,,,0.6118,1,,,,,,,,,,,,,,z,1,0.6118,,,,,,,,0.384114583,-0.479166667,0,0,0,,0,52,52,104,1,GITTY,LB,old,z,./images/GITTYLB.png,,,,,,,,,,,,,,,,,,,,,,,,,,,,,,,,,,
,,,,,,,,,,,,,,,,,6103266d6b839e4955e8e2f3,24,2022-02-12_10h47.45.687,lexical_decision_task_DD,2021.2.3,Win32,60.25911419,,,,,,,,,,,,0.6061,1,,,,,,,,,,,,,,z,1,0.6061,,,,,,,,0.384114583,-0.479166667,0,0,0,,0,53,53,131,1,NACES,LB,old,z,./images/NACESLB.png,,,,,,,,,,,,,,,,,,,,,,,,,,,,,,,,,,
,,,,,,,,,,,,,,,,,6103266d6b839e4955e8e2f3,24,2022-02-12_10h47.45.687,lexical_decision_task_DD,2021.2.3,Win32,60.25911419,,,,,,,,,,,,0.6626,1,,,,,,,,,,,,,,z,1,0.6626,,,,,,,,0.384114583,-0.479166667,0,0,0,,0,54,54,91,1,SHENS,HB,old,z,./images/SHENSHB.png,,,,,,,,,,,,,,,,,,,,,,,,,,,,,,,,,,
,,,,,,,,,,,,,,,,,6103266d6b839e4955e8e2f3,24,2022-02-12_10h47.45.687,lexical_decision_task_DD,2021.2.3,Win32,60.25911419,,,,,,,,,,,,0.6527,1,,,,,,,,,,,,,,m,1,0.6527,,,,,,,,0.384114583,-0.479166667,0,0,0,,0,55,55,26,1,SMOKER,LB,old,m,./images/SMOKERLB.png,,,,,,,,,,,,,,,,,,,,,,,,,,,,,,,,,,
,,,,,,,,,,,,,,,,,6103266d6b839e4955e8e2f3,24,2022-02-12_10h47.45.687,lexical_decision_task_DD,2021.2.3,Win32,60.25911419,,,,,,,,,,,,1.2196,1,,,,,,,,,,,,,,z,1,1.2196,,,,,,,,0.384114583,-0.479166667,0,0,0,,0,56,56,148,1,JOMS,HB,old,z,./images/JOMSHB.png,,,,,,,,,,,,,,,,,,,,,,,,,,,,,,,,,,
,,,,,,,,,,,,,,,,,6103266d6b839e4955e8e2f3,24,2022-02-12_10h47.45.687,lexical_decision_task_DD,2021.2.3,Win32,60.25911419,,,,,,,,,,,,1.1186,1,,,,,,,,,,,,,,m,1,1.1186,,,,,,,,0.384114583,-0.479166667,0,0,0,,0,57,57,51,1,ONION,C,old,m,./images/ONION.png,,,,,,,,,,,,,,,,,,,,,,,,,,,,,,,,,,
,,,,,,,,,,,,,,,,,6103266d6b839e4955e8e2f3,24,2022-02-12_10h47.45.687,lexical_decision_task_DD,2021.2.3,Win32,60.25911419,,,,,,,,,,,,0.5282,1,,,,,,,,,,,,,,z,1,0.5282,,,,,,,,0.384114583,-0.479166667,0,0,0,,0,58,58,117,1,STEEG,C,old,z,./images/STEEG.png,,,,,,,,,,,,,,,,,,,,,,,,,,,,,,,,,,
,,,,,,,,,,,,,,,,,6103266d6b839e4955e8e2f3,24,2022-02-12_10h47.45.687,lexical_decision_task_DD,2021.2.3,Win32,60.25911419,,,,,,,,,,,,0.4306,0,,,,,,,,,,,,,,z,0,0.4306,,,,,,,,0.384114583,-0.479166667,0,0,0,,0,59,59,18,1,JAGUAR,C,old,m,./images/JAGUAR.png,,,,,,,,,,,,,,,,,,,,,,,,,,,,,,,,,,
,,,,,,,,,,,,,,,,,6103266d6b839e4955e8e2f3,24,2022-02-12_10h47.45.687,lexical_decision_task_DD,2021.2.3,Win32,60.25911419,,,,,,,,,,,,0.7824,1,,,,,,,,,,,,,,m,1,0.7824,,,,,,,,0.384114583,-0.479166667,0,0,0,,0,60,60,58,1,BABOON,HB,old,m,./images/BABOONHB.png,,,,,,,,,,,,,,,,,,,,,,,,,,,,,,,,,,
,,,,,,,,,,,,,,,,,6103266d6b839e4955e8e2f3,24,2022-02-12_10h47.45.687,lexical_decision_task_DD,2021.2.3,Win32,60.25911419,,,,,,,,,,,,0.5255,1,,,,,,,,,,,,,,z,1,0.5255,,,,,,,,0.384114583,-0.479166667,0,0,0,,0,61,61,120,1,RINED,C,old,z,./images/RINED.png,,,,,,,,,,,,,,,,,,,,,,,,,,,,,,,,,,
,,,,,,,,,,,,,,,,,6103266d6b839e4955e8e2f3,24,2022-02-12_10h47.45.687,lexical_decision_task_DD,2021.2.3,Win32,60.25911419,,,,,,,,,,,,0.5793,1,,,,,,,,,,,,,,m,1,0.5793,,,,,,,,0.384114583,-0.479166667,0,0,0,,0,62,62,32,1,BARREL,LB,old,m,./images/BARRELLB.png,,,,,,,,,,,,,,,,,,,,,,,,,,,,,,,,,,
,,,,,,,,,,,,,,,,,6103266d6b839e4955e8e2f3,24,2022-02-12_10h47.45.687,lexical_decision_task_DD,2021.2.3,Win32,60.25911419,,,,,,,,,,,,1.088,1,,,,,,,,,,,,,,m,1,1.088,,,,,,,,0.384114583,-0.479166667,0,0,0,,0,63,63,43,1,MOSQUE,HB,old,m,./images/MOSQUEHB.png,,,,,,,,,,,,,,,,,,,,,,,,,,,,,,,,,,
,,,,,,,,,,,,,,,,,6103266d6b839e4955e8e2f3,24,2022-02-12_10h47.45.687,lexical_decision_task_DD,2021.2.3,Win32,60.25911419,,,,,,,,,,,,0.5281,1,,,,,,,,,,,,,,z,1,0.5281,,,,,,,,0.384114583,-0.48046875,0,0,0,,0,64,64,161,1,BLAPS,LB,old,z,./images/BLAPSLB.png,,,,,,,,,,,,,,,,,,,,,,,,,,,,,,,,,,
,,,,,,,,,,,,,,,,,6103266d6b839e4955e8e2f3,24,2022-02-12_10h47.45.687,lexical_decision_task_DD,2021.2.3,Win32,60.25911419,,,,,,,,,,,,0.7029,1,,,,,,,,,,,,,,m,1,0.7029,,,,,,,,0.384114583,-0.48046875,0,0,0,,0,65,65,31,1,QUILL,HB,old,m,./images/QUILLHB.png,,,,,,,,,,,,,,,,,,,,,,,,,,,,,,,,,,
,,,,,,,,,,,,,,,,,6103266d6b839e4955e8e2f3,24,2022-02-12_10h47.45.687,lexical_decision_task_DD,2021.2.3,Win32,60.25911419,,,,,,,,,,,,0.4639,0,,,,,,,,,,,,,,m,0,0.4639,,,,,,,,0.384114583,-0.481770833,0,0,0,,0,66,66,128,1,GRIFT,LB,old,z,./images/GRIFTLB.png,,,,,,,,,,,,,,,,,,,,,,,,,,,,,,,,,,
,,,,,,,,,,,,,,,,,6103266d6b839e4955e8e2f3,24,2022-02-12_10h47.45.687,lexical_decision_task_DD,2021.2.3,Win32,60.25911419,,,,,,,,,,,,0.4932,0,,,,,,,,,,,,,,z,0,0.4932,,,,,,,,0.384114583,-0.481770833,0,0,0,,0,67,67,78,1,LITTER,C,old,m,./images/LITTER.png,,,,,,,,,,,,,,,,,,,,,,,,,,,,,,,,,,
,,,,,,,,,,,,,,,,,6103266d6b839e4955e8e2f3,24,2022-02-12_10h47.45.687,lexical_decision_task_DD,2021.2.3,Win32,60.25911419,,,,,,,,,,,,0.6951,1,,,,,,,,,,,,,,m,1,0.6951,,,,,,,,0.384114583,-0.481770833,0,0,0,,0,68,68,82,1,SUNSET,HB,old,m,./images/SUNSETHB.png,,,,,,,,,,,,,,,,,,,,,,,,,,,,,,,,,,
,,,,,,,,,,,,,,,,,6103266d6b839e4955e8e2f3,24,2022-02-12_10h47.45.687,lexical_decision_task_DD,2021.2.3,Win32,60.25911419,,,,,,,,,,,,0.687,1,,,,,,,,,,,,,,z,1,0.687,,,,,,,,0.384114583,-0.481770833,0,0,0,,0,69,69,86,1,AIFED,LB,old,z,./images/AIFEDLB.png,,,,,,,,,,,,,,,,,,,,,,,,,,,,,,,,,,
,,,,,,,,,,,,,,,,,6103266d6b839e4955e8e2f3,24,2022-02-12_10h47.45.687,lexical_decision_task_DD,2021.2.3,Win32,60.25911419,,,,,,,,,,,,0.7233,1,,,,,,,,,,,,,,z,1,0.7233,,,,,,,,0.384114583,-0.481770833,0,0,0,,0,70,70,93,1,SMONE,C,old,z,./images/SMONE.png,,,,,,,,,,,,,,,,,,,,,,,,,,,,,,,,,,
,,,,,,,,,,,,,,,,,6103266d6b839e4955e8e2f3,24,2022-02-12_10h47.45.687,lexical_decision_task_DD,2021.2.3,Win32,60.25911419,,,,,,,,,,,,0.7287,0,,,,,,,,,,,,,,m,0,0.7287,,,,,,,,0.384114583,-0.481770833,0,0,0,,0,71,71,142,1,PLASK,HB,old,z,./images/PLASKHB.png,,,,,,,,,,,,,,,,,,,,,,,,,,,,,,,,,,
,,,,,,,,,,,,,,,,,6103266d6b839e4955e8e2f3,24,2022-02-12_10h47.45.687,lexical_decision_task_DD,2021.2.3,Win32,60.25911419,,,,,,,,,,,,0.671,1,,,,,,,,,,,,,,z,1,0.671,,,,,,,,0.384114583,-0.481770833,0,0,0,,0,72,72,119,1,PAFER,LB,old,z,./images/PAFERLB.png,,,,,,,,,,,,,,,,,,,,,,,,,,,,,,,,,,
,,,,,,,,,,,,,,,,,6103266d6b839e4955e8e2f3,24,2022-02-12_10h47.45.687,lexical_decision_task_DD,2021.2.3,Win32,60.25911419,,,,,,,,,,,,0.6286,0,,,,,,,,,,,,,,m,0,0.6286,,,,,,,,0.384114583,-0.481770833,0,0,0,,0,73,73,167,1,ZONET,LB,old,z,./images/ZONETLB.png,,,,,,,,,,,,,,,,,,,,,,,,,,,,,,,,,,
,,,,,,,,,,,,,,,,,6103266d6b839e4955e8e2f3,24,2022-02-12_10h47.45.687,lexical_decision_task_DD,2021.2.3,Win32,60.25911419,,,,,,,,,,,,1.2293,1,,,,,,,,,,,,,,z,1,1.2293,,,,,,,,0.384114583,-0.481770833,0,0,0,,0,74,74,140,1,DOVET,LB,old,z,./images/DOVETLB.png,,,,,,,,,,,,,,,,,,,,,,,,,,,,,,,,,,
,,,,,,,,,,,,,,,,,6103266d6b839e4955e8e2f3,24,2022-02-12_10h47.45.687,lexical_decision_task_DD,2021.2.3,Win32,60.25911419,,,,,,,,,,,,0.5744,1,,,,,,,,,,,,,,m,1,0.5744,,,,,,,,0.384114583,-0.481770833,0,0,0,,0,75,75,9,1,RHINO,C,old,m,./images/RHINO.png,,,,,,,,,,,,,,,,,,,,,,,,,,,,,,,,,,
,,,,,,,,,,,,,,,,,6103266d6b839e4955e8e2f3,24,2022-02-12_10h47.45.687,lexical_decision_task_DD,2021.2.3,Win32,60.25911419,,,,,,,,,,,,0.8792,1,,,,,,,,,,,,,,m,1,0.8792,,,,,,,,0.384114583,-0.481770833,0,0,0,,0,76,76,37,1,BIRTH,HB,old,m,./images/BIRTHHB.png,,,,,,,,,,,,,,,,,,,,,,,,,,,,,,,,,,
,,,,,,,,,,,,,,,,,6103266d6b839e4955e8e2f3,24,2022-02-12_10h47.45.687,lexical_decision_task_DD,2021.2.3,Win32,60.25911419,,,,,,,,,,,,0.5649,1,,,,,,,,,,,,,,z,1,0.5649,,,,,,,,0.384114583,-0.481770833,0,0,0,,0,77,77,141,1,PLEET,C,old,z,./images/PLEET.png,,,,,,,,,,,,,,,,,,,,,,,,,,,,,,,,,,
,,,,,,,,,,,,,,,,,6103266d6b839e4955e8e2f3,24,2022-02-12_10h47.45.687,lexical_decision_task_DD,2021.2.3,Win32,60.25911419,,,,,,,,,,,,0.5605,1,,,,,,,,,,,,,,m,1,0.5605,,,,,,,,0.384114583,-0.481770833,0,0,0,,0,78,78,27,1,ATTIC,C,old,m,./images/ATTIC.png,,,,,,,,,,,,,,,,,,,,,,,,,,,,,,,,,,
,,,,,,,,,,,,,,,,,6103266d6b839e4955e8e2f3,24,2022-02-12_10h47.45.687,lexical_decision_task_DD,2021.2.3,Win32,60.25911419,,,,,,,,,,,,0.5384,1,,,,,,,,,,,,,,z,1,0.5384,,,,,,,,0.384114583,-0.481770833,0,0,0,,0,79,79,122,1,BLOOT,LB,old,z,./images/BLOOTLB.png,,,,,,,,,,,,,,,,,,,,,,,,,,,,,,,,,,
,,,,,,,,,,,,,,,,,6103266d6b839e4955e8e2f3,24,2022-02-12_10h47.45.687,lexical_decision_task_DD,2021.2.3,Win32,60.25911419,,,,,,,,,,,,0.645,1,,,,,,,,,,,,,,m,1,0.645,,,,,,,,0.384114583,-0.481770833,0,0,0,,0,80,80,29,1,CRUMB,LB,old,m,./images/CRUMBLB.png,,,,,,,,,,,,,,,,,,,,,,,,,,,,,,,,,,
,,,,,,,,,,,,,,,,,6103266d6b839e4955e8e2f3,24,2022-02-12_10h47.45.687,lexical_decision_task_DD,2021.2.3,Win32,60.25911419,,,,,,,,,,,,0.8803,1,,,,,,,,,,,,,,z,1,0.8803,,,,,,,,0.384114583,-0.481770833,0,0,0,,0,81,81,154,1,THINT,HB,old,z,./images/THINTHB.png,,,,,,,,,,,,,,,,,,,,,,,,,,,,,,,,,,
,,,,,,,,,,,,,,,,,6103266d6b839e4955e8e2f3,24,2022-02-12_10h47.45.687,lexical_decision_task_DD,2021.2.3,Win32,60.25911419,,,,,,,,,,,,0.5661,1,,,,,,,,,,,,,,z,1,0.5661,,,,,,,,0.384114583,-0.481770833,0,0,0,,0,82,82,114,1,RIKES,C,old,z,./images/RIKES.png,,,,,,,,,,,,,,,,,,,,,,,,,,,,,,,,,,
,,,,,,,,,,,,,,,,,6103266d6b839e4955e8e2f3,24,2022-02-12_10h47.45.687,lexical_decision_task_DD,2021.2.3,Win32,60.25911419,,,,,,,,,,,,1.0448,1,,,,,,,,,,,,,,z,1,1.0448,,,,,,,,0.384114583,-0.481770833,0,0,0,space,0,83,83,157,1,INLER,HB,old,z,./images/INLERHB.png,9.31,,,,,,,,,,,,,,,,,,,,,,,,,,,,,,,,,
,,,,,,,,,,,,,,,,,6103266d6b839e4955e8e2f3,24,2022-02-12_10h47.45.687,lexical_decision_task_DD,2021.2.3,Win32,60.25911419,,,,,,,,,,,,0.6108,1,,,,,,,,,,,,,,z,1,0.6108,,,,,,,,0.38671875,-0.477864583,0,0,0,,0,84,84,126,1,GUELS,C,old,z,./images/GUELS.png,,,,,,,,,,,,,,,,,,,,,,,,,,,,,,,,,,
,,,,,,,,,,,,,,,,,6103266d6b839e4955e8e2f3,24,2022-02-12_10h47.45.687,lexical_decision_task_DD,2021.2.3,Win32,60.25911419,,,,,,,,,,,,0.5582,1,,,,,,,,,,,,,,m,1,0.5582,,,,,,,,0.38671875,-0.477864583,0,0,0,,0,85,85,47,1,BERRY,LB,old,m,./images/BERRYLB.png,,,,,,,,,,,,,,,,,,,,,,,,,,,,,,,,,,
,,,,,,,,,,,,,,,,,6103266d6b839e4955e8e2f3,24,2022-02-12_10h47.45.687,lexical_decision_task_DD,2021.2.3,Win32,60.25911419,,,,,,,,,,,,0.845,1,,,,,,,,,,,,,,z,1,0.845,,,,,,,,0.38671875,-0.477864583,0,0,0,,0,86,86,133,1,POWDY,HB,old,z,./images/POWDYHB.png,,,,,,,,,,,,,,,,,,,,,,,,,,,,,,,,,,
,,,,,,,,,,,,,,,,,6103266d6b839e4955e8e2f3,24,2022-02-12_10h47.45.687,lexical_decision_task_DD,2021.2.3,Win32,60.25911419,,,,,,,,,,,,0.5499,1,,,,,,,,,,,,,,z,1,0.5499,,,,,,,,0.385416667,-0.479166667,0,0,0,,0,87,87,101,1,GLEET,LB,old,z,./images/GLEETLB.png,,,,,,,,,,,,,,,,,,,,,,,,,,,,,,,,,,
,,,,,,,,,,,,,,,,,6103266d6b839e4955e8e2f3,24,2022-02-12_10h47.45.687,lexical_decision_task_DD,2021.2.3,Win32,60.25911419,,,,,,,,,,,,0.6157,1,,,,,,,,,,,,,,z,1,0.6157,,,,,,,,0.384114583,-0.48046875,0,0,0,,0,88,88,112,1,MYING,HB,old,z,./images/MYINGHB.png,,,,,,,,,,,,,,,,,,,,,,,,,,,,,,,,,,
,,,,,,,,,,,,,,,,,6103266d6b839e4955e8e2f3,24,2022-02-12_10h47.45.687,lexical_decision_task_DD,2021.2.3,Win32,60.25911419,,,,,,,,,,,,0.5866,0,,,,,,,,,,,,,,z,0,0.5866,,,,,,,,0.3828125,-0.48046875,0,0,0,,0,89,89,73,1,SNACK,HB,old,m,./images/SNACKHB.png,,,,,,,,,,,,,,,,,,,,,,,,,,,,,,,,,,
,,,,,,,,,,,,,,,,,6103266d6b839e4955e8e2f3,24,2022-02-12_10h47.45.687,lexical_decision_task_DD,2021.2.3,Win32,60.25911419,,,,,,,,,,,,0.5459,1,,,,,,,,,,,,,,m,1,0.5459,,,,,,,,0.381510417,-0.481770833,0,0,0,,0,90,90,5,1,PASTA,LB,old,m,./images/PASTALB.png,,,,,,,,,,,,,,,,,,,,,,,,,,,,,,,,,,
,,,,,,,,,,,,,,,,,6103266d6b839e4955e8e2f3,24,2022-02-12_10h47.45.687,lexical_decision_task_DD,2021.2.3,Win32,60.25911419,,,,,,,,,,,,0.5715,1,,,,,,,,,,,,,,z,1,0.5715,,,,,,,,0.381510417,-0.483072917,0,0,0,,0,91,91,158,1,EGECT,LB,old,z,./images/EGECTLB.png,,,,,,,,,,,,,,,,,,,,,,,,,,,,,,,,,,
,,,,,,,,,,,,,,,,,6103266d6b839e4955e8e2f3,24,2022-02-12_10h47.45.687,lexical_decision_task_DD,2021.2.3,Win32,60.25911419,,,,,,,,,,,,0.6448,1,,,,,,,,,,,,,,z,1,0.6448,,,,,,,,0.380208333,-0.484375,0,0,0,,0,92,92,130,1,CRILL,HB,old,z,./images/CRILLHB.png,,,,,,,,,,,,,,,,,,,,,,,,,,,,,,,,,,
,,,,,,,,,,,,,,,,,6103266d6b839e4955e8e2f3,24,2022-02-12_10h47.45.687,lexical_decision_task_DD,2021.2.3,Win32,60.25911419,,,,,,,,,,,,1.2984,0,,,,,,,,,,,,,,z,0,1.2984,,,,,,,,0.380208333,-0.485677083,0,0,0,,0,93,93,76,1,INFANT,HB,old,m,./images/INFANTHB.png,,,,,,,,,,,,,,,,,,,,,,,,,,,,,,,,,,
,,,,,,,,,,,,,,,,,6103266d6b839e4955e8e2f3,24,2022-02-12_10h47.45.687,lexical_decision_task_DD,2021.2.3,Win32,60.25911419,,,,,,,,,,,,0.6704,1,,,,,,,,,,,,,,m,1,0.6704,,,,,,,,0.37890625,-0.48828125,0,0,0,,0,94,94,68,1,TORCH,LB,old,m,./images/TORCHLB.png,,,,,,,,,,,,,,,,,,,,,,,,,,,,,,,,,,
,,,,,,,,,,,,,,,,,6103266d6b839e4955e8e2f3,24,2022-02-12_10h47.45.687,lexical_decision_task_DD,2021.2.3,Win32,60.25911419,,,,,,,,,,,,0.6383,1,,,,,,,,,,,,,,m,1,0.6383,,,,,,,,0.37890625,-0.48828125,0,0,0,,0,95,95,13,1,MOTOR,HB,old,m,./images/MOTORHB.png,,,,,,,,,,,,,,,,,,,,,,,,,,,,,,,,,,
,,,,,,,,,,,,,,,,,6103266d6b839e4955e8e2f3,24,2022-02-12_10h47.45.687,lexical_decision_task_DD,2021.2.3,Win32,60.25911419,,,,,,,,,,,,0.9825,1,,,,,,,,,,,,,,z,1,0.9825,,,,,,,,0.37890625,-0.48828125,0,0,0,,0,96,96,106,1,CLUMS,HB,old,z,./images/CLUMSHB.png,,,,,,,,,,,,,,,,,,,,,,,,,,,,,,,,,,
,,,,,,,,,,,,,,,,,6103266d6b839e4955e8e2f3,24,2022-02-12_10h47.45.687,lexical_decision_task_DD,2021.2.3,Win32,60.25911419,,,,,,,,,,,,0.5176,1,,,,,,,,,,,,,,z,1,0.5176,,,,,,,,0.37890625,-0.489583333,0,0,0,,0,97,97,164,1,SGREW,LB,old,z,./images/SGREWLB.png,,,,,,,,,,,,,,,,,,,,,,,,,,,,,,,,,,
,,,,,,,,,,,,,,,,,6103266d6b839e4955e8e2f3,24,2022-02-12_10h47.45.687,lexical_decision_task_DD,2021.2.3,Win32,60.25911419,,,,,,,,,,,,0.5699,1,,,,,,,,,,,,,,z,1,0.5699,,,,,,,,0.377604167,-0.490885417,0,0,0,,0,98,98,84,1,HAXES,C,old,z,./images/HAXES.png,,,,,,,,,,,,,,,,,,,,,,,,,,,,,,,,,,
,,,,,,,,,,,,,,,,,6103266d6b839e4955e8e2f3,24,2022-02-12_10h47.45.687,lexical_decision_task_DD,2021.2.3,Win32,60.25911419,,,,,,,,,,,,0.6274,1,,,,,,,,,,,,,,m,1,0.6274,,,,,,,,0.377604167,-0.4921875,0,0,0,,0,99,99,14,1,PICKLE,LB,old,m,./images/PICKLELB.png,,,,,,,,,,,,,,,,,,,,,,,,,,,,,,,,,,
,,,,,,,,,,,,,,,,,6103266d6b839e4955e8e2f3,24,2022-02-12_10h47.45.687,lexical_decision_task_DD,2021.2.3,Win32,60.25911419,,,,,,,,,,,,0.5076,1,,,,,,,,,,,,,,z,1,0.5076,,,,,,,,0.377604167,-0.4921875,0,0,0,,0,100,100,150,1,NOOLS,C,old,z,./images/NOOLS.png,,,,,,,,,,,,,,,,,,,,,,,,,,,,,,,,,,
,,,,,,,,,,,,,,,,,6103266d6b839e4955e8e2f3,24,2022-02-12_10h47.45.687,lexical_decision_task_DD,2021.2.3,Win32,60.25911419,,,,,,,,,,,,0.6291,1,,,,,,,,,,,,,,z,1,0.6291,,,,,,,,0.377604167,-0.493489583,0,0,0,,0,101,101,124,1,TUNCH,HB,old,z,./images/TUNCHHB.png,,,,,,,,,,,,,,,,,,,,,,,,,,,,,,,,,,
,,,,,,,,,,,,,,,,,6103266d6b839e4955e8e2f3,24,2022-02-12_10h47.45.687,lexical_decision_task_DD,2021.2.3,Win32,60.25911419,,,,,,,,,,,,0.5985,1,,,,,,,,,,,,,,z,1,0.5985,,,,,,,,0.377604167,-0.49609375,0,0,0,,0,102,102,125,1,MOOKY,LB,old,z,./images/MOOKYLB.png,,,,,,,,,,,,,,,,,,,,,,,,,,,,,,,,,,
,,,,,,,,,,,,,,,,,6103266d6b839e4955e8e2f3,24,2022-02-12_10h47.45.687,lexical_decision_task_DD,2021.2.3,Win32,60.25911419,,,,,,,,,,,,0.6962,1,,,,,,,,,,,,,,m,1,0.6962,,,,,,,,0.377604167,-0.497395833,0,0,0,,0,103,103,4,1,MUSCLE,HB,old,m,./images/MUSCLEHB.png,,,,,,,,,,,,,,,,,,,,,,,,,,,,,,,,,,
,,,,,,,,,,,,,,,,,6103266d6b839e4955e8e2f3,24,2022-02-12_10h47.45.687,lexical_decision_task_DD,2021.2.3,Win32,60.25911419,,,,,,,,,,,,0.8696,0,,,,,,,,,,,,,,z,0,0.8696,,,,,,,,0.377604167,-0.498697917,0,0,0,,0,104,104,67,1,SAILOR,HB,old,m,./images/SAILORHB.png,,,,,,,,,,,,,,,,,,,,,,,,,,,,,,,,,,
,,,,,,,,,,,,,,,,,6103266d6b839e4955e8e2f3,24,2022-02-12_10h47.45.687,lexical_decision_task_DD,2021.2.3,Win32,60.25911419,,,,,,,,,,,,0.5299,1,,,,,,,,,,,,,,z,1,0.5299,,,,,,,,0.377604167,-0.498697917,0,0,0,,0,105,105,162,1,LEICH,C,old,z,./images/LEICH.png,,,,,,,,,,,,,,,,,,,,,,,,,,,,,,,,,,
,,,,,,,,,,,,,,,,,6103266d6b839e4955e8e2f3,24,2022-02-12_10h47.45.687,lexical_decision_task_DD,2021.2.3,Win32,60.25911419,,,,,,,,,,,,0.7658,1,,,,,,,,,,,,,,z,1,0.7658,,,,,,,,0.377604167,-0.498697917,0,0,0,,0,106,106,127,1,NINDY,HB,old,z,./images/NINDYHB.png,,,,,,,,,,,,,,,,,,,,,,,,,,,,,,,,,,
,,,,,,,,,,,,,,,,,6103266d6b839e4955e8e2f3,24,2022-02-12_10h47.45.687,lexical_decision_task_DD,2021.2.3,Win32,60.25911419,,,,,,,,,,,,0.5563,1,,,,,,,,,,,,,,m,1,0.5563,,,,,,,,0.377604167,-0.498697917,0,0,0,,0,107,107,48,1,SPORT,C,old,m,./images/SPORT.png,,,,,,,,,,,,,,,,,,,,,,,,,,,,,,,,,,
,,,,,,,,,,,,,,,,,6103266d6b839e4955e8e2f3,24,2022-02-12_10h47.45.687,lexical_decision_task_DD,2021.2.3,Win32,60.25911419,,,,,,,,,,,,0.7121,1,,,,,,,,,,,,,,m,1,0.7121,,,,,,,,0.377604167,-0.498697917,0,0,0,,0,108,108,80,1,WEASEL,LB,old,m,./images/WEASELLB.png,,,,,,,,,,,,,,,,,,,,,,,,,,,,,,,,,,
,,,,,,,,,,,,,,,,,6103266d6b839e4955e8e2f3,24,2022-02-12_10h47.45.687,lexical_decision_task_DD,2021.2.3,Win32,60.25911419,,,,,,,,,,,,0.5824,1,,,,,,,,,,,,,,m,1,0.5824,,,,,,,,0.377604167,-0.498697917,0,0,0,,0,109,109,70,1,URINE,HB,old,m,./images/URINEHB.png,,,,,,,,,,,,,,,,,,,,,,,,,,,,,,,,,,
,,,,,,,,,,,,,,,,,6103266d6b839e4955e8e2f3,24,2022-02-12_10h47.45.687,lexical_decision_task_DD,2021.2.3,Win32,60.25911419,,,,,,,,,,,,0.7057,1,,,,,,,,,,,,,,z,1,0.7057,,,,,,,,0.376302083,-0.498697917,0,0,0,,0,110,110,88,1,GLUSH,HB,old,z,./images/GLUSHHB.png,,,,,,,,,,,,,,,,,,,,,,,,,,,,,,,,,,
,,,,,,,,,,,,,,,,,6103266d6b839e4955e8e2f3,24,2022-02-12_10h47.45.687,lexical_decision_task_DD,2021.2.3,Win32,60.25911419,,,,,,,,,,,,0.5089,1,,,,,,,,,,,,,,m,1,0.5089,,,,,,,,0.376302083,-0.498697917,0,0,0,,0,111,111,3,1,FINGER,C,old,m,./images/FINGER.png,,,,,,,,,,,,,,,,,,,,,,,,,,,,,,,,,,
,,,,,,,,,,,,,,,,,6103266d6b839e4955e8e2f3,24,2022-02-12_10h47.45.687,lexical_decision_task_DD,2021.2.3,Win32,60.25911419,,,,,,,,,,,,0.6705,1,,,,,,,,,,,,,,z,1,0.6705,,,,,,,,0.376302083,-0.498697917,0,0,0,,0,112,112,163,1,GAMBA,HB,old,z,./images/GAMBAHB.png,,,,,,,,,,,,,,,,,,,,,,,,,,,,,,,,,,
,,,,,,,,,,,,,,,,,6103266d6b839e4955e8e2f3,24,2022-02-12_10h47.45.687,lexical_decision_task_DD,2021.2.3,Win32,60.25911419,,,,,,,,,,,,0.5707,1,,,,,,,,,,,,,,m,1,0.5707,,,,,,,,0.375,-0.498697917,0,0,0,,0,113,113,83,1,JUNGLE,LB,old,m,./images/JUNGLELB.png,,,,,,,,,,,,,,,,,,,,,,,,,,,,,,,,,,
,,,,,,,,,,,,,,,,,6103266d6b839e4955e8e2f3,24,2022-02-12_10h47.45.687,lexical_decision_task_DD,2021.2.3,Win32,60.25911419,,,,,,,,,,,,0.575,1,,,,,,,,,,,,,,m,1,0.575,,,,,,,,0.375,-0.498697917,0,0,0,,0,114,114,57,1,MOOSE,C,old,m,./images/MOOSE.png,,,,,,,,,,,,,,,,,,,,,,,,,,,,,,,,,,
,,,,,,,,,,,,,,,,,6103266d6b839e4955e8e2f3,24,2022-02-12_10h47.45.687,lexical_decision_task_DD,2021.2.3,Win32,60.25911419,,,,,,,,,,,,0.4949,1,,,,,,,,,,,,,,m,1,0.4949,,,,,,,,0.375,-0.498697917,0,0,0,,0,115,115,38,1,LADDER,LB,old,m,./images/LADDERLB.png,,,,,,,,,,,,,,,,,,,,,,,,,,,,,,,,,,
,,,,,,,,,,,,,,,,,6103266d6b839e4955e8e2f3,24,2022-02-12_10h47.45.687,lexical_decision_task_DD,2021.2.3,Win32,60.25911419,,,,,,,,,,,,0.5632,1,,,,,,,,,,,,,,m,1,0.5632,,,,,,,,0.375,-0.498697917,0,0,0,,0,116,116,10,1,BELLY,HB,old,m,./images/BELLYHB.png,,,,,,,,,,,,,,,,,,,,,,,,,,,,,,,,,,
,,,,,,,,,,,,,,,,,6103266d6b839e4955e8e2f3,24,2022-02-12_10h47.45.687,lexical_decision_task_DD,2021.2.3,Win32,60.25911419,,,,,,,,,,,,0.4982,1,,,,,,,,,,,,,,z,1,0.4982,,,,,,,,0.375,-0.498697917,0,0,0,,0,117,117,153,1,CLUPS,C,old,z,./images/CLUPS.png,,,,,,,,,,,,,,,,,,,,,,,,,,,,,,,,,,
,,,,,,,,,,,,,,,,,6103266d6b839e4955e8e2f3,24,2022-02-12_10h47.45.687,lexical_decision_task_DD,2021.2.3,Win32,60.25911419,,,,,,,,,,,,0.6126,1,,,,,,,,,,,,,,z,1,0.6126,,,,,,,,0.375,-0.498697917,0,0,0,,0,118,118,92,1,PAIMS,LB,old,z,./images/PAIMSLB.png,,,,,,,,,,,,,,,,,,,,,,,,,,,,,,,,,,
,,,,,,,,,,,,,,,,,6103266d6b839e4955e8e2f3,24,2022-02-12_10h47.45.687,lexical_decision_task_DD,2021.2.3,Win32,60.25911419,,,,,,,,,,,,0.6743,1,,,,,,,,,,,,,,z,1,0.6743,,,,,,,,0.375,-0.498697917,0,0,0,,0,119,119,109,1,BURGE,HB,old,z,./images/BURGEHB.png,,,,,,,,,,,,,,,,,,,,,,,,,,,,,,,,,,
,,,,,,,,,,,,,,,,,6103266d6b839e4955e8e2f3,24,2022-02-12_10h47.45.687,lexical_decision_task_DD,2021.2.3,Win32,60.25911419,,,,,,,,,,,,0.4904,1,,,,,,,,,,,,,,m,1,0.4904,,,,,,,,0.375,-0.498697917,0,0,0,,0,120,120,15,1,GREASE,C,old,m,./images/GREASE.png,,,,,,,,,,,,,,,,,,,,,,,,,,,,,,,,,,
,,,,,,,,,,,,,,,,,6103266d6b839e4955e8e2f3,24,2022-02-12_10h47.45.687,lexical_decision_task_DD,2021.2.3,Win32,60.25911419,,,,,,,,,,,,0.5027,1,,,,,,,,,,,,,,m,1,0.5027,,,,,,,,0.375,-0.498697917,0,0,0,,0,121,121,53,1,CARPET,LB,old,m,./images/CARPETLB.png,,,,,,,,,,,,,,,,,,,,,,,,,,,,,,,,,,
,,,,,,,,,,,,,,,,,6103266d6b839e4955e8e2f3,24,2022-02-12_10h47.45.687,lexical_decision_task_DD,2021.2.3,Win32,60.25911419,,,,,,,,,,,,0.7472,1,,,,,,,,,,,,,,m,1,0.7472,,,,,,,,0.375,-0.498697917,0,0,0,,0,122,122,0,1,TOMATO,C,old,m,./images/TOMATO.png,,,,,,,,,,,,,,,,,,,,,,,,,,,,,,,,,,
,,,,,,,,,,,,,,,,,6103266d6b839e4955e8e2f3,24,2022-02-12_10h47.45.687,lexical_decision_task_DD,2021.2.3,Win32,60.25911419,,,,,,,,,,,,0.4615,1,,,,,,,,,,,,,,m,1,0.4615,,,,,,,,0.375,-0.498697917,0,0,0,,0,123,123,69,1,COOKER,C,old,m,./images/COOKER.png,,,,,,,,,,,,,,,,,,,,,,,,,,,,,,,,,,
,,,,,,,,,,,,,,,,,6103266d6b839e4955e8e2f3,24,2022-02-12_10h47.45.687,lexical_decision_task_DD,2021.2.3,Win32,60.25911419,,,,,,,,,,,,0.7169,1,,,,,,,,,,,,,,z,1,0.7169,,,,,,,,0.375,-0.498697917,0,0,0,,0,124,124,139,1,BLEAR,HB,old,z,./images/BLEARHB.png,,,,,,,,,,,,,,,,,,,,,,,,,,,,,,,,,,
,,,,,,,,,,,,,,,,,6103266d6b839e4955e8e2f3,24,2022-02-12_10h47.45.687,lexical_decision_task_DD,2021.2.3,Win32,60.25911419,,,,,,,,,,,,0.8226,1,,,,,,,,,,,,,,m,1,0.8226,,,,,,,,0.34765625,-0.498697917,0,0,0,space,0,125,125,46,1,PEARL,HB,old,m,./images/PEARLHB.png,42.2217,,,,,,,,,,,,,,,,,,,,,,,,,,,,,,,,,
,,,,,,,,,,,,,,,,,6103266d6b839e4955e8e2f3,24,2022-02-12_10h47.45.687,lexical_decision_task_DD,2021.2.3,Win32,60.25911419,,,,,,,,,,,,0.7039,1,,,,,,,,,,,,,,z,1,0.7039,,,,,,,,0.359375,-0.498697917,0,0,0,,0,126,126,160,1,VEETS,HB,old,z,./images/VEETSHB.png,,,,,,,,,,,,,,,,,,,,,,,,,,,,,,,,,,
,,,,,,,,,,,,,,,,,6103266d6b839e4955e8e2f3,24,2022-02-12_10h47.45.687,lexical_decision_task_DD,2021.2.3,Win32,60.25911419,,,,,,,,,,,,0.6759,1,,,,,,,,,,,,,,m,1,0.6759,,,,,,,,0.364583333,-0.489583333,0,0,0,,0,127,127,81,1,POODLE,C,old,m,./images/POODLE.png,,,,,,,,,,,,,,,,,,,,,,,,,,,,,,,,,,
,,,,,,,,,,,,,,,,,6103266d6b839e4955e8e2f3,24,2022-02-12_10h47.45.687,lexical_decision_task_DD,2021.2.3,Win32,60.25911419,,,,,,,,,,,,0.5769,1,,,,,,,,,,,,,,z,1,0.5769,,,,,,,,0.365885417,-0.486979167,0,0,0,,0,128,128,102,1,DULLE,C,old,z,./images/DULLE.png,,,,,,,,,,,,,,,,,,,,,,,,,,,,,,,,,,
,,,,,,,,,,,,,,,,,6103266d6b839e4955e8e2f3,24,2022-02-12_10h47.45.687,lexical_decision_task_DD,2021.2.3,Win32,60.25911419,,,,,,,,,,,,0.4775,1,,,,,,,,,,,,,,z,1,0.4775,,,,,,,,0.365885417,-0.486979167,0,0,0,,0,129,129,147,1,ZOLES,C,old,z,./images/ZOLES.png,,,,,,,,,,,,,,,,,,,,,,,,,,,,,,,,,,
,,,,,,,,,,,,,,,,,6103266d6b839e4955e8e2f3,24,2022-02-12_10h47.45.687,lexical_decision_task_DD,2021.2.3,Win32,60.25911419,,,,,,,,,,,,0.4703,1,,,,,,,,,,,,,,z,1,0.4703,,,,,,,,0.365885417,-0.486979167,0,0,0,,0,130,130,116,1,BALGY,LB,old,z,./images/BALGYLB.png,,,,,,,,,,,,,,,,,,,,,,,,,,,,,,,,,,
,,,,,,,,,,,,,,,,,6103266d6b839e4955e8e2f3,24,2022-02-12_10h47.45.687,lexical_decision_task_DD,2021.2.3,Win32,60.25911419,,,,,,,,,,,,0.5272,1,,,,,,,,,,,,,,m,1,0.5272,,,,,,,,0.365885417,-0.486979167,0,0,0,,0,131,131,44,1,LIZARD,LB,old,m,./images/LIZARDLB.png,,,,,,,,,,,,,,,,,,,,,,,,,,,,,,,,,,
,,,,,,,,,,,,,,,,,6103266d6b839e4955e8e2f3,24,2022-02-12_10h47.45.687,lexical_decision_task_DD,2021.2.3,Win32,60.25911419,,,,,,,,,,,,0.7413,1,,,,,,,,,,,,,,m,1,0.7413,,,,,,,,0.365885417,-0.486979167,0,0,0,,0,132,132,60,1,TWINS,C,old,m,./images/TWINS.png,,,,,,,,,,,,,,,,,,,,,,,,,,,,,,,,,,
,,,,,,,,,,,,,,,,,6103266d6b839e4955e8e2f3,24,2022-02-12_10h47.45.687,lexical_decision_task_DD,2021.2.3,Win32,60.25911419,,,,,,,,,,,,0.7615,1,,,,,,,,,,,,,,m,1,0.7615,,,,,,,,0.365885417,-0.486979167,0,0,0,,0,133,133,55,1,MUFFIN,HB,old,m,./images/MUFFINHB.png,,,,,,,,,,,,,,,,,,,,,,,,,,,,,,,,,,
,,,,,,,,,,,,,,,,,6103266d6b839e4955e8e2f3,24,2022-02-12_10h47.45.687,lexical_decision_task_DD,2021.2.3,Win32,60.25911419,,,,,,,,,,,,0.6827,1,,,,,,,,,,,,,,m,1,0.6827,,,,,,,,0.365885417,-0.486979167,0,0,0,,0,134,134,17,1,SKIING,LB,old,m,./images/SKIINGLB.png,,,,,,,,,,,,,,,,,,,,,,,,,,,,,,,,,,
,,,,,,,,,,,,,,,,,6103266d6b839e4955e8e2f3,24,2022-02-12_10h47.45.687,lexical_decision_task_DD,2021.2.3,Win32,60.25911419,,,,,,,,,,,,0.7046,1,,,,,,,,,,,,,,m,1,0.7046,,,,,,,,0.365885417,-0.486979167,0,0,0,,0,135,135,20,1,CRADLE,LB,old,m,./images/CRADLELB.png,,,,,,,,,,,,,,,,,,,,,,,,,,,,,,,,,,
,,,,,,,,,,,,,,,,,6103266d6b839e4955e8e2f3,24,2022-02-12_10h47.45.687,lexical_decision_task_DD,2021.2.3,Win32,60.25911419,,,,,,,,,,,,0.594,1,,,,,,,,,,,,,,m,1,0.594,,,,,,,,0.365885417,-0.486979167,0,0,0,,0,136,136,7,1,PAINT,HB,old,m,./images/PAINTHB.png,,,,,,,,,,,,,,,,,,,,,,,,,,,,,,,,,,
,,,,,,,,,,,,,,,,,6103266d6b839e4955e8e2f3,24,2022-02-12_10h47.45.687,lexical_decision_task_DD,2021.2.3,Win32,60.25911419,,,,,,,,,,,,0.6098,1,,,,,,,,,,,,,,z,1,0.6098,,,,,,,,0.365885417,-0.486979167,0,0,0,,0,137,137,134,1,TROSS,LB,old,z,./images/TROSSLB.png,,,,,,,,,,,,,,,,,,,,,,,,,,,,,,,,,,
,,,,,,,,,,,,,,,,,6103266d6b839e4955e8e2f3,24,2022-02-12_10h47.45.687,lexical_decision_task_DD,2021.2.3,Win32,60.25911419,,,,,,,,,,,,0.5383,1,,,,,,,,,,,,,,z,1,0.5383,,,,,,,,0.365885417,-0.486979167,0,0,0,,0,138,138,90,1,NEAST,C,old,z,./images/NEAST.png,,,,,,,,,,,,,,,,,,,,,,,,,,,,,,,,,,
,,,,,,,,,,,,,,,,,6103266d6b839e4955e8e2f3,24,2022-02-12_10h47.45.687,lexical_decision_task_DD,2021.2.3,Win32,60.25911419,,,,,,,,,,,,0.5456,1,,,,,,,,,,,,,,m,1,0.5456,,,,,,,,0.365885417,-0.486979167,0,0,0,,0,139,139,56,1,PACKET,LB,old,m,./images/PACKETLB.png,,,,,,,,,,,,,,,,,,,,,,,,,,,,,,,,,,
,,,,,,,,,,,,,,,,,6103266d6b839e4955e8e2f3,24,2022-02-12_10h47.45.687,lexical_decision_task_DD,2021.2.3,Win32,60.25911419,,,,,,,,,,,,1.3892,0,,,,,,,,,,,,,,z,0,1.3892,,,,,,,,0.364583333,-0.486979167,0,0,0,,0,140,140,16,1,PENCE,HB,old,m,./images/PENCEHB.png,,,,,,,,,,,,,,,,,,,,,,,,,,,,,,,,,,
,,,,,,,,,,,,,,,,,6103266d6b839e4955e8e2f3,24,2022-02-12_10h47.45.687,lexical_decision_task_DD,2021.2.3,Win32,60.25911419,,,,,,,,,,,,0.6457,1,,,,,,,,,,,,,,m,1,0.6457,,,,,,,,0.3671875,-0.483072917,0,0,0,,0,141,141,59,1,BURIAL,LB,old,m,./images/BURIALLB.png,,,,,,,,,,,,,,,,,,,,,,,,,,,,,,,,,,
,,,,,,,,,,,,,,,,,6103266d6b839e4955e8e2f3,24,2022-02-12_10h47.45.687,lexical_decision_task_DD,2021.2.3,Win32,60.25911419,,,,,,,,,,,,0.5801,1,,,,,,,,,,,,,,m,1,0.5801,,,,,,,,0.3671875,-0.481770833,0,0,0,,0,142,142,2,1,BEARD,LB,old,m,./images/BEARDLB.png,,,,,,,,,,,,,,,,,,,,,,,,,,,,,,,,,,
,,,,,,,,,,,,,,,,,6103266d6b839e4955e8e2f3,24,2022-02-12_10h47.45.687,lexical_decision_task_DD,2021.2.3,Win32,60.25911419,,,,,,,,,,,,0.5582,1,,,,,,,,,,,,,,m,1,0.5582,,,,,,,,0.3671875,-0.481770833,0,0,0,,0,143,143,79,1,CRUST,HB,old,m,./images/CRUSTHB.png,,,,,,,,,,,,,,,,,,,,,,,,,,,,,,,,,,
,,,,,,,,,,,,,,,,,6103266d6b839e4955e8e2f3,24,2022-02-12_10h47.45.687,lexical_decision_task_DD,2021.2.3,Win32,60.25911419,,,,,,,,,,,,0.963,1,,,,,,,,,,,,,,z,1,0.963,,,,,,,,0.3671875,-0.481770833,0,0,0,,0,144,144,97,1,CHIDS,HB,old,z,./images/CHIDSHB.png,,,,,,,,,,,,,,,,,,,,,,,,,,,,,,,,,,
,,,,,,,,,,,,,,,,,6103266d6b839e4955e8e2f3,24,2022-02-12_10h47.45.687,lexical_decision_task_DD,2021.2.3,Win32,60.25911419,,,,,,,,,,,,0.7312,1,,,,,,,,,,,,,,z,1,0.7312,,,,,,,,0.3671875,-0.481770833,0,0,0,,0,145,145,99,1,BACKY,C,old,z,./images/BACKY.png,,,,,,,,,,,,,,,,,,,,,,,,,,,,,,,,,,
,,,,,,,,,,,,,,,,,6103266d6b839e4955e8e2f3,24,2022-02-12_10h47.45.687,lexical_decision_task_DD,2021.2.3,Win32,60.25911419,,,,,,,,,,,,0.6945,1,,,,,,,,,,,,,,m,1,0.6945,,,,,,,,0.3671875,-0.481770833,0,0,0,,0,146,146,34,1,CANYON,HB,old,m,./images/CANYONHB.png,,,,,,,,,,,,,,,,,,,,,,,,,,,,,,,,,,
,,,,,,,,,,,,,,,,,6103266d6b839e4955e8e2f3,24,2022-02-12_10h47.45.687,lexical_decision_task_DD,2021.2.3,Win32,60.25911419,,,,,,,,,,,,0.8707,1,,,,,,,,,,,,,,m,1,0.8707,,,,,,,,0.3671875,-0.481770833,0,0,0,,0,147,147,72,1,NOOSE,C,old,m,./images/NOOSE.png,,,,,,,,,,,,,,,,,,,,,,,,,,,,,,,,,,
,,,,,,,,,,,,,,,,,6103266d6b839e4955e8e2f3,24,2022-02-12_10h47.45.687,lexical_decision_task_DD,2021.2.3,Win32,60.25911419,,,,,,,,,,,,0.8568,1,,,,,,,,,,,,,,z,1,0.8568,,,,,,,,0.3671875,-0.481770833,0,0,0,,0,148,148,115,1,MAWNS,HB,old,z,./images/MAWNSHB.png,,,,,,,,,,,,,,,,,,,,,,,,,,,,,,,,,,
,,,,,,,,,,,,,,,,,6103266d6b839e4955e8e2f3,24,2022-02-12_10h47.45.687,lexical_decision_task_DD,2021.2.3,Win32,60.25911419,,,,,,,,,,,,0.5969,1,,,,,,,,,,,,,,m,1,0.5969,,,,,,,,0.365885417,-0.485677083,0,0,0,,0,149,149,42,1,FOLDER,C,old,m,./images/FOLDER.png,,,,,,,,,,,,,,,,,,,,,,,,,,,,,,,,,,
,,,,,,,,,,,,,,,,,6103266d6b839e4955e8e2f3,24,2022-02-12_10h47.45.687,lexical_decision_task_DD,2021.2.3,Win32,60.25911419,,,,,,,,,,,,0.7492,1,,,,,,,,,,,,,,z,1,0.7492,,,,,,,,0.36328125,-0.485677083,0,0,0,,0,150,150,149,1,VEASE,LB,old,z,./images/VEASELB.png,,,,,,,,,,,,,,,,,,,,,,,,,,,,,,,,,,
,,,,,,,,,,,,,,,,,6103266d6b839e4955e8e2f3,24,2022-02-12_10h47.45.687,lexical_decision_task_DD,2021.2.3,Win32,60.25911419,,,,,,,,,,,,0.6956,1,,,,,,,,,,,,,,m,1,0.6956,,,,,,,,0.36328125,-0.485677083,0,0,0,,0,151,151,36,1,THROAT,C,old,m,./images/THROAT.png,,,,,,,,,,,,,,,,,,,,,,,,,,,,,,,,,,
,,,,,,,,,,,,,,,,,6103266d6b839e4955e8e2f3,24,2022-02-12_10h47.45.687,lexical_decision_task_DD,2021.2.3,Win32,60.25911419,,,,,,,,,,,,0.6699,1,,,,,,,,,,,,,,m,1,0.6699,,,,,,,,0.36328125,-0.485677083,0,0,0,,0,152,152,65,1,FARMER,LB,old,m,./images/FARMERLB.png,,,,,,,,,,,,,,,,,,,,,,,,,,,,,,,,,,
,,,,,,,,,,,,,,,,,6103266d6b839e4955e8e2f3,24,2022-02-12_10h47.45.687,lexical_decision_task_DD,2021.2.3,Win32,60.25911419,,,,,,,,,,,,0.5744,1,,,,,,,,,,,,,,m,1,0.5744,,,,,,,,0.359375,-0.497395833,0,0,0,,0,153,153,39,1,SHELF,C,old,m,./images/SHELF.png,,,,,,,,,,,,,,,,,,,,,,,,,,,,,,,,,,
,,,,,,,,,,,,,,,,,6103266d6b839e4955e8e2f3,24,2022-02-12_10h47.45.687,lexical_decision_task_DD,2021.2.3,Win32,60.25911419,,,,,,,,,,,,0.6785,1,,,,,,,,,,,,,,z,1,0.6785,,,,,,,,0.359375,-0.497395833,0,0,0,,0,154,154,113,1,LINEW,LB,old,z,./images/LINEWLB.png,,,,,,,,,,,,,,,,,,,,,,,,,,,,,,,,,,
,,,,,,,,,,,,,,,,,6103266d6b839e4955e8e2f3,24,2022-02-12_10h47.45.687,lexical_decision_task_DD,2021.2.3,Win32,60.25911419,,,,,,,,,,,,0.6508,1,,,,,,,,,,,,,,m,1,0.6508,,,,,,,,0.359375,-0.497395833,0,0,0,,0,155,155,33,1,MAGGOT,C,old,m,./images/MAGGOT.png,,,,,,,,,,,,,,,,,,,,,,,,,,,,,,,,,,
,,,,,,,,,,,,,,,,,6103266d6b839e4955e8e2f3,24,2022-02-12_10h47.45.687,lexical_decision_task_DD,2021.2.3,Win32,60.25911419,,,,,,,,,,,,0.5622,1,,,,,,,,,,,,,,m,1,0.5622,,,,,,,,0.358072917,-0.497395833,0,0,0,,0,156,156,8,1,TULIP,LB,old,m,./images/TULIPLB.png,,,,,,,,,,,,,,,,,,,,,,,,,,,,,,,,,,
,,,,,,,,,,,,,,,,,6103266d6b839e4955e8e2f3,24,2022-02-12_10h47.45.687,lexical_decision_task_DD,2021.2.3,Win32,60.25911419,,,,,,,,,,,,0.5295,1,,,,,,,,,,,,,,m,1,0.5295,,,,,,,,0.358072917,-0.497395833,0,0,0,,0,157,157,66,1,SWEAT,C,old,m,./images/SWEAT.png,,,,,,,,,,,,,,,,,,,,,,,,,,,,,,,,,,
,,,,,,,,,,,,,,,,,6103266d6b839e4955e8e2f3,24,2022-02-12_10h47.45.687,lexical_decision_task_DD,2021.2.3,Win32,60.25911419,,,,,,,,,,,,0.6921,1,,,,,,,,,,,,,,m,1,0.6921,,,,,,,,0.358072917,-0.497395833,0,0,0,,0,158,158,40,1,SWING,HB,old,m,./images/SWINGHB.png,,,,,,,,,,,,,,,,,,,,,,,,,,,,,,,,,,
,,,,,,,,,,,,,,,,,6103266d6b839e4955e8e2f3,24,2022-02-12_10h47.45.687,lexical_decision_task_DD,2021.2.3,Win32,60.25911419,,,,,,,,,,,,0.4507,1,,,,,,,,,,,,,,m,1,0.4507,,,,,,,,0.358072917,-0.497395833,0,0,0,,0,159,159,77,1,COUCH,LB,old,m,./images/COUCHLB.png,,,,,,,,,,,,,,,,,,,,,,,,,,,,,,,,,,
,,,,,,,,,,,,,,,,,6103266d6b839e4955e8e2f3,24,2022-02-12_10h47.45.687,lexical_decision_task_DD,2021.2.3,Win32,60.25911419,,,,,,,,,,,,0.5331,1,,,,,,,,,,,,,,m,1,0.5331,,,,,,,,0.358072917,-0.497395833,0,0,0,,0,160,160,30,1,STORM,C,old,m,./images/STORM.png,,,,,,,,,,,,,,,,,,,,,,,,,,,,,,,,,,
,,,,,,,,,,,,,,,,,6103266d6b839e4955e8e2f3,24,2022-02-12_10h47.45.687,lexical_decision_task_DD,2021.2.3,Win32,60.25911419,,,,,,,,,,,,0.5042,1,,,,,,,,,,,,,,z,1,0.5042,,,,,,,,0.358072917,-0.497395833,0,0,0,,0,161,161,135,1,JOODY,C,old,z,./images/JOODY.png,,,,,,,,,,,,,,,,,,,,,,,,,,,,,,,,,,
,,,,,,,,,,,,,,,,,6103266d6b839e4955e8e2f3,24,2022-02-12_10h47.45.687,lexical_decision_task_DD,2021.2.3,Win32,60.25911419,,,,,,,,,,,,0.6857,1,,,,,,,,,,,,,,z,1,0.6857,,,,,,,,0.358072917,-0.497395833,0,0,0,,0,162,162,151,1,TINKY,HB,old,z,./images/TINKYHB.png,,,,,,,,,,,,,,,,,,,,,,,,,,,,,,,,,,
,,,,,,,,,,,,,,,,,6103266d6b839e4955e8e2f3,24,2022-02-12_10h47.45.687,lexical_decision_task_DD,2021.2.3,Win32,60.25911419,,,,,,,,,,,,0.4403,1,,,,,,,,,,,,,,m,1,0.4403,,,,,,,,0.358072917,-0.497395833,0,0,0,,0,163,163,6,1,SQUARE,C,old,m,./images/SQUARE.png,,,,,,,,,,,,,,,,,,,,,,,,,,,,,,,,,,
,,,,,,,,,,,,,,,,,6103266d6b839e4955e8e2f3,24,2022-02-12_10h47.45.687,lexical_decision_task_DD,2021.2.3,Win32,60.25911419,,,,,,,,,,,,0.6264,1,,,,,,,,,,,,,,z,1,0.6264,,,,,,,,0.358072917,-0.497395833,0,0,0,,0,164,164,132,1,SCIFF,C,old,z,./images/SCIFF.png,,,,,,,,,,,,,,,,,,,,,,,,,,,,,,,,,,
,,,,,,,,,,,,,,,,,6103266d6b839e4955e8e2f3,24,2022-02-12_10h47.45.687,lexical_decision_task_DD,2021.2.3,Win32,60.25911419,,,,,,,,,,,,0.7161,1,,,,,,,,,,,,,,z,1,0.7161,,,,,,,,0.358072917,-0.497395833,0,0,0,,0,165,165,121,1,CEERS,HB,old,z,./images/CEERSHB.png,,,,,,,,,,,,,,,,,,,,,,,,,,,,,,,,,,
,,,,,,,,,,,,,,,,,6103266d6b839e4955e8e2f3,24,2022-02-12_10h47.45.687,lexical_decision_task_DD,2021.2.3,Win32,60.25911419,,,,,,,,,,,,1.2446,1,,,,,,,,,,,,,,z,1,1.2446,,,,,,,,0.358072917,-0.497395833,0,0,0,,0,166,166,110,1,CRUNK,LB,old,z,./images/CRUNKLB.png,,,,,,,,,,,,,,,,,,,,,,,,,,,,,,,,,,
,,,,,,,,,,,,,,,,,6103266d6b839e4955e8e2f3,24,2022-02-12_10h47.45.687,lexical_decision_task_DD,2021.2.3,Win32,60.25911419,,,,,,,,,,,,0.7047,1,,,,,,,,,,,,,,z,1,0.7047,,,,,,,,0.358072917,-0.497395833,0,0,0,,0,167,167,100,1,DRIBS,HB,old,z,./images/DRIBSHB.png,,,,,,,,,,,,,,,,,,,,,,,,,,,,,,,,,,
,,,,,,,,,,,,,,,,,6103266d6b839e4955e8e2f3,24,2022-02-12_10h47.45.687,lexical_decision_task_DD,2021.2.3,Win32,60.25911419,,,,,,,,,,,,,,,,,,,,,,,,,,,,,,,,,,,,,,,,,,,,,,,,,How likely will it be that you will recognize the words presented slighly blurred on a scale of 0 (not likely) to 100 (most likely)?,,,,,0.013020833,-0.41796875,1,0,0,jol_adv,3,9.2177,0,0,0,1,1,,,,,,,,,,,,,,,,,,,,
,,,,,,,,,,,,,,,,,6103266d6b839e4955e8e2f3,24,2022-02-12_10h47.45.687,lexical_decision_task_DD,2021.2.3,Win32,60.25911419,,,,,,,,,,,,,,,,,,,,,,,,,,,,,,,,,,,,,,,,,,,,,,,,,How likely will it be that you will recognize the words presented very blurred on a scale of 0 (not likely) to 100 (most likely)?,,,,,,,,,,,3,4.544,0,1,1,2,1,,,,,,,,,,,,,,,,,,,,
,,,,,,,,,,,,,,,,,6103266d6b839e4955e8e2f3,24,2022-02-12_10h47.45.687,lexical_decision_task_DD,2021.2.3,Win32,60.25911419,,,,,,,,,,,,,,,,,,,,,,,,,,,,,,,,,,,,,,,,,,,,,,,,,How likely will it be that you will recognize the words presented clearly on a scale of 0 (not likely) to 100 (most likely)?,,,,,,,,,,,1,6.9204,0,2,2,0,1,,,,,,,,,,,,,,,,,,,,
,,-0.05859375,-0.403645833,1,0,0,,,,,,1,test,"In the next phase you will be presented with the words from the the first phase. Your job is to decide whether you remember seeing the word or not. If you remember seeing the word press ""old"" or type ""m"". If you do not remember seeing the word press ""new"" or type ""z"". Please press the space bar or click on continue to begin. ",,,6103266d6b839e4955e8e2f3,24,2022-02-12_10h47.45.687,lexical_decision_task_DD,2021.2.3,Win32,60.25911419,instr_done_button,,,,,,,,,,,,,,,,,,,,,,,,,,,,,,,,,,,,,,,,,,,,,,,,,,,,,,,,,,,,,,,,,,0,0,0,0,1,,,,,,,,,,,,,,,
space,1.54,0.09375,-0.256510417,0,0,0,,,,,,1,test,"In the next phase you will be presented with the words from the the first phase. Your job is to decide whether you remember seeing the word or not. If you remember seeing the word press ""old"" or type ""m"". If you do not remember seeing the word press ""new"" or type ""z"". Please press the space bar or click on continue to begin. ",,,6103266d6b839e4955e8e2f3,24,2022-02-12_10h47.45.687,lexical_decision_task_DD,2021.2.3,Win32,60.25911419,,,,,,,,,,,,,,,,,,,,,,,,,,,,,,,,,,,,,,,,,,,,,,,,,,,,,,,,,,,,,,,,,,,1,0,1,0,1,,,,,,,,,,,,,,,
,,-0.010416667,-0.37109375,1,0,0,,,,,,1,test,"In the next phase you will be presented with the words from the the first phase. Your job is to decide whether you remember seeing the word or not. If you remember seeing the word press ""old"" or type ""m"". If you do not remember seeing the word press ""new"" or type ""z"". Please press the space bar or click on continue to begin. ",,,6103266d6b839e4955e8e2f3,24,2022-02-12_10h47.45.687,lexical_decision_task_DD,2021.2.3,Win32,60.25911419,instr_done_button,,,,,,,,,,,,,,,,,,,,,,,,,,,,,,,,,,,,,,,,,,,,,,,,,,,,,,,,,,,,,,,,,,2,0,2,0,1,,,,,,,,,,,,,,,
,,-0.010416667,-0.37109375,1,0,0,,,,,,1,test,"In the next phase you will be presented with the words from the the first phase. Your job is to decide whether you remember seeing the word or not. If you remember seeing the word press ""old"" or type ""m"". If you do not remember seeing the word press ""new"" or type ""z"". Please press the space bar or click on continue to begin. ",,,6103266d6b839e4955e8e2f3,24,2022-02-12_10h47.45.687,lexical_decision_task_DD,2021.2.3,Win32,60.25911419,instr_done_button,,,,,,,,,,,,,,,,,,,,,,,,,,,,,,,,,,,,,,,,,,,,,,,,,,,,,,,,,,,,,,,,,,3,0,3,0,1,,,,,,,,,,,,,,,
,,-0.010416667,-0.37109375,1,0,0,,,,,,1,test,"In the next phase you will be presented with the words from the the first phase. Your job is to decide whether you remember seeing the word or not. If you remember seeing the word press ""old"" or type ""m"". If you do not remember seeing the word press ""new"" or type ""z"". Please press the space bar or click on continue to begin. ",,,6103266d6b839e4955e8e2f3,24,2022-02-12_10h47.45.687,lexical_decision_task_DD,2021.2.3,Win32,60.25911419,instr_done_button,,,,,,,,,,,,,,,,,,,,,,,,,,,,,,,,,,,,,,,,,,,,,,,,,,,,,,,,,,,,,,,,,,4,0,4,0,1,,,,,,,,,,,,,,,
,,,,,,,,,,,,,,,,,6103266d6b839e4955e8e2f3,24,2022-02-12_10h47.45.687,lexical_decision_task_DD,2021.2.3,Win32,60.25911419,,,,,,,,,,,,1.8409,0,,,,,,,,,,,,,,,,,,,,,,,,-0.010416667,-0.37109375,0,0,0,,,,,,,TIGER,HB,z,m,./images/TIGERHB.png,,,,,,,,,,,,,,,,,,,,m,0,1.8409,,,,,,,,0,0,0,121,1
,,,,,,,,,,,,,,,,,6103266d6b839e4955e8e2f3,24,2022-02-12_10h47.45.687,lexical_decision_task_DD,2021.2.3,Win32,60.25911419,,,,,,,,,,,,0.8308,0,,,,,,,,,,,,,,,,,,,,,,,,0.639322917,-0.498697917,0,0,0,,,,,,,MONKEY,C,z,m,./images/MONKEY.png,,,,,,,,,,,,,,,,,,,,m,0,0.8308,,,,,,,,0,1,1,129,1
,,,,,,,,,,,,,,,,,6103266d6b839e4955e8e2f3,24,2022-02-12_10h47.45.687,lexical_decision_task_DD,2021.2.3,Win32,60.25911419,,,,,,,,,,,,1.2332,1,,,,,,,,,,,,,,,,,,,,,,,,0.643229167,-0.486979167,0,0,0,,,,,,,CHAIN,C,z,m,./images/CHAIN.png,,,,,,,,,,,,,,,,,,,,z,1,1.2332,,,,,,,,0,2,2,126,1
,,,,,,,,,,,,,,,,,6103266d6b839e4955e8e2f3,24,2022-02-12_10h47.45.687,lexical_decision_task_DD,2021.2.3,Win32,60.25911419,,,,,,,,,,,,0.871,1,,,,,,,,,,,,,,,,,,,,,,,,0.641927083,-0.493489583,0,0,0,,,,,,,JUNGLE,LB,m,m,./images/JUNGLELB.png,,,,,,,,,,,,,,,,,,,,m,1,0.871,,,,,,,,0,3,3,83,1
,,,,,,,,,,,,,,,,,6103266d6b839e4955e8e2f3,24,2022-02-12_10h47.45.687,lexical_decision_task_DD,2021.2.3,Win32,60.25911419,,,,,,,,,,,,0.5585,1,,,,,,,,,,,,,,,,,,,,,,,,0.645833333,-0.494791667,0,0,0,,,,,,,LADDER,LB,m,m,./images/LADDERLB.png,,,,,,,,,,,,,,,,,,,,m,1,0.5585,,,,,,,,0,4,4,38,1
,,,,,,,,,,,,,,,,,6103266d6b839e4955e8e2f3,24,2022-02-12_10h47.45.687,lexical_decision_task_DD,2021.2.3,Win32,60.25911419,,,,,,,,,,,,1.5898,0,,,,,,,,,,,,,,,,,,,,,,,,0.64453125,-0.49609375,0,0,0,,,,,,,BIRTH,HB,m,m,./images/BIRTHHB.png,,,,,,,,,,,,,,,,,,,,z,0,1.5898,,,,,,,,0,5,5,37,1
,,,,,,,,,,,,,,,,,6103266d6b839e4955e8e2f3,24,2022-02-12_10h47.45.687,lexical_decision_task_DD,2021.2.3,Win32,60.25911419,,,,,,,,,,,,0.7017,1,,,,,,,,,,,,,,,,,,,,,,,,0.639322917,-0.498697917,0,0,0,,,,,,,PASTA,LB,m,m,./images/PASTALB.png,,,,,,,,,,,,,,,,,,,,m,1,0.7017,,,,,,,,0,6,6,5,1
,,,,,,,,,,,,,,,,,6103266d6b839e4955e8e2f3,24,2022-02-12_10h47.45.687,lexical_decision_task_DD,2021.2.3,Win32,60.25911419,,,,,,,,,,,,0.7005,1,,,,,,,,,,,,,,,,,,,,,,,,0.639322917,-0.498697917,0,0,0,,,,,,,COLLAR,C,z,m,./images/COLLAR.png,,,,,,,,,,,,,,,,,,,,z,1,0.7005,,,,,,,,0,7,7,99,1
,,,,,,,,,,,,,,,,,6103266d6b839e4955e8e2f3,24,2022-02-12_10h47.45.687,lexical_decision_task_DD,2021.2.3,Win32,60.25911419,,,,,,,,,,,,0.8661,1,,,,,,,,,,,,,,,,,,,,,,,,0.639322917,-0.498697917,0,0,0,,,,,,,POSTER,LB,z,m,./images/POSTERLB.png,,,,,,,,,,,,,,,,,,,,z,1,0.8661,,,,,,,,0,8,8,137,1
,,,,,,,,,,,,,,,,,6103266d6b839e4955e8e2f3,24,2022-02-12_10h47.45.687,lexical_decision_task_DD,2021.2.3,Win32,60.25911419,,,,,,,,,,,,0.7491,1,,,,,,,,,,,,,,,,,,,,,,,,0.639322917,-0.498697917,0,0,0,,,,,,,ATTIC,C,m,m,./images/ATTIC.png,,,,,,,,,,,,,,,,,,,,m,1,0.7491,,,,,,,,0,9,9,27,1
,,,,,,,,,,,,,,,,,6103266d6b839e4955e8e2f3,24,2022-02-12_10h47.45.687,lexical_decision_task_DD,2021.2.3,Win32,60.25911419,,,,,,,,,,,,0.584,1,,,,,,,,,,,,,,,,,,,,,,,,0.639322917,-0.498697917,0,0,0,,,,,,,DOUGH,HB,m,m,./images/DOUGHHB.png,,,,,,,,,,,,,,,,,,,,m,1,0.584,,,,,,,,0,10,10,19,1
,,,,,,,,,,,,,,,,,6103266d6b839e4955e8e2f3,24,2022-02-12_10h47.45.687,lexical_decision_task_DD,2021.2.3,Win32,60.25911419,,,,,,,,,,,,0.6632,1,,,,,,,,,,,,,,,,,,,,,,,,0.639322917,-0.498697917,0,0,0,,,,,,,STOOL,HB,z,m,./images/STOOLHB.png,,,,,,,,,,,,,,,,,,,,z,1,0.6632,,,,,,,,0,11,11,127,1
,,,,,,,,,,,,,,,,,6103266d6b839e4955e8e2f3,24,2022-02-12_10h47.45.687,lexical_decision_task_DD,2021.2.3,Win32,60.25911419,,,,,,,,,,,,0.8737,1,,,,,,,,,,,,,,,,,,,,,,,,0.639322917,-0.498697917,0,0,0,,,,,,,RULER,HB,z,m,./images/RULERHB.png,,,,,,,,,,,,,,,,,,,,z,1,0.8737,,,,,,,,0,12,12,163,1
,,,,,,,,,,,,,,,,,6103266d6b839e4955e8e2f3,24,2022-02-12_10h47.45.687,lexical_decision_task_DD,2021.2.3,Win32,60.25911419,,,,,,,,,,,,0.7068,1,,,,,,,,,,,,,,,,,,,,,,,,0.639322917,-0.498697917,0,0,0,,,,,,,LIZARD,LB,m,m,./images/LIZARDLB.png,,,,,,,,,,,,,,,,,,,,m,1,0.7068,,,,,,,,0,13,13,44,1
,,,,,,,,,,,,,,,,,6103266d6b839e4955e8e2f3,24,2022-02-12_10h47.45.687,lexical_decision_task_DD,2021.2.3,Win32,60.25911419,,,,,,,,,,,,0.6705,1,,,,,,,,,,,,,,,,,,,,,,,,0.638020833,-0.498697917,0,0,0,,,,,,,BROOM,C,z,m,./images/BROOM.png,,,,,,,,,,,,,,,,,,,,z,1,0.6705,,,,,,,,0,14,14,162,1
,,,,,,,,,,,,,,,,,6103266d6b839e4955e8e2f3,24,2022-02-12_10h47.45.687,lexical_decision_task_DD,2021.2.3,Win32,60.25911419,,,,,,,,,,,,0.7345,1,,,,,,,,,,,,,,,,,,,,,,,,0.638020833,-0.498697917,0,0,0,,,,,,,DONKEY,HB,z,m,./images/DONKEYHB.png,,,,,,,,,,,,,,,,,,,,z,1,0.7345,,,,,,,,0,15,15,103,1
,,,,,,,,,,,,,,,,,6103266d6b839e4955e8e2f3,24,2022-02-12_10h47.45.687,lexical_decision_task_DD,2021.2.3,Win32,60.25911419,,,,,,,,,,,,1.2156,0,,,,,,,,,,,,,,,,,,,,,,,,0.638020833,-0.498697917,0,0,0,,,,,,,STRING,LB,m,m,./images/STRINGLB.png,,,,,,,,,,,,,,,,,,,,z,0,1.2156,,,,,,,,0,16,16,41,1
,,,,,,,,,,,,,,,,,6103266d6b839e4955e8e2f3,24,2022-02-12_10h47.45.687,lexical_decision_task_DD,2021.2.3,Win32,60.25911419,,,,,,,,,,,,0.6733,1,,,,,,,,,,,,,,,,,,,,,,,,0.638020833,-0.498697917,0,0,0,,,,,,,ARTIST,HB,z,m,./images/ARTISTHB.png,,,,,,,,,,,,,,,,,,,,z,1,0.6733,,,,,,,,0,17,17,145,1
,,,,,,,,,,,,,,,,,6103266d6b839e4955e8e2f3,24,2022-02-12_10h47.45.687,lexical_decision_task_DD,2021.2.3,Win32,60.25911419,,,,,,,,,,,,0.7024,1,,,,,,,,,,,,,,,,,,,,,,,,0.638020833,-0.498697917,0,0,0,,,,,,,JAGUAR,C,m,m,./images/JAGUAR.png,,,,,,,,,,,,,,,,,,,,m,1,0.7024,,,,,,,,0,18,18,18,1
,,,,,,,,,,,,,,,,,6103266d6b839e4955e8e2f3,24,2022-02-12_10h47.45.687,lexical_decision_task_DD,2021.2.3,Win32,60.25911419,,,,,,,,,,,,0.6752,1,,,,,,,,,,,,,,,,,,,,,,,,0.638020833,-0.498697917,0,0,0,,,,,,,CASINO,HB,z,m,./images/CASINOHB.png,,,,,,,,,,,,,,,,,,,,z,1,0.6752,,,,,,,,0,19,19,112,1
,,,,,,,,,,,,,,,,,6103266d6b839e4955e8e2f3,24,2022-02-12_10h47.45.687,lexical_decision_task_DD,2021.2.3,Win32,60.25911419,,,,,,,,,,,,0.8468,1,,,,,,,,,,,,,,,,,,,,,,,,0.63671875,-0.498697917,0,0,0,,,,,,,WALNUT,C,z,m,./images/WALNUT.png,,,,,,,,,,,,,,,,,,,,z,1,0.8468,,,,,,,,0,20,20,84,1
,,,,,,,,,,,,,,,,,6103266d6b839e4955e8e2f3,24,2022-02-12_10h47.45.687,lexical_decision_task_DD,2021.2.3,Win32,60.25911419,,,,,,,,,,,,1.4151,0,,,,,,,,,,,,,,,,,,,,,,,,0.63671875,-0.498697917,0,0,0,,,,,,,CARPET,LB,m,m,./images/CARPETLB.png,,,,,,,,,,,,,,,,,,,,z,0,1.4151,,,,,,,,0,21,21,53,1
,,,,,,,,,,,,,,,,,6103266d6b839e4955e8e2f3,24,2022-02-12_10h47.45.687,lexical_decision_task_DD,2021.2.3,Win32,60.25911419,,,,,,,,,,,,0.6086,0,,,,,,,,,,,,,,,,,,,,,,,,0.63671875,-0.498697917,0,0,0,,,,,,,WALRUS,LB,m,m,./images/WALRUSLB.png,,,,,,,,,,,,,,,,,,,,z,0,0.6086,,,,,,,,0,22,22,23,1
,,,,,,,,,,,,,,,,,6103266d6b839e4955e8e2f3,24,2022-02-12_10h47.45.687,lexical_decision_task_DD,2021.2.3,Win32,60.25911419,,,,,,,,,,,,0.705,1,,,,,,,,,,,,,,,,,,,,,,,,0.63671875,-0.498697917,0,0,0,,,,,,,SAUNA,C,z,m,./images/SAUNA.png,,,,,,,,,,,,,,,,,,,,z,1,0.705,,,,,,,,0,23,23,117,1
,,,,,,,,,,,,,,,,,6103266d6b839e4955e8e2f3,24,2022-02-12_10h47.45.687,lexical_decision_task_DD,2021.2.3,Win32,60.25911419,,,,,,,,,,,,0.6168,1,,,,,,,,,,,,,,,,,,,,,,,,0.63671875,-0.498697917,0,0,0,,,,,,,CANYON,HB,m,m,./images/CANYONHB.png,,,,,,,,,,,,,,,,,,,,m,1,0.6168,,,,,,,,0,24,24,34,1
,,,,,,,,,,,,,,,,,6103266d6b839e4955e8e2f3,24,2022-02-12_10h47.45.687,lexical_decision_task_DD,2021.2.3,Win32,60.25911419,,,,,,,,,,,,0.8713,1,,,,,,,,,,,,,,,,,,,,,,,,0.63671875,-0.498697917,0,0,0,,,,,,,CANDY,C,z,m,./images/CANDY.png,,,,,,,,,,,,,,,,,,,,z,1,0.8713,,,,,,,,0,25,25,123,1
,,,,,,,,,,,,,,,,,6103266d6b839e4955e8e2f3,24,2022-02-12_10h47.45.687,lexical_decision_task_DD,2021.2.3,Win32,60.25911419,,,,,,,,,,,,0.705,1,,,,,,,,,,,,,,,,,,,,,,,,0.635416667,-0.498697917,0,0,0,,,,,,,BUBBLE,LB,z,m,./images/BUBBLELB.png,,,,,,,,,,,,,,,,,,,,z,1,0.705,,,,,,,,0,26,26,155,1
,,,,,,,,,,,,,,,,,6103266d6b839e4955e8e2f3,24,2022-02-12_10h47.45.687,lexical_decision_task_DD,2021.2.3,Win32,60.25911419,,,,,,,,,,,,0.8475,0,,,,,,,,,,,,,,,,,,,,,,,,0.635416667,-0.498697917,0,0,0,,,,,,,FLASK,C,z,m,./images/FLASK.png,,,,,,,,,,,,,,,,,,,,m,0,0.8475,,,,,,,,0,27,27,156,1
,,,,,,,,,,,,,,,,,6103266d6b839e4955e8e2f3,24,2022-02-12_10h47.45.687,lexical_decision_task_DD,2021.2.3,Win32,60.25911419,,,,,,,,,,,,0.5861,1,,,,,,,,,,,,,,,,,,,,,,,,0.635416667,-0.498697917,0,0,0,,,,,,,PILOT,LB,z,m,./images/PILOTLB.png,,,,,,,,,,,,,,,,,,,,z,1,0.5861,,,,,,,,0,28,28,134,1
,,,,,,,,,,,,,,,,,6103266d6b839e4955e8e2f3,24,2022-02-12_10h47.45.687,lexical_decision_task_DD,2021.2.3,Win32,60.25911419,,,,,,,,,,,,0.8887,1,,,,,,,,,,,,,,,,,,,,,,,,0.634114583,-0.498697917,0,0,0,,,,,,,FINGER,C,m,m,./images/FINGER.png,,,,,,,,,,,,,,,,,,,,m,1,0.8887,,,,,,,,0,29,29,3,1
,,,,,,,,,,,,,,,,,6103266d6b839e4955e8e2f3,24,2022-02-12_10h47.45.687,lexical_decision_task_DD,2021.2.3,Win32,60.25911419,,,,,,,,,,,,0.9033,1,,,,,,,,,,,,,,,,,,,,,,,,0.635416667,-0.498697917,0,0,0,,,,,,,SAILOR,HB,m,m,./images/SAILORHB.png,,,,,,,,,,,,,,,,,,,,m,1,0.9033,,,,,,,,0,30,30,67,1
,,,,,,,,,,,,,,,,,6103266d6b839e4955e8e2f3,24,2022-02-12_10h47.45.687,lexical_decision_task_DD,2021.2.3,Win32,60.25911419,,,,,,,,,,,,0.8054,0,,,,,,,,,,,,,,,,,,,,,,,,0.635416667,-0.498697917,0,0,0,,,,,,,COUCH,LB,m,m,./images/COUCHLB.png,,,,,,,,,,,,,,,,,,,,z,0,0.8054,,,,,,,,0,31,31,77,1
,,,,,,,,,,,,,,,,,6103266d6b839e4955e8e2f3,24,2022-02-12_10h47.45.687,lexical_decision_task_DD,2021.2.3,Win32,60.25911419,,,,,,,,,,,,1.3366,1,,,,,,,,,,,,,,,,,,,,,,,,0.635416667,-0.498697917,0,0,0,,,,,,,ENGINE,LB,z,m,./images/ENGINELB.png,,,,,,,,,,,,,,,,,,,,z,1,1.3366,,,,,,,,0,32,32,122,1
,,,,,,,,,,,,,,,,,6103266d6b839e4955e8e2f3,24,2022-02-12_10h47.45.687,lexical_decision_task_DD,2021.2.3,Win32,60.25911419,,,,,,,,,,,,1.0683,1,,,,,,,,,,,,,,,,,,,,,,,,0.635416667,-0.498697917,0,0,0,,,,,,,BURIAL,LB,m,m,./images/BURIALLB.png,,,,,,,,,,,,,,,,,,,,m,1,1.0683,,,,,,,,0,33,33,59,1
,,,,,,,,,,,,,,,,,6103266d6b839e4955e8e2f3,24,2022-02-12_10h47.45.687,lexical_decision_task_DD,2021.2.3,Win32,60.25911419,,,,,,,,,,,,0.6692,1,,,,,,,,,,,,,,,,,,,,,,,,0.635416667,-0.498697917,0,0,0,,,,,,,STOVE,LB,z,m,./images/STOVELB.png,,,,,,,,,,,,,,,,,,,,z,1,0.6692,,,,,,,,0,34,34,86,1
,,,,,,,,,,,,,,,,,6103266d6b839e4955e8e2f3,24,2022-02-12_10h47.45.687,lexical_decision_task_DD,2021.2.3,Win32,60.25911419,,,,,,,,,,,,2.383,1,,,,,,,,,,,,,,,,,,,,,,,,0.635416667,-0.498697917,0,0,0,,,,,,,HAMMER,C,z,m,./images/HAMMER.png,,,,,,,,,,,,,,,,,,,,z,1,2.383,,,,,,,,0,35,35,159,1
,,,,,,,,,,,,,,,,,6103266d6b839e4955e8e2f3,24,2022-02-12_10h47.45.687,lexical_decision_task_DD,2021.2.3,Win32,60.25911419,,,,,,,,,,,,0.9606,0,,,,,,,,,,,,,,,,,,,,,,,,0.635416667,-0.498697917,0,0,0,,,,,,,WAGON,HB,z,m,./images/WAGONHB.png,,,,,,,,,,,,,,,,,,,,m,0,0.9606,,,,,,,,0,36,36,91,1
,,,,,,,,,,,,,,,,,6103266d6b839e4955e8e2f3,24,2022-02-12_10h47.45.687,lexical_decision_task_DD,2021.2.3,Win32,60.25911419,,,,,,,,,,,,0.694,1,,,,,,,,,,,,,,,,,,,,,,,,0.635416667,-0.498697917,0,0,0,,,,,,,FERRY,C,z,m,./images/FERRY.png,,,,,,,,,,,,,,,,,,,,z,1,0.694,,,,,,,,0,37,37,141,1
,,,,,,,,,,,,,,,,,6103266d6b839e4955e8e2f3,24,2022-02-12_10h47.45.687,lexical_decision_task_DD,2021.2.3,Win32,60.25911419,,,,,,,,,,,,0.7008,1,,,,,,,,,,,,,,,,,,,,,,,,0.635416667,-0.498697917,0,0,0,,,,,,,BAKER,C,z,m,./images/BAKER.png,,,,,,,,,,,,,,,,,,,,z,1,0.7008,,,,,,,,0,38,38,147,1
,,,,,,,,,,,,,,,,,6103266d6b839e4955e8e2f3,24,2022-02-12_10h47.45.687,lexical_decision_task_DD,2021.2.3,Win32,60.25911419,,,,,,,,,,,,1.2714,1,,,,,,,,,,,,,,,,,,,,,,,,0.635416667,-0.498697917,0,0,0,,,,,,,GRAIN,C,m,m,./images/GRAIN.png,,,,,,,,,,,,,,,,,,,,m,1,1.2714,,,,,,,,0,39,39,75,1
,,,,,,,,,,,,,,,,,6103266d6b839e4955e8e2f3,24,2022-02-12_10h47.45.687,lexical_decision_task_DD,2021.2.3,Win32,60.25911419,,,,,,,,,,,,0.6246,1,,,,,,,,,,,,,,,,,,,,,,,,0.635416667,-0.498697917,0,0,0,,,,,,,CRUST,HB,m,m,./images/CRUSTHB.png,,,,,,,,,,,,,,,,,,,,m,1,0.6246,,,,,,,,0,40,40,79,1
,,,,,,,,,,,,,,,,,6103266d6b839e4955e8e2f3,24,2022-02-12_10h47.45.687,lexical_decision_task_DD,2021.2.3,Win32,60.25911419,,,,,,,,,,,,0.6192,0,,,,,,,,,,,,,,,,,,,,,,,,0.635416667,-0.498697917,0,0,0,space,,,,,,THROAT,C,m,m,./images/THROAT.png,4.4915,,,,,,,,,,,,,,,,,,,z,0,0.6192,,,,,,,,0,41,41,36,1
,,,,,,,,,,,,,,,,,6103266d6b839e4955e8e2f3,24,2022-02-12_10h47.45.687,lexical_decision_task_DD,2021.2.3,Win32,60.25911419,,,,,,,,,,,,0.999,1,,,,,,,,,,,,,,,,,,,,,,,,0.635416667,-0.498697917,0,0,0,,,,,,,CLOWN,HB,z,m,./images/CLOWNHB.png,,,,,,,,,,,,,,,,,,,,z,1,0.999,,,,,,,,0,42,42,106,1
,,,,,,,,,,,,,,,,,6103266d6b839e4955e8e2f3,24,2022-02-12_10h47.45.687,lexical_decision_task_DD,2021.2.3,Win32,60.25911419,,,,,,,,,,,,1.0141,1,,,,,,,,,,,,,,,,,,,,,,,,0.635416667,-0.498697917,0,0,0,,,,,,,FLESH,C,z,m,./images/FLESH.png,,,,,,,,,,,,,,,,,,,,z,1,1.0141,,,,,,,,0,43,43,108,1
,,,,,,,,,,,,,,,,,6103266d6b839e4955e8e2f3,24,2022-02-12_10h47.45.687,lexical_decision_task_DD,2021.2.3,Win32,60.25911419,,,,,,,,,,,,1.1642,0,,,,,,,,,,,,,,,,,,,,,,,,0.635416667,-0.498697917,0,0,0,,,,,,,FOLDER,C,m,m,./images/FOLDER.png,,,,,,,,,,,,,,,,,,,,z,0,1.1642,,,,,,,,0,44,44,42,1
,,,,,,,,,,,,,,,,,6103266d6b839e4955e8e2f3,24,2022-02-12_10h47.45.687,lexical_decision_task_DD,2021.2.3,Win32,60.25911419,,,,,,,,,,,,0.5873,1,,,,,,,,,,,,,,,,,,,,,,,,0.635416667,-0.498697917,0,0,0,,,,,,,URINE,HB,m,m,./images/URINEHB.png,,,,,,,,,,,,,,,,,,,,m,1,0.5873,,,,,,,,0,45,45,70,1
,,,,,,,,,,,,,,,,,6103266d6b839e4955e8e2f3,24,2022-02-12_10h47.45.687,lexical_decision_task_DD,2021.2.3,Win32,60.25911419,,,,,,,,,,,,0.8001,1,,,,,,,,,,,,,,,,,,,,,,,,0.635416667,-0.498697917,0,0,0,,,,,,,CLOTH,LB,z,m,./images/CLOTHLB.png,,,,,,,,,,,,,,,,,,,,z,1,0.8001,,,,,,,,0,46,46,107,1
,,,,,,,,,,,,,,,,,6103266d6b839e4955e8e2f3,24,2022-02-12_10h47.45.687,lexical_decision_task_DD,2021.2.3,Win32,60.25911419,,,,,,,,,,,,0.8056,1,,,,,,,,,,,,,,,,,,,,,,,,0.635416667,-0.498697917,0,0,0,,,,,,,CLOUD,LB,z,m,./images/CLOUDLB.png,,,,,,,,,,,,,,,,,,,,z,1,0.8056,,,,,,,,0,47,47,110,1
,,,,,,,,,,,,,,,,,6103266d6b839e4955e8e2f3,24,2022-02-12_10h47.45.687,lexical_decision_task_DD,2021.2.3,Win32,60.25911419,,,,,,,,,,,,1.4698,1,,,,,,,,,,,,,,,,,,,,,,,,0.635416667,-0.498697917,0,0,0,,,,,,,SNACK,HB,m,m,./images/SNACKHB.png,,,,,,,,,,,,,,,,,,,,m,1,1.4698,,,,,,,,0,48,48,73,1
,,,,,,,,,,,,,,,,,6103266d6b839e4955e8e2f3,24,2022-02-12_10h47.45.687,lexical_decision_task_DD,2021.2.3,Win32,60.25911419,,,,,,,,,,,,0.8665,1,,,,,,,,,,,,,,,,,,,,,,,,0.635416667,-0.498697917,0,0,0,,,,,,,JUMPER,LB,z,m,./images/JUMPERLB.png,,,,,,,,,,,,,,,,,,,,z,1,0.8665,,,,,,,,0,49,49,158,1
,,,,,,,,,,,,,,,,,6103266d6b839e4955e8e2f3,24,2022-02-12_10h47.45.687,lexical_decision_task_DD,2021.2.3,Win32,60.25911419,,,,,,,,,,,,0.6575,1,,,,,,,,,,,,,,,,,,,,,,,,0.635416667,-0.498697917,0,0,0,,,,,,,SKIING,LB,m,m,./images/SKIINGLB.png,,,,,,,,,,,,,,,,,,,,m,1,0.6575,,,,,,,,0,50,50,17,1
,,,,,,,,,,,,,,,,,6103266d6b839e4955e8e2f3,24,2022-02-12_10h47.45.687,lexical_decision_task_DD,2021.2.3,Win32,60.25911419,,,,,,,,,,,,0.6969,1,,,,,,,,,,,,,,,,,,,,,,,,0.635416667,-0.498697917,0,0,0,,,,,,,BERRY,LB,m,m,./images/BERRYLB.png,,,,,,,,,,,,,,,,,,,,m,1,0.6969,,,,,,,,0,51,51,47,1
,,,,,,,,,,,,,,,,,6103266d6b839e4955e8e2f3,24,2022-02-12_10h47.45.687,lexical_decision_task_DD,2021.2.3,Win32,60.25911419,,,,,,,,,,,,0.5486,1,,,,,,,,,,,,,,,,,,,,,,,,0.623697917,-0.498697917,0,0,0,,,,,,,PARCEL,C,z,m,./images/PARCEL.png,,,,,,,,,,,,,,,,,,,,z,1,0.5486,,,,,,,,0,52,52,102,1
,,,,,,,,,,,,,,,,,6103266d6b839e4955e8e2f3,24,2022-02-12_10h47.45.687,lexical_decision_task_DD,2021.2.3,Win32,60.25911419,,,,,,,,,,,,0.6878,1,,,,,,,,,,,,,,,,,,,,,,,,0.623697917,-0.498697917,0,0,0,,,,,,,GLOVE,HB,z,m,./images/GLOVEHB.png,,,,,,,,,,,,,,,,,,,,z,1,0.6878,,,,,,,,0,53,53,157,1
,,,,,,,,,,,,,,,,,6103266d6b839e4955e8e2f3,24,2022-02-12_10h47.45.687,lexical_decision_task_DD,2021.2.3,Win32,60.25911419,,,,,,,,,,,,0.5757,1,,,,,,,,,,,,,,,,,,,,,,,,0.623697917,-0.498697917,0,0,0,,,,,,,MUMMY,HB,z,m,./images/MUMMYHB.png,,,,,,,,,,,,,,,,,,,,z,1,0.5757,,,,,,,,0,54,54,130,1
,,,,,,,,,,,,,,,,,6103266d6b839e4955e8e2f3,24,2022-02-12_10h47.45.687,lexical_decision_task_DD,2021.2.3,Win32,60.25911419,,,,,,,,,,,,0.8332,1,,,,,,,,,,,,,,,,,,,,,,,,0.623697917,-0.498697917,0,0,0,,,,,,,BISHOP,HB,z,m,./images/BISHOPHB.png,,,,,,,,,,,,,,,,,,,,z,1,0.8332,,,,,,,,0,55,55,133,1
,,,,,,,,,,,,,,,,,6103266d6b839e4955e8e2f3,24,2022-02-12_10h47.45.687,lexical_decision_task_DD,2021.2.3,Win32,60.25911419,,,,,,,,,,,,0.9367,0,,,,,,,,,,,,,,,,,,,,,,,,0.623697917,-0.498697917,0,0,0,,,,,,,ARROW,C,z,m,./images/ARROW.png,,,,,,,,,,,,,,,,,,,,m,0,0.9367,,,,,,,,0,56,56,153,1
,,,,,,,,,,,,,,,,,6103266d6b839e4955e8e2f3,24,2022-02-12_10h47.45.687,lexical_decision_task_DD,2021.2.3,Win32,60.25911419,,,,,,,,,,,,0.5321,0,,,,,,,,,,,,,,,,,,,,,,,,0.623697917,-0.498697917,0,0,0,,,,,,,QUILL,HB,m,m,./images/QUILLHB.png,,,,,,,,,,,,,,,,,,,,z,0,0.5321,,,,,,,,0,57,57,31,1
,,,,,,,,,,,,,,,,,6103266d6b839e4955e8e2f3,24,2022-02-12_10h47.45.687,lexical_decision_task_DD,2021.2.3,Win32,60.25911419,,,,,,,,,,,,0.6551,1,,,,,,,,,,,,,,,,,,,,,,,,0.623697917,-0.498697917,0,0,0,,,,,,,HEATER,LB,z,m,./images/HEATERLB.png,,,,,,,,,,,,,,,,,,,,z,1,0.6551,,,,,,,,0,58,58,140,1
,,,,,,,,,,,,,,,,,6103266d6b839e4955e8e2f3,24,2022-02-12_10h47.45.687,lexical_decision_task_DD,2021.2.3,Win32,60.25911419,,,,,,,,,,,,0.7488,1,,,,,,,,,,,,,,,,,,,,,,,,0.623697917,-0.498697917,0,0,0,,,,,,,CANOE,HB,z,m,./images/CANOEHB.png,,,,,,,,,,,,,,,,,,,,z,1,0.7488,,,,,,,,0,59,59,142,1
,,,,,,,,,,,,,,,,,6103266d6b839e4955e8e2f3,24,2022-02-12_10h47.45.687,lexical_decision_task_DD,2021.2.3,Win32,60.25911419,,,,,,,,,,,,0.6917,1,,,,,,,,,,,,,,,,,,,,,,,,0.622395833,-0.498697917,0,0,0,,,,,,,DANCER,C,z,m,./images/DANCER.png,,,,,,,,,,,,,,,,,,,,z,1,0.6917,,,,,,,,0,60,60,105,1
,,,,,,,,,,,,,,,,,6103266d6b839e4955e8e2f3,24,2022-02-12_10h47.45.687,lexical_decision_task_DD,2021.2.3,Win32,60.25911419,,,,,,,,,,,,0.6662,0,,,,,,,,,,,,,,,,,,,,,,,,0.622395833,-0.498697917,0,0,0,,,,,,,FALCON,HB,m,m,./images/FALCONHB.png,,,,,,,,,,,,,,,,,,,,z,0,0.6662,,,,,,,,0,61,61,28,1
,,,,,,,,,,,,,,,,,6103266d6b839e4955e8e2f3,24,2022-02-12_10h47.45.687,lexical_decision_task_DD,2021.2.3,Win32,60.25911419,,,,,,,,,,,,0.7102,0,,,,,,,,,,,,,,,,,,,,,,,,0.622395833,-0.498697917,0,0,0,,,,,,,FENCE,LB,z,m,./images/FENCELB.png,,,,,,,,,,,,,,,,,,,,m,0,0.7102,,,,,,,,0,62,62,98,1
,,,,,,,,,,,,,,,,,6103266d6b839e4955e8e2f3,24,2022-02-12_10h47.45.687,lexical_decision_task_DD,2021.2.3,Win32,60.25911419,,,,,,,,,,,,0.6157,1,,,,,,,,,,,,,,,,,,,,,,,,0.622395833,-0.498697917,0,0,0,,,,,,,BOILER,C,z,m,./images/BOILER.png,,,,,,,,,,,,,,,,,,,,z,1,0.6157,,,,,,,,0,63,63,120,1
,,,,,,,,,,,,,,,,,6103266d6b839e4955e8e2f3,24,2022-02-12_10h47.45.687,lexical_decision_task_DD,2021.2.3,Win32,60.25911419,,,,,,,,,,,,0.7097,1,,,,,,,,,,,,,,,,,,,,,,,,0.6015625,-0.498697917,0,0,0,,,,,,,SHIELD,C,z,m,./images/SHIELD.png,,,,,,,,,,,,,,,,,,,,z,1,0.7097,,,,,,,,0,64,64,132,1
,,,,,,,,,,,,,,,,,6103266d6b839e4955e8e2f3,24,2022-02-12_10h47.45.687,lexical_decision_task_DD,2021.2.3,Win32,60.25911419,,,,,,,,,,,,0.7192,0,,,,,,,,,,,,,,,,,,,,,,,,0.6015625,-0.498697917,0,0,0,,,,,,,BELLY,HB,m,m,./images/BELLYHB.png,,,,,,,,,,,,,,,,,,,,z,0,0.7192,,,,,,,,0,65,65,10,1
,,,,,,,,,,,,,,,,,6103266d6b839e4955e8e2f3,24,2022-02-12_10h47.45.687,lexical_decision_task_DD,2021.2.3,Win32,60.25911419,,,,,,,,,,,,0.5402,1,,,,,,,,,,,,,,,,,,,,,,,,0.6015625,-0.498697917,0,0,0,,,,,,,BRIDE,HB,z,m,./images/BRIDEHB.png,,,,,,,,,,,,,,,,,,,,z,1,0.5402,,,,,,,,0,66,66,148,1
,,,,,,,,,,,,,,,,,6103266d6b839e4955e8e2f3,24,2022-02-12_10h47.45.687,lexical_decision_task_DD,2021.2.3,Win32,60.25911419,,,,,,,,,,,,0.8571,0,,,,,,,,,,,,,,,,,,,,,,,,0.6015625,-0.498697917,0,0,0,,,,,,,BRUSH,LB,z,m,./images/BRUSHLB.png,,,,,,,,,,,,,,,,,,,,m,0,0.8571,,,,,,,,0,67,67,143,1
,,,,,,,,,,,,,,,,,6103266d6b839e4955e8e2f3,24,2022-02-12_10h47.45.687,lexical_decision_task_DD,2021.2.3,Win32,60.25911419,,,,,,,,,,,,0.6721,0,,,,,,,,,,,,,,,,,,,,,,,,0.6015625,-0.498697917,0,0,0,,,,,,,COOKER,C,m,m,./images/COOKER.png,,,,,,,,,,,,,,,,,,,,z,0,0.6721,,,,,,,,0,68,68,69,1
,,,,,,,,,,,,,,,,,6103266d6b839e4955e8e2f3,24,2022-02-12_10h47.45.687,lexical_decision_task_DD,2021.2.3,Win32,60.25911419,,,,,,,,,,,,0.8803,1,,,,,,,,,,,,,,,,,,,,,,,,0.6015625,-0.498697917,0,0,0,,,,,,,GRAPE,HB,z,m,./images/GRAPEHB.png,,,,,,,,,,,,,,,,,,,,z,1,0.8803,,,,,,,,0,69,69,100,1
,,,,,,,,,,,,,,,,,6103266d6b839e4955e8e2f3,24,2022-02-12_10h47.45.687,lexical_decision_task_DD,2021.2.3,Win32,60.25911419,,,,,,,,,,,,0.6673,1,,,,,,,,,,,,,,,,,,,,,,,,0.6015625,-0.498697917,0,0,0,,,,,,,BEARD,LB,m,m,./images/BEARDLB.png,,,,,,,,,,,,,,,,,,,,m,1,0.6673,,,,,,,,0,70,70,2,1
,,,,,,,,,,,,,,,,,6103266d6b839e4955e8e2f3,24,2022-02-12_10h47.45.687,lexical_decision_task_DD,2021.2.3,Win32,60.25911419,,,,,,,,,,,,1.5055,0,,,,,,,,,,,,,,,,,,,,,,,,0.592447917,-0.493489583,0,0,0,,,,,,,LAGOON,LB,z,m,./images/LAGOONLB.png,,,,,,,,,,,,,,,,,,,,m,0,1.5055,,,,,,,,0,71,71,131,1
,,,,,,,,,,,,,,,,,6103266d6b839e4955e8e2f3,24,2022-02-12_10h47.45.687,lexical_decision_task_DD,2021.2.3,Win32,60.25911419,,,,,,,,,,,,0.6983,0,,,,,,,,,,,,,,,,,,,,,,,,0.592447917,-0.493489583,0,0,0,,,,,,,ALLEY,HB,z,m,./images/ALLEYHB.png,,,,,,,,,,,,,,,,,,,,m,0,0.6983,,,,,,,,0,72,72,139,1
,,,,,,,,,,,,,,,,,6103266d6b839e4955e8e2f3,24,2022-02-12_10h47.45.687,lexical_decision_task_DD,2021.2.3,Win32,60.25911419,,,,,,,,,,,,0.7357,0,,,,,,,,,,,,,,,,,,,,,,,,0.591145833,-0.493489583,0,0,0,,,,,,,TOWEL,HB,z,m,./images/TOWELHB.png,,,,,,,,,,,,,,,,,,,,m,0,0.7357,,,,,,,,0,73,73,85,1
,,,,,,,,,,,,,,,,,6103266d6b839e4955e8e2f3,24,2022-02-12_10h47.45.687,lexical_decision_task_DD,2021.2.3,Win32,60.25911419,,,,,,,,,,,,0.7998,1,,,,,,,,,,,,,,,,,,,,,,,,0.591145833,-0.493489583,0,0,0,,,,,,,CHERRY,C,z,m,./images/CHERRY.png,,,,,,,,,,,,,,,,,,,,z,1,0.7998,,,,,,,,0,74,74,138,1
,,,,,,,,,,,,,,,,,6103266d6b839e4955e8e2f3,24,2022-02-12_10h47.45.687,lexical_decision_task_DD,2021.2.3,Win32,60.25911419,,,,,,,,,,,,0.7564,1,,,,,,,,,,,,,,,,,,,,,,,,0.591145833,-0.49609375,0,0,0,,,,,,,TULIP,LB,m,m,./images/TULIPLB.png,,,,,,,,,,,,,,,,,,,,m,1,0.7564,,,,,,,,0,75,75,8,1
,,,,,,,,,,,,,,,,,6103266d6b839e4955e8e2f3,24,2022-02-12_10h47.45.687,lexical_decision_task_DD,2021.2.3,Win32,60.25911419,,,,,,,,,,,,1.8477,0,,,,,,,,,,,,,,,,,,,,,,,,0.591145833,-0.49609375,0,0,0,,,,,,,CLIFF,LB,z,m,./images/CLIFFLB.png,,,,,,,,,,,,,,,,,,,,m,0,1.8477,,,,,,,,0,76,76,92,1
,,,,,,,,,,,,,,,,,6103266d6b839e4955e8e2f3,24,2022-02-12_10h47.45.687,lexical_decision_task_DD,2021.2.3,Win32,60.25911419,,,,,,,,,,,,1.6156,0,,,,,,,,,,,,,,,,,,,,,,,,0.58984375,-0.49609375,0,0,0,,,,,,,PEARL,HB,m,m,./images/PEARLHB.png,,,,,,,,,,,,,,,,,,,,z,0,1.6156,,,,,,,,0,77,77,46,1
,,,,,,,,,,,,,,,,,6103266d6b839e4955e8e2f3,24,2022-02-12_10h47.45.687,lexical_decision_task_DD,2021.2.3,Win32,60.25911419,,,,,,,,,,,,0.7129,1,,,,,,,,,,,,,,,,,,,,,,,,0.58984375,-0.497395833,0,0,0,,,,,,,CHALK,HB,z,m,./images/CHALKHB.png,,,,,,,,,,,,,,,,,,,,z,1,0.7129,,,,,,,,0,78,78,109,1
,,,,,,,,,,,,,,,,,6103266d6b839e4955e8e2f3,24,2022-02-12_10h47.45.687,lexical_decision_task_DD,2021.2.3,Win32,60.25911419,,,,,,,,,,,,0.5703,1,,,,,,,,,,,,,,,,,,,,,,,,0.58984375,-0.498697917,0,0,0,,,,,,,LLAMA,LB,z,m,./images/LLAMALB.png,,,,,,,,,,,,,,,,,,,,z,1,0.5703,,,,,,,,0,79,79,119,1
,,,,,,,,,,,,,,,,,6103266d6b839e4955e8e2f3,24,2022-02-12_10h47.45.687,lexical_decision_task_DD,2021.2.3,Win32,60.25911419,,,,,,,,,,,,1.0164,1,,,,,,,,,,,,,,,,,,,,,,,,0.58984375,-0.498697917,0,0,0,,,,,,,CURRY,C,z,m,./images/CURRY.png,,,,,,,,,,,,,,,,,,,,z,1,1.0164,,,,,,,,0,80,80,144,1
,,,,,,,,,,,,,,,,,6103266d6b839e4955e8e2f3,24,2022-02-12_10h47.45.687,lexical_decision_task_DD,2021.2.3,Win32,60.25911419,,,,,,,,,,,,0.9499,1,,,,,,,,,,,,,,,,,,,,,,,,0.58984375,-0.498697917,0,0,0,,,,,,,MIDGET,HB,z,m,./images/MIDGETHB.png,,,,,,,,,,,,,,,,,,,,z,1,0.9499,,,,,,,,0,81,81,160,1
,,,,,,,,,,,,,,,,,6103266d6b839e4955e8e2f3,24,2022-02-12_10h47.45.687,lexical_decision_task_DD,2021.2.3,Win32,60.25911419,,,,,,,,,,,,0.5012,1,,,,,,,,,,,,,,,,,,,,,,,,0.58984375,-0.498697917,0,0,0,,,,,,,MEDAL,LB,z,m,./images/MEDALLB.png,,,,,,,,,,,,,,,,,,,,z,1,0.5012,,,,,,,,0,82,82,95,1
,,,,,,,,,,,,,,,,,6103266d6b839e4955e8e2f3,24,2022-02-12_10h47.45.687,lexical_decision_task_DD,2021.2.3,Win32,60.25911419,,,,,,,,,,,,0.7826,0,,,,,,,,,,,,,,,,,,,,,,,,0.588541667,-0.498697917,0,0,0,space,,,,,,GARDEN,HB,z,m,./images/GARDENHB.png,0.8702,,,,,,,,,,,,,,,,,,,m,0,0.7826,,,,,,,,0,83,83,94,1
,,,,,,,,,,,,,,,,,6103266d6b839e4955e8e2f3,24,2022-02-12_10h47.45.687,lexical_decision_task_DD,2021.2.3,Win32,60.25911419,,,,,,,,,,,,0.9278,1,,,,,,,,,,,,,,,,,,,,,,,,0.588541667,-0.498697917,0,0,0,,,,,,,MOSQUE,HB,m,m,./images/MOSQUEHB.png,,,,,,,,,,,,,,,,,,,,m,1,0.9278,,,,,,,,0,84,84,43,1
,,,,,,,,,,,,,,,,,6103266d6b839e4955e8e2f3,24,2022-02-12_10h47.45.687,lexical_decision_task_DD,2021.2.3,Win32,60.25911419,,,,,,,,,,,,0.6655,0,,,,,,,,,,,,,,,,,,,,,,,,0.58984375,-0.493489583,0,0,0,,,,,,,TRIPOD,C,m,m,./images/TRIPOD.png,,,,,,,,,,,,,,,,,,,,z,0,0.6655,,,,,,,,0,85,85,54,1
,,,,,,,,,,,,,,,,,6103266d6b839e4955e8e2f3,24,2022-02-12_10h47.45.687,lexical_decision_task_DD,2021.2.3,Win32,60.25911419,,,,,,,,,,,,0.671,1,,,,,,,,,,,,,,,,,,,,,,,,0.59375,-0.481770833,0,0,0,,,,,,,SUNSET,HB,m,m,./images/SUNSETHB.png,,,,,,,,,,,,,,,,,,,,m,1,0.671,,,,,,,,0,86,86,82,1
,,,,,,,,,,,,,,,,,6103266d6b839e4955e8e2f3,24,2022-02-12_10h47.45.687,lexical_decision_task_DD,2021.2.3,Win32,60.25911419,,,,,,,,,,,,0.7853,1,,,,,,,,,,,,,,,,,,,,,,,,0.59375,-0.481770833,0,0,0,,,,,,,SPORT,C,m,m,./images/SPORT.png,,,,,,,,,,,,,,,,,,,,m,1,0.7853,,,,,,,,0,87,87,48,1
,,,,,,,,,,,,,,,,,6103266d6b839e4955e8e2f3,24,2022-02-12_10h47.45.687,lexical_decision_task_DD,2021.2.3,Win32,60.25911419,,,,,,,,,,,,0.882,0,,,,,,,,,,,,,,,,,,,,,,,,0.59375,-0.481770833,0,0,0,,,,,,,HOCKEY,LB,z,m,./images/HOCKEYLB.png,,,,,,,,,,,,,,,,,,,,m,0,0.882,,,,,,,,0,88,88,116,1
,,,,,,,,,,,,,,,,,6103266d6b839e4955e8e2f3,24,2022-02-12_10h47.45.687,lexical_decision_task_DD,2021.2.3,Win32,60.25911419,,,,,,,,,,,,1.3761,0,,,,,,,,,,,,,,,,,,,,,,,,0.59375,-0.481770833,0,0,0,,,,,,,CRADLE,LB,m,m,./images/CRADLELB.png,,,,,,,,,,,,,,,,,,,,z,0,1.3761,,,,,,,,0,89,89,20,1
,,,,,,,,,,,,,,,,,6103266d6b839e4955e8e2f3,24,2022-02-12_10h47.45.687,lexical_decision_task_DD,2021.2.3,Win32,60.25911419,,,,,,,,,,,,0.64,1,,,,,,,,,,,,,,,,,,,,,,,,0.595052083,-0.481770833,0,0,0,,,,,,,PARADE,LB,z,m,./images/PARADELB.png,,,,,,,,,,,,,,,,,,,,z,1,0.64,,,,,,,,0,90,90,101,1
,,,,,,,,,,,,,,,,,6103266d6b839e4955e8e2f3,24,2022-02-12_10h47.45.687,lexical_decision_task_DD,2021.2.3,Win32,60.25911419,,,,,,,,,,,,1.2536,1,,,,,,,,,,,,,,,,,,,,,,,,0.592447917,-0.485677083,0,0,0,,,,,,,WHEEL,LB,z,m,./images/WHEELLB.png,,,,,,,,,,,,,,,,,,,,z,1,1.2536,,,,,,,,0,91,91,161,1
,,,,,,,,,,,,,,,,,6103266d6b839e4955e8e2f3,24,2022-02-12_10h47.45.687,lexical_decision_task_DD,2021.2.3,Win32,60.25911419,,,,,,,,,,,,0.9996,1,,,,,,,,,,,,,,,,,,,,,,,,0.592447917,-0.485677083,0,0,0,,,,,,,MOOSE,C,m,m,./images/MOOSE.png,,,,,,,,,,,,,,,,,,,,m,1,0.9996,,,,,,,,0,92,92,57,1
,,,,,,,,,,,,,,,,,6103266d6b839e4955e8e2f3,24,2022-02-12_10h47.45.687,lexical_decision_task_DD,2021.2.3,Win32,60.25911419,,,,,,,,,,,,0.6821,1,,,,,,,,,,,,,,,,,,,,,,,,0.592447917,-0.485677083,0,0,0,,,,,,,RHINO,C,m,m,./images/RHINO.png,,,,,,,,,,,,,,,,,,,,m,1,0.6821,,,,,,,,0,93,93,9,1
,,,,,,,,,,,,,,,,,6103266d6b839e4955e8e2f3,24,2022-02-12_10h47.45.687,lexical_decision_task_DD,2021.2.3,Win32,60.25911419,,,,,,,,,,,,0.9488,1,,,,,,,,,,,,,,,,,,,,,,,,0.592447917,-0.485677083,0,0,0,,,,,,,MIRROR,C,m,m,./images/MIRROR.png,,,,,,,,,,,,,,,,,,,,m,1,0.9488,,,,,,,,0,94,94,63,1
,,,,,,,,,,,,,,,,,6103266d6b839e4955e8e2f3,24,2022-02-12_10h47.45.687,lexical_decision_task_DD,2021.2.3,Win32,60.25911419,,,,,,,,,,,,0.7945,1,,,,,,,,,,,,,,,,,,,,,,,,0.592447917,-0.485677083,0,0,0,,,,,,,DRUMS,HB,m,m,./images/DRUMSHB.png,,,,,,,,,,,,,,,,,,,,m,1,0.7945,,,,,,,,0,95,95,49,1
,,,,,,,,,,,,,,,,,6103266d6b839e4955e8e2f3,24,2022-02-12_10h47.45.687,lexical_decision_task_DD,2021.2.3,Win32,60.25911419,,,,,,,,,,,,0.7654,0,,,,,,,,,,,,,,,,,,,,,,,,0.591145833,-0.486979167,0,0,0,,,,,,,SWEAT,C,m,m,./images/SWEAT.png,,,,,,,,,,,,,,,,,,,,z,0,0.7654,,,,,,,,0,96,96,66,1
,,,,,,,,,,,,,,,,,6103266d6b839e4955e8e2f3,24,2022-02-12_10h47.45.687,lexical_decision_task_DD,2021.2.3,Win32,60.25911419,,,,,,,,,,,,0.5566,1,,,,,,,,,,,,,,,,,,,,,,,,0.58984375,-0.486979167,0,0,0,,,,,,,MUFFIN,HB,m,m,./images/MUFFINHB.png,,,,,,,,,,,,,,,,,,,,m,1,0.5566,,,,,,,,0,97,97,55,1
,,,,,,,,,,,,,,,,,6103266d6b839e4955e8e2f3,24,2022-02-12_10h47.45.687,lexical_decision_task_DD,2021.2.3,Win32,60.25911419,,,,,,,,,,,,0.5657,0,,,,,,,,,,,,,,,,,,,,,,,,0.588541667,-0.486979167,0,0,0,,,,,,,SWING,HB,m,m,./images/SWINGHB.png,,,,,,,,,,,,,,,,,,,,z,0,0.5657,,,,,,,,0,98,98,40,1
,,,,,,,,,,,,,,,,,6103266d6b839e4955e8e2f3,24,2022-02-12_10h47.45.687,lexical_decision_task_DD,2021.2.3,Win32,60.25911419,,,,,,,,,,,,1.2483,1,,,,,,,,,,,,,,,,,,,,,,,,0.588541667,-0.486979167,0,0,0,,,,,,,NOOSE,C,m,m,./images/NOOSE.png,,,,,,,,,,,,,,,,,,,,m,1,1.2483,,,,,,,,0,99,99,72,1
,,,,,,,,,,,,,,,,,6103266d6b839e4955e8e2f3,24,2022-02-12_10h47.45.687,lexical_decision_task_DD,2021.2.3,Win32,60.25911419,,,,,,,,,,,,0.6158,1,,,,,,,,,,,,,,,,,,,,,,,,0.588541667,-0.486979167,0,0,0,,,,,,,BLOKE,C,z,m,./images/BLOKE.png,,,,,,,,,,,,,,,,,,,,z,1,0.6158,,,,,,,,0,100,100,96,1
,,,,,,,,,,,,,,,,,6103266d6b839e4955e8e2f3,24,2022-02-12_10h47.45.687,lexical_decision_task_DD,2021.2.3,Win32,60.25911419,,,,,,,,,,,,1.0884,1,,,,,,,,,,,,,,,,,,,,,,,,0.588541667,-0.486979167,0,0,0,,,,,,,FARMER,LB,m,m,./images/FARMERLB.png,,,,,,,,,,,,,,,,,,,,m,1,1.0884,,,,,,,,0,101,101,65,1
,,,,,,,,,,,,,,,,,6103266d6b839e4955e8e2f3,24,2022-02-12_10h47.45.687,lexical_decision_task_DD,2021.2.3,Win32,60.25911419,,,,,,,,,,,,0.6531,1,,,,,,,,,,,,,,,,,,,,,,,,0.588541667,-0.486979167,0,0,0,,,,,,,BANANA,HB,z,m,./images/BANANAHB.png,,,,,,,,,,,,,,,,,,,,z,1,0.6531,,,,,,,,0,102,102,154,1
,,,,,,,,,,,,,,,,,6103266d6b839e4955e8e2f3,24,2022-02-12_10h47.45.687,lexical_decision_task_DD,2021.2.3,Win32,60.25911419,,,,,,,,,,,,0.6396,1,,,,,,,,,,,,,,,,,,,,,,,,0.588541667,-0.486979167,0,0,0,,,,,,,MALLET,LB,m,m,./images/MALLETLB.png,,,,,,,,,,,,,,,,,,,,m,1,0.6396,,,,,,,,0,103,103,50,1
,,,,,,,,,,,,,,,,,6103266d6b839e4955e8e2f3,24,2022-02-12_10h47.45.687,lexical_decision_task_DD,2021.2.3,Win32,60.25911419,,,,,,,,,,,,1.6699,1,,,,,,,,,,,,,,,,,,,,,,,,0.588541667,-0.486979167,0,0,0,,,,,,,BASKET,LB,z,m,./images/BASKETLB.png,,,,,,,,,,,,,,,,,,,,z,1,1.6699,,,,,,,,0,104,104,128,1
,,,,,,,,,,,,,,,,,6103266d6b839e4955e8e2f3,24,2022-02-12_10h47.45.687,lexical_decision_task_DD,2021.2.3,Win32,60.25911419,,,,,,,,,,,,1.5428,0,,,,,,,,,,,,,,,,,,,,,,,,0.588541667,-0.48828125,0,0,0,,,,,,,BAMBOO,LB,z,m,./images/BAMBOOLB.png,,,,,,,,,,,,,,,,,,,,m,0,1.5428,,,,,,,,0,105,105,89,1
,,,,,,,,,,,,,,,,,6103266d6b839e4955e8e2f3,24,2022-02-12_10h47.45.687,lexical_decision_task_DD,2021.2.3,Win32,60.25911419,,,,,,,,,,,,0.7102,0,,,,,,,,,,,,,,,,,,,,,,,,0.588541667,-0.48828125,0,0,0,,,,,,,SHELF,C,m,m,./images/SHELF.png,,,,,,,,,,,,,,,,,,,,z,0,0.7102,,,,,,,,0,106,106,39,1
,,,,,,,,,,,,,,,,,6103266d6b839e4955e8e2f3,24,2022-02-12_10h47.45.687,lexical_decision_task_DD,2021.2.3,Win32,60.25911419,,,,,,,,,,,,0.618,1,,,,,,,,,,,,,,,,,,,,,,,,0.588541667,-0.489583333,0,0,0,,,,,,,SPINE,LB,z,m,./images/SPINELB.png,,,,,,,,,,,,,,,,,,,,z,1,0.618,,,,,,,,0,107,107,149,1
,,,,,,,,,,,,,,,,,6103266d6b839e4955e8e2f3,24,2022-02-12_10h47.45.687,lexical_decision_task_DD,2021.2.3,Win32,60.25911419,,,,,,,,,,,,0.6491,1,,,,,,,,,,,,,,,,,,,,,,,,0.588541667,-0.4921875,0,0,0,,,,,,,SAUCE,C,z,m,./images/SAUCE.png,,,,,,,,,,,,,,,,,,,,z,1,0.6491,,,,,,,,0,108,108,135,1
,,,,,,,,,,,,,,,,,6103266d6b839e4955e8e2f3,24,2022-02-12_10h47.45.687,lexical_decision_task_DD,2021.2.3,Win32,60.25911419,,,,,,,,,,,,0.6691,1,,,,,,,,,,,,,,,,,,,,,,,,0.588541667,-0.4921875,0,0,0,,,,,,,BABOON,HB,m,m,./images/BABOONHB.png,,,,,,,,,,,,,,,,,,,,m,1,0.6691,,,,,,,,0,109,109,58,1
,,,,,,,,,,,,,,,,,6103266d6b839e4955e8e2f3,24,2022-02-12_10h47.45.687,lexical_decision_task_DD,2021.2.3,Win32,60.25911419,,,,,,,,,,,,0.6725,1,,,,,,,,,,,,,,,,,,,,,,,,0.588541667,-0.493489583,0,0,0,,,,,,,RAZOR,HB,z,m,./images/RAZORHB.png,,,,,,,,,,,,,,,,,,,,z,1,0.6725,,,,,,,,0,110,110,118,1
,,,,,,,,,,,,,,,,,6103266d6b839e4955e8e2f3,24,2022-02-12_10h47.45.687,lexical_decision_task_DD,2021.2.3,Win32,60.25911419,,,,,,,,,,,,0.7388,0,,,,,,,,,,,,,,,,,,,,,,,,0.588541667,-0.493489583,0,0,0,,,,,,,PIMPLE,LB,m,m,./images/PIMPLELB.png,,,,,,,,,,,,,,,,,,,,z,0,0.7388,,,,,,,,0,111,111,71,1
,,,,,,,,,,,,,,,,,6103266d6b839e4955e8e2f3,24,2022-02-12_10h47.45.687,lexical_decision_task_DD,2021.2.3,Win32,60.25911419,,,,,,,,,,,,0.8176,1,,,,,,,,,,,,,,,,,,,,,,,,0.588541667,-0.494791667,0,0,0,,,,,,,DRILL,C,z,m,./images/DRILL.png,,,,,,,,,,,,,,,,,,,,z,1,0.8176,,,,,,,,0,112,112,165,1
,,,,,,,,,,,,,,,,,6103266d6b839e4955e8e2f3,24,2022-02-12_10h47.45.687,lexical_decision_task_DD,2021.2.3,Win32,60.25911419,,,,,,,,,,,,0.6855,1,,,,,,,,,,,,,,,,,,,,,,,,0.588541667,-0.494791667,0,0,0,,,,,,,STATUE,C,z,m,./images/STATUE.png,,,,,,,,,,,,,,,,,,,,z,1,0.6855,,,,,,,,0,113,113,150,1
,,,,,,,,,,,,,,,,,6103266d6b839e4955e8e2f3,24,2022-02-12_10h47.45.687,lexical_decision_task_DD,2021.2.3,Win32,60.25911419,,,,,,,,,,,,0.5999,0,,,,,,,,,,,,,,,,,,,,,,,,0.588541667,-0.49609375,0,0,0,,,,,,,WEASEL,LB,m,m,./images/WEASELLB.png,,,,,,,,,,,,,,,,,,,,z,0,0.5999,,,,,,,,0,114,114,80,1
,,,,,,,,,,,,,,,,,6103266d6b839e4955e8e2f3,24,2022-02-12_10h47.45.687,lexical_decision_task_DD,2021.2.3,Win32,60.25911419,,,,,,,,,,,,0.5873,1,,,,,,,,,,,,,,,,,,,,,,,,0.588541667,-0.49609375,0,0,0,,,,,,,CANDLE,HB,m,m,./images/CANDLEHB.png,,,,,,,,,,,,,,,,,,,,m,1,0.5873,,,,,,,,0,115,115,61,1
,,,,,,,,,,,,,,,,,6103266d6b839e4955e8e2f3,24,2022-02-12_10h47.45.687,lexical_decision_task_DD,2021.2.3,Win32,60.25911419,,,,,,,,,,,,0.6709,1,,,,,,,,,,,,,,,,,,,,,,,,0.578125,-0.498697917,0,0,0,,,,,,,BUNNY,HB,z,m,./images/BUNNYHB.png,,,,,,,,,,,,,,,,,,,,z,1,0.6709,,,,,,,,0,116,116,97,1
,,,,,,,,,,,,,,,,,6103266d6b839e4955e8e2f3,24,2022-02-12_10h47.45.687,lexical_decision_task_DD,2021.2.3,Win32,60.25911419,,,,,,,,,,,,0.932,1,,,,,,,,,,,,,,,,,,,,,,,,0.578125,-0.498697917,0,0,0,,,,,,,WRIST,HB,m,m,./images/WRISTHB.png,,,,,,,,,,,,,,,,,,,,m,1,0.932,,,,,,,,0,117,117,25,1
,,,,,,,,,,,,,,,,,6103266d6b839e4955e8e2f3,24,2022-02-12_10h47.45.687,lexical_decision_task_DD,2021.2.3,Win32,60.25911419,,,,,,,,,,,,0.59,1,,,,,,,,,,,,,,,,,,,,,,,,0.578125,-0.498697917,0,0,0,,,,,,,SCREW,C,m,m,./images/SCREW.png,,,,,,,,,,,,,,,,,,,,m,1,0.59,,,,,,,,0,118,118,24,1
,,,,,,,,,,,,,,,,,6103266d6b839e4955e8e2f3,24,2022-02-12_10h47.45.687,lexical_decision_task_DD,2021.2.3,Win32,60.25911419,,,,,,,,,,,,0.7163,1,,,,,,,,,,,,,,,,,,,,,,,,0.578125,-0.498697917,0,0,0,,,,,,,POODLE,C,m,m,./images/POODLE.png,,,,,,,,,,,,,,,,,,,,m,1,0.7163,,,,,,,,0,119,119,81,1
,,,,,,,,,,,,,,,,,6103266d6b839e4955e8e2f3,24,2022-02-12_10h47.45.687,lexical_decision_task_DD,2021.2.3,Win32,60.25911419,,,,,,,,,,,,0.8358,0,,,,,,,,,,,,,,,,,,,,,,,,0.578125,-0.498697917,0,0,0,,,,,,,CEMENT,LB,m,m,./images/CEMENTLB.png,,,,,,,,,,,,,,,,,,,,z,0,0.8358,,,,,,,,0,120,120,74,1
,,,,,,,,,,,,,,,,,6103266d6b839e4955e8e2f3,24,2022-02-12_10h47.45.687,lexical_decision_task_DD,2021.2.3,Win32,60.25911419,,,,,,,,,,,,0.6418,1,,,,,,,,,,,,,,,,,,,,,,,,0.578125,-0.498697917,0,0,0,,,,,,,GREASE,C,m,m,./images/GREASE.png,,,,,,,,,,,,,,,,,,,,m,1,0.6418,,,,,,,,0,121,121,15,1
,,,,,,,,,,,,,,,,,6103266d6b839e4955e8e2f3,24,2022-02-12_10h47.45.687,lexical_decision_task_DD,2021.2.3,Win32,60.25911419,,,,,,,,,,,,0.5839,0,,,,,,,,,,,,,,,,,,,,,,,,0.578125,-0.498697917,0,0,0,,,,,,,SMOKER,LB,m,m,./images/SMOKERLB.png,,,,,,,,,,,,,,,,,,,,z,0,0.5839,,,,,,,,0,122,122,26,1
,,,,,,,,,,,,,,,,,6103266d6b839e4955e8e2f3,24,2022-02-12_10h47.45.687,lexical_decision_task_DD,2021.2.3,Win32,60.25911419,,,,,,,,,,,,0.5843,1,,,,,,,,,,,,,,,,,,,,,,,,0.578125,-0.498697917,0,0,0,,,,,,,JELLY,HB,m,m,./images/JELLYHB.png,,,,,,,,,,,,,,,,,,,,m,1,0.5843,,,,,,,,0,123,123,64,1
,,,,,,,,,,,,,,,,,6103266d6b839e4955e8e2f3,24,2022-02-12_10h47.45.687,lexical_decision_task_DD,2021.2.3,Win32,60.25911419,,,,,,,,,,,,0.7196,1,,,,,,,,,,,,,,,,,,,,,,,,0.578125,-0.498697917,0,0,0,,,,,,,DIVER,C,z,m,./images/DIVER.png,,,,,,,,,,,,,,,,,,,,z,1,0.7196,,,,,,,,0,124,124,93,1
,,,,,,,,,,,,,,,,,6103266d6b839e4955e8e2f3,24,2022-02-12_10h47.45.687,lexical_decision_task_DD,2021.2.3,Win32,60.25911419,,,,,,,,,,,,1.2323,1,,,,,,,,,,,,,,,,,,,,,,,,0.541666667,-0.498697917,0,0,0,space,,,,,,DESERT,HB,z,m,./images/DESERTHB.png,10.2871,,,,,,,,,,,,,,,,,,,z,1,1.2323,,,,,,,,0,125,125,136,1
,,,,,,,,,,,,,,,,,6103266d6b839e4955e8e2f3,24,2022-02-12_10h47.45.687,lexical_decision_task_DD,2021.2.3,Win32,60.25911419,,,,,,,,,,,,0.8695,1,,,,,,,,,,,,,,,,,,,,,,,,0.540364583,-0.498697917,0,0,0,,,,,,,BONNET,LB,m,m,./images/BONNETLB.png,,,,,,,,,,,,,,,,,,,,m,1,0.8695,,,,,,,,0,126,126,11,1
,,,,,,,,,,,,,,,,,6103266d6b839e4955e8e2f3,24,2022-02-12_10h47.45.687,lexical_decision_task_DD,2021.2.3,Win32,60.25911419,,,,,,,,,,,,1.8764,1,,,,,,,,,,,,,,,,,,,,,,,,0.55859375,-0.494791667,0,0,0,,,,,,,PISTOL,LB,z,m,./images/PISTOLLB.png,,,,,,,,,,,,,,,,,,,,z,1,1.8764,,,,,,,,0,127,127,113,1
,,,,,,,,,,,,,,,,,6103266d6b839e4955e8e2f3,24,2022-02-12_10h47.45.687,lexical_decision_task_DD,2021.2.3,Win32,60.25911419,,,,,,,,,,,,1.1022,1,,,,,,,,,,,,,,,,,,,,,,,,0.55859375,-0.494791667,0,0,0,,,,,,,GRANNY,LB,z,m,./images/GRANNYLB.png,,,,,,,,,,,,,,,,,,,,z,1,1.1022,,,,,,,,0,128,128,104,1
,,,,,,,,,,,,,,,,,6103266d6b839e4955e8e2f3,24,2022-02-12_10h47.45.687,lexical_decision_task_DD,2021.2.3,Win32,60.25911419,,,,,,,,,,,,0.7205,1,,,,,,,,,,,,,,,,,,,,,,,,0.557291667,-0.497395833,0,0,0,,,,,,,WHISKY,LB,z,m,./images/WHISKYLB.png,,,,,,,,,,,,,,,,,,,,z,1,0.7205,,,,,,,,0,129,129,167,1
,,,,,,,,,,,,,,,,,6103266d6b839e4955e8e2f3,24,2022-02-12_10h47.45.687,lexical_decision_task_DD,2021.2.3,Win32,60.25911419,,,,,,,,,,,,0.9321,0,,,,,,,,,,,,,,,,,,,,,,,,0.555989583,-0.498697917,0,0,0,,,,,,,STORM,C,m,m,./images/STORM.png,,,,,,,,,,,,,,,,,,,,z,0,0.9321,,,,,,,,0,130,130,30,1
,,,,,,,,,,,,,,,,,6103266d6b839e4955e8e2f3,24,2022-02-12_10h47.45.687,lexical_decision_task_DD,2021.2.3,Win32,60.25911419,,,,,,,,,,,,1.0939,1,,,,,,,,,,,,,,,,,,,,,,,,0.555989583,-0.498697917,0,0,0,,,,,,,PLANK,HB,m,m,./images/PLANKHB.png,,,,,,,,,,,,,,,,,,,,m,1,1.0939,,,,,,,,0,131,131,1,1
,,,,,,,,,,,,,,,,,6103266d6b839e4955e8e2f3,24,2022-02-12_10h47.45.687,lexical_decision_task_DD,2021.2.3,Win32,60.25911419,,,,,,,,,,,,0.6003,0,,,,,,,,,,,,,,,,,,,,,,,,0.555989583,-0.498697917,0,0,0,,,,,,,TOMATO,C,m,m,./images/TOMATO.png,,,,,,,,,,,,,,,,,,,,z,0,0.6003,,,,,,,,0,132,132,0,1
,,,,,,,,,,,,,,,,,6103266d6b839e4955e8e2f3,24,2022-02-12_10h47.45.687,lexical_decision_task_DD,2021.2.3,Win32,60.25911419,,,,,,,,,,,,0.8766,1,,,,,,,,,,,,,,,,,,,,,,,,0.555989583,-0.498697917,0,0,0,,,,,,,MOTOR,HB,m,m,./images/MOTORHB.png,,,,,,,,,,,,,,,,,,,,m,1,0.8766,,,,,,,,0,133,133,13,1
,,,,,,,,,,,,,,,,,6103266d6b839e4955e8e2f3,24,2022-02-12_10h47.45.687,lexical_decision_task_DD,2021.2.3,Win32,60.25911419,,,,,,,,,,,,0.5168,1,,,,,,,,,,,,,,,,,,,,,,,,0.5546875,-0.498697917,0,0,0,,,,,,,PAINT,HB,m,m,./images/PAINTHB.png,,,,,,,,,,,,,,,,,,,,m,1,0.5168,,,,,,,,0,134,134,7,1
,,,,,,,,,,,,,,,,,6103266d6b839e4955e8e2f3,24,2022-02-12_10h47.45.687,lexical_decision_task_DD,2021.2.3,Win32,60.25911419,,,,,,,,,,,,0.5762,1,,,,,,,,,,,,,,,,,,,,,,,,0.5546875,-0.498697917,0,0,0,,,,,,,CRUMB,LB,m,m,./images/CRUMBLB.png,,,,,,,,,,,,,,,,,,,,m,1,0.5762,,,,,,,,0,135,135,29,1
