key_resp.keys,key_resp.rt,instr_done_touch.x,instr_done_touch.y,instr_done_touch.leftButton,instr_done_touch.midButton,instr_done_touch.rightButton,instruction_pages.thisRepN,instruction_pages.thisTrialN,instruction_pages.thisN,instruction_pages.thisIndex,instruction_pages.ran,pageN,phase,instruct_text,has_image,instruct_image,participant,age,date,expName,psychopyVersion,OS,frameRate,response.keys,response.corr,response.rt,touch_resp.x,touch_resp.y,touch_resp.leftButton,touch_resp.midButton,touch_resp.rightButton,touch_resp.time,touch_resp.clicked_name,rt,corr,practrials.thisRepN,practrials.thisTrialN,practrials.thisN,practrials.thisIndex,practrials.ran,TrialID,Target,corrAns,end_of_practice_trials_pages.thisRepN,end_of_practice_trials_pages.thisTrialN,end_of_practice_trials_pages.thisN,end_of_practice_trials_pages.thisIndex,end_of_practice_trials_pages.ran,key_resp_2.keys,key_resp_2.corr,key_resp_2.rt,targ_click.x,targ_click.y,targ_click.leftButton,targ_click.midButton,targ_click.rightButton,targ_click.time,targ_click.clicked_name,break_done_touch.x,break_done_touch.y,break_done_touch.leftButton,break_done_touch.midButton,break_done_touch.rightButton,break_done_keyboard.keys,maintrials.thisRepN,maintrials.thisTrialN,maintrials.thisN,maintrials.thisIndex,maintrials.ran,string,blur,study,lex,stim_path,break_done_keyboard.rt,mouse_2.x,mouse_2.y,mouse_2.leftButton,mouse_2.midButton,mouse_2.rightButton,mouse_2.clicked_name,slider.response,slider.rt,trials.thisRepN,trials.thisTrialN,trials.thisN,trials.thisIndex,trials.ran,instr_done_touch.clicked_name,test_instructions.thisRepN,test_instructions.thisTrialN,test_instructions.thisN,test_instructions.thisIndex,test_instructions.ran,key_resp_3.keys,key_resp_3.corr,key_resp_3.rt,test_click.x,test_click.y,test_click.leftButton,test_click.midButton,test_click.rightButton,test_click.time,test_click.clicked_name,test_phase.thisRepN,test_phase.thisTrialN,test_phase.thisN,test_phase.thisIndex,test_phase.ran
space,40.3463,0.632291678,-0.321666673,0,0,0,0,0,0,0,1,1,instructions,"INSTRUCTIONS
At the start of each trial, look at the plus sign  (+) in the center of the screen.  This tells you that a trial is about to begin and where to look. Second, the plus sign will disappear and a string of letters will appear. Your task is to determine if the string of letters is a word or not. If the item is a word press the M key (on keyboard)  or touch the word button (phone/tablet).  If the item is not a word,  press the  Z key (on keyboard)  or touch the nonword button (on phone/tablet). 
Press the space bar or touch  continue.",0,,6112b65a93c2eed74b0416f5,22,2022-02-12_12h48.52.850,lexical_decision_task_DD,2021.2.3,Win32,59.80503558,,,,,,,,,,,,,,,,,,,,,,,,,,,,,,,,,,,,,,,,,,,,,,,,,,,,,,,,,,,,,,,,,,,,,,,,,,,,,,,,,,,,,,
space,6.1045,0.632291678,-0.321666673,0,0,0,0,1,1,1,1,2,instructions,"If your device has a keyboard, press the 'Z' key for nonwords and the 'M' key for words.





Press the space bar or touch the button below to continue.",0,keyboard-example.gif,6112b65a93c2eed74b0416f5,22,2022-02-12_12h48.52.850,lexical_decision_task_DD,2021.2.3,Win32,59.80503558,,,,,,,,,,,,,,,,,,,,,,,,,,,,,,,,,,,,,,,,,,,,,,,,,,,,,,,,,,,,,,,,,,,,,,,,,,,,,,,,,,,,,,
space,2.1503,0.632291678,-0.321666673,0,0,0,0,2,2,2,1,3,instructions,"If you are using a touchscreen only device, use the buttons on the screen. Do not use the mouse.





Press the space bar or touch the button below to continue.",0,touchscreen-example.gif,6112b65a93c2eed74b0416f5,22,2022-02-12_12h48.52.850,lexical_decision_task_DD,2021.2.3,Win32,59.80503558,,,,,,,,,,,,,,,,,,,,,,,,,,,,,,,,,,,,,,,,,,,,,,,,,,,,,,,,,,,,,,,,,,,,,,,,,,,,,,,,,,,,,,
space,11.1134,0.632291678,-0.321666673,0,0,0,0,3,3,3,1,4,instructions,"It is very important that you respond as quickly and accurately as possible, as each letter string will only be on the screen for two seconds. If you do not respond within this time, the message 'Too slow!' will be displayed and the experiment will progress to the next letter string. The first 20 trials will be practice trials and you will receive feedback on your answers. 

Press the space bar or touch the button below to start the practice trials.",0,,6112b65a93c2eed74b0416f5,22,2022-02-12_12h48.52.850,lexical_decision_task_DD,2021.2.3,Win32,59.80503558,,,,,,,,,,,,,,,,,,,,,,,,,,,,,,,,,,,,,,,,,,,,,,,,,,,,,,,,,,,,,,,,,,,,,,,,,,,,,,,,,,,,,,
,,,,,,,,,,,,,,,,,6112b65a93c2eed74b0416f5,22,2022-02-12_12h48.52.850,lexical_decision_task_DD,2021.2.3,Win32,59.80503558,z,1,0.7995,,,,,,,,0.7995,1,0,0,0,13,1,1001,ROUPET,z,,,,,,,,,,,,,,,,,,,,,,,,,,,,,,,,,,,,,,,,,,,,,,,,,,,,,,,,,,,,,,,,,,
,,,,,,,,,,,,,,,,,6112b65a93c2eed74b0416f5,22,2022-02-12_12h48.52.850,lexical_decision_task_DD,2021.2.3,Win32,59.80503558,m,1,0.5168,,,,,,,,0.5168,1,0,1,1,5,1,1001,OBTAIN,m,,,,,,,,,,,,,,,,,,,,,,,,,,,,,,,,,,,,,,,,,,,,,,,,,,,,,,,,,,,,,,,,,,
,,,,,,,,,,,,,,,,,6112b65a93c2eed74b0416f5,22,2022-02-12_12h48.52.850,lexical_decision_task_DD,2021.2.3,Win32,59.80503558,z,1,0.7841,,,,,,,,0.7841,1,0,2,2,12,1,1001,SPRINY,z,,,,,,,,,,,,,,,,,,,,,,,,,,,,,,,,,,,,,,,,,,,,,,,,,,,,,,,,,,,,,,,,,,
,,,,,,,,,,,,,,,,,6112b65a93c2eed74b0416f5,22,2022-02-12_12h48.52.850,lexical_decision_task_DD,2021.2.3,Win32,59.80503558,m,1,0.5483,,,,,,,,0.5483,1,0,3,3,1,1,1001,ADJUST,m,,,,,,,,,,,,,,,,,,,,,,,,,,,,,,,,,,,,,,,,,,,,,,,,,,,,,,,,,,,,,,,,,,
,,,,,,,,,,,,,,,,,6112b65a93c2eed74b0416f5,22,2022-02-12_12h48.52.850,lexical_decision_task_DD,2021.2.3,Win32,59.80503558,z,1,0.6544,,,,,,,,0.6544,1,0,4,4,11,1,1001,RASHET,z,,,,,,,,,,,,,,,,,,,,,,,,,,,,,,,,,,,,,,,,,,,,,,,,,,,,,,,,,,,,,,,,,,
,,,,,,,,,,,,,,,,,6112b65a93c2eed74b0416f5,22,2022-02-12_12h48.52.850,lexical_decision_task_DD,2021.2.3,Win32,59.80503558,z,1,0.6208,,,,,,,,0.6208,1,0,5,5,10,1,1001,INLADE,z,,,,,,,,,,,,,,,,,,,,,,,,,,,,,,,,,,,,,,,,,,,,,,,,,,,,,,,,,,,,,,,,,,
,,,,,,,,,,,,,,,,,6112b65a93c2eed74b0416f5,22,2022-02-12_12h48.52.850,lexical_decision_task_DD,2021.2.3,Win32,59.80503558,z,1,0.5678,,,,,,,,0.5678,1,0,6,6,15,1,1001,WHAISE,z,,,,,,,,,,,,,,,,,,,,,,,,,,,,,,,,,,,,,,,,,,,,,,,,,,,,,,,,,,,,,,,,,,
,,,,,,,,,,,,,,,,,6112b65a93c2eed74b0416f5,22,2022-02-12_12h48.52.850,lexical_decision_task_DD,2021.2.3,Win32,59.80503558,m,1,0.5001,,,,,,,,0.5001,1,0,7,7,3,1,1001,MATRIX,m,,,,,,,,,,,,,,,,,,,,,,,,,,,,,,,,,,,,,,,,,,,,,,,,,,,,,,,,,,,,,,,,,,
,,,,,,,,,,,,,,,,,6112b65a93c2eed74b0416f5,22,2022-02-12_12h48.52.850,lexical_decision_task_DD,2021.2.3,Win32,59.80503558,m,1,0.452,,,,,,,,0.452,1,0,8,8,2,1,1001,ALMOND,m,,,,,,,,,,,,,,,,,,,,,,,,,,,,,,,,,,,,,,,,,,,,,,,,,,,,,,,,,,,,,,,,,,
,,,,,,,,,,,,,,,,,6112b65a93c2eed74b0416f5,22,2022-02-12_12h48.52.850,lexical_decision_task_DD,2021.2.3,Win32,59.80503558,z,0,0.4894,,,,,,,,0.4894,0,0,9,9,0,1,1001,UTOPIA,m,,,,,,,,,,,,,,,,,,,,,,,,,,,,,,,,,,,,,,,,,,,,,,,,,,,,,,,,,,,,,,,,,,
,,,,,,,,,,,,,,,,,6112b65a93c2eed74b0416f5,22,2022-02-12_12h48.52.850,lexical_decision_task_DD,2021.2.3,Win32,59.80503558,z,1,0.6689,,,,,,,,0.6689,1,0,10,10,9,1,1001,FARINY,z,,,,,,,,,,,,,,,,,,,,,,,,,,,,,,,,,,,,,,,,,,,,,,,,,,,,,,,,,,,,,,,,,,
,,,,,,,,,,,,,,,,,6112b65a93c2eed74b0416f5,22,2022-02-12_12h48.52.850,lexical_decision_task_DD,2021.2.3,Win32,59.80503558,m,1,0.4759,,,,,,,,0.4759,1,0,11,11,7,1,1001,VOLUME,m,,,,,,,,,,,,,,,,,,,,,,,,,,,,,,,,,,,,,,,,,,,,,,,,,,,,,,,,,,,,,,,,,,
,,,,,,,,,,,,,,,,,6112b65a93c2eed74b0416f5,22,2022-02-12_12h48.52.850,lexical_decision_task_DD,2021.2.3,Win32,59.80503558,m,1,0.4437,,,,,,,,0.4437,1,0,12,12,4,1,1001,SQUEAK,m,,,,,,,,,,,,,,,,,,,,,,,,,,,,,,,,,,,,,,,,,,,,,,,,,,,,,,,,,,,,,,,,,,
,,,,,,,,,,,,,,,,,6112b65a93c2eed74b0416f5,22,2022-02-12_12h48.52.850,lexical_decision_task_DD,2021.2.3,Win32,59.80503558,z,1,0.6016,,,,,,,,0.6016,1,0,13,13,8,1,1001,ASLERT,z,,,,,,,,,,,,,,,,,,,,,,,,,,,,,,,,,,,,,,,,,,,,,,,,,,,,,,,,,,,,,,,,,,
,,,,,,,,,,,,,,,,,6112b65a93c2eed74b0416f5,22,2022-02-12_12h48.52.850,lexical_decision_task_DD,2021.2.3,Win32,59.80503558,m,1,0.4663,,,,,,,,0.4663,1,0,14,14,6,1,1001,ZOMBIE,m,,,,,,,,,,,,,,,,,,,,,,,,,,,,,,,,,,,,,,,,,,,,,,,,,,,,,,,,,,,,,,,,,,
,,,,,,,,,,,,,,,,,6112b65a93c2eed74b0416f5,22,2022-02-12_12h48.52.850,lexical_decision_task_DD,2021.2.3,Win32,59.80503558,z,1,0.5363,,,,,,,,0.5363,1,0,15,15,14,1,1001,THRALE,z,,,,,,,,,,,,,,,,,,,,,,,,,,,,,,,,,,,,,,,,,,,,,,,,,,,,,,,,,,,,,,,,,,
space,6.4707,0.710625012,-0.310555562,0,0,0,,,,,,1,end_of_practice,"You have completed the practice trials. During the experimental trials, you will not receive feedback. 
Before you begin, please ensure that you are in a comfortable and quiet location and will not be disturbed for about 15 minutes, as we cannot use your data if you do not complete all the trials. 
 When you are ready to start the experimental trials, please press space or touch the button below.",,,6112b65a93c2eed74b0416f5,22,2022-02-12_12h48.52.850,lexical_decision_task_DD,2021.2.3,Win32,59.80503558,,,,,,,,,,,,,,,,,,,,,0,0,0,0,1,,,,,,,,,,,,,,,,,,,,,,,,,,,,,,,,,,,,,,,,,,,,,,,,,,,,,,,,,,,,,
,,,,,,,,,,,,,,,,,6112b65a93c2eed74b0416f5,22,2022-02-12_12h48.52.850,lexical_decision_task_DD,2021.2.3,Win32,59.80503558,,,,,,,,,,,0.5292,1,,,,,,,,,,,,,,m,1,0.5292,,,,,,,,0.710625012,-0.310555562,0,0,0,,0,0,0,83,1,JUNGLE,LB,old,m,./images/JUNGLELB.png,,,,,,,,,,,,,,,,,,,,,,,,,,,,,,,,,,,
,,,,,,,,,,,,,,,,,6112b65a93c2eed74b0416f5,22,2022-02-12_12h48.52.850,lexical_decision_task_DD,2021.2.3,Win32,59.80503558,,,,,,,,,,,0.5997,1,,,,,,,,,,,,,,m,1,0.5997,,,,,,,,0.710625012,-0.310555562,0,0,0,,0,1,1,76,1,INFANT,HB,old,m,./images/INFANTHB.png,,,,,,,,,,,,,,,,,,,,,,,,,,,,,,,,,,,
,,,,,,,,,,,,,,,,,6112b65a93c2eed74b0416f5,22,2022-02-12_12h48.52.850,lexical_decision_task_DD,2021.2.3,Win32,59.80503558,,,,,,,,,,,0.6167,1,,,,,,,,,,,,,,z,1,0.6167,,,,,,,,0.710625012,-0.310555562,0,0,0,,0,2,2,134,1,TROSS,LB,old,z,./images/TROSSLB.png,,,,,,,,,,,,,,,,,,,,,,,,,,,,,,,,,,,
,,,,,,,,,,,,,,,,,6112b65a93c2eed74b0416f5,22,2022-02-12_12h48.52.850,lexical_decision_task_DD,2021.2.3,Win32,59.80503558,,,,,,,,,,,0.5399,1,,,,,,,,,,,,,,m,1,0.5399,,,,,,,,0.710625012,-0.310555562,0,0,0,,0,3,3,38,1,LADDER,LB,old,m,./images/LADDERLB.png,,,,,,,,,,,,,,,,,,,,,,,,,,,,,,,,,,,
,,,,,,,,,,,,,,,,,6112b65a93c2eed74b0416f5,22,2022-02-12_12h48.52.850,lexical_decision_task_DD,2021.2.3,Win32,59.80503558,,,,,,,,,,,0.5143,1,,,,,,,,,,,,,,m,1,0.5143,,,,,,,,0.710625012,-0.310555562,0,0,0,,0,4,4,80,1,WEASEL,LB,old,m,./images/WEASELLB.png,,,,,,,,,,,,,,,,,,,,,,,,,,,,,,,,,,,
,,,,,,,,,,,,,,,,,6112b65a93c2eed74b0416f5,22,2022-02-12_12h48.52.850,lexical_decision_task_DD,2021.2.3,Win32,59.80503558,,,,,,,,,,,0.8492,1,,,,,,,,,,,,,,z,1,0.8492,,,,,,,,0.710625012,-0.310555562,0,0,0,,0,5,5,160,1,VEETS,HB,old,z,./images/VEETSHB.png,,,,,,,,,,,,,,,,,,,,,,,,,,,,,,,,,,,
,,,,,,,,,,,,,,,,,6112b65a93c2eed74b0416f5,22,2022-02-12_12h48.52.850,lexical_decision_task_DD,2021.2.3,Win32,59.80503558,,,,,,,,,,,0.9539,1,,,,,,,,,,,,,,z,1,0.9539,,,,,,,,0.710625012,-0.310555562,0,0,0,,0,6,6,91,1,SHENS,HB,old,z,./images/SHENSHB.png,,,,,,,,,,,,,,,,,,,,,,,,,,,,,,,,,,,
,,,,,,,,,,,,,,,,,6112b65a93c2eed74b0416f5,22,2022-02-12_12h48.52.850,lexical_decision_task_DD,2021.2.3,Win32,59.80503558,,,,,,,,,,,0.6181,1,,,,,,,,,,,,,,z,1,0.6181,,,,,,,,0.710625012,-0.310555562,0,0,0,,0,7,7,161,1,BLAPS,LB,old,z,./images/BLAPSLB.png,,,,,,,,,,,,,,,,,,,,,,,,,,,,,,,,,,,
,,,,,,,,,,,,,,,,,6112b65a93c2eed74b0416f5,22,2022-02-12_12h48.52.850,lexical_decision_task_DD,2021.2.3,Win32,59.80503558,,,,,,,,,,,0.6455,1,,,,,,,,,,,,,,m,1,0.6455,,,,,,,,0.710625012,-0.310555562,0,0,0,,0,8,8,34,1,CANYON,HB,old,m,./images/CANYONHB.png,,,,,,,,,,,,,,,,,,,,,,,,,,,,,,,,,,,
,,,,,,,,,,,,,,,,,6112b65a93c2eed74b0416f5,22,2022-02-12_12h48.52.850,lexical_decision_task_DD,2021.2.3,Win32,59.80503558,,,,,,,,,,,0.5581,1,,,,,,,,,,,,,,m,1,0.5581,,,,,,,,0.710625012,-0.310555562,0,0,0,,0,9,9,78,1,LITTER,C,old,m,./images/LITTER.png,,,,,,,,,,,,,,,,,,,,,,,,,,,,,,,,,,,
,,,,,,,,,,,,,,,,,6112b65a93c2eed74b0416f5,22,2022-02-12_12h48.52.850,lexical_decision_task_DD,2021.2.3,Win32,59.80503558,,,,,,,,,,,0.6875,1,,,,,,,,,,,,,,z,1,0.6875,,,,,,,,0.710625012,-0.310555562,0,0,0,,0,10,10,92,1,PAIMS,LB,old,z,./images/PAIMSLB.png,,,,,,,,,,,,,,,,,,,,,,,,,,,,,,,,,,,
,,,,,,,,,,,,,,,,,6112b65a93c2eed74b0416f5,22,2022-02-12_12h48.52.850,lexical_decision_task_DD,2021.2.3,Win32,59.80503558,,,,,,,,,,,0.5828,1,,,,,,,,,,,,,,z,1,0.5828,,,,,,,,0.710625012,-0.310555562,0,0,0,,0,11,11,120,1,RINED,C,old,z,./images/RINED.png,,,,,,,,,,,,,,,,,,,,,,,,,,,,,,,,,,,
,,,,,,,,,,,,,,,,,6112b65a93c2eed74b0416f5,22,2022-02-12_12h48.52.850,lexical_decision_task_DD,2021.2.3,Win32,59.80503558,,,,,,,,,,,0.7116,1,,,,,,,,,,,,,,z,1,0.7116,,,,,,,,0.710625012,-0.310555562,0,0,0,,0,12,12,95,1,HANTY,LB,old,z,./images/HANTYLB.png,,,,,,,,,,,,,,,,,,,,,,,,,,,,,,,,,,,
,,,,,,,,,,,,,,,,,6112b65a93c2eed74b0416f5,22,2022-02-12_12h48.52.850,lexical_decision_task_DD,2021.2.3,Win32,59.80503558,,,,,,,,,,,0.7304,1,,,,,,,,,,,,,,z,1,0.7304,,,,,,,,0.710625012,-0.310555562,0,0,0,,0,13,13,122,1,BLOOT,LB,old,z,./images/BLOOTLB.png,,,,,,,,,,,,,,,,,,,,,,,,,,,,,,,,,,,
,,,,,,,,,,,,,,,,,6112b65a93c2eed74b0416f5,22,2022-02-12_12h48.52.850,lexical_decision_task_DD,2021.2.3,Win32,59.80503558,,,,,,,,,,,0.5302,1,,,,,,,,,,,,,,z,1,0.5302,,,,,,,,0.710625012,-0.310555562,0,0,0,,0,14,14,143,1,MONGS,LB,old,z,./images/MONGSLB.png,,,,,,,,,,,,,,,,,,,,,,,,,,,,,,,,,,,
,,,,,,,,,,,,,,,,,6112b65a93c2eed74b0416f5,22,2022-02-12_12h48.52.850,lexical_decision_task_DD,2021.2.3,Win32,59.80503558,,,,,,,,,,,0.985,1,,,,,,,,,,,,,,z,1,0.985,,,,,,,,0.710625012,-0.310555562,0,0,0,,0,15,15,127,1,NINDY,HB,old,z,./images/NINDYHB.png,,,,,,,,,,,,,,,,,,,,,,,,,,,,,,,,,,,
,,,,,,,,,,,,,,,,,6112b65a93c2eed74b0416f5,22,2022-02-12_12h48.52.850,lexical_decision_task_DD,2021.2.3,Win32,59.80503558,,,,,,,,,,,1.0351,1,,,,,,,,,,,,,,z,1,1.0351,,,,,,,,0.710625012,-0.310555562,0,0,0,,0,16,16,166,1,SHORY,HB,old,z,./images/SHORYHB.png,,,,,,,,,,,,,,,,,,,,,,,,,,,,,,,,,,,
,,,,,,,,,,,,,,,,,6112b65a93c2eed74b0416f5,22,2022-02-12_12h48.52.850,lexical_decision_task_DD,2021.2.3,Win32,59.80503558,,,,,,,,,,,0.8186,1,,,,,,,,,,,,,,z,1,0.8186,,,,,,,,0.710625012,-0.310555562,0,0,0,,0,17,17,112,1,MYING,HB,old,z,./images/MYINGHB.png,,,,,,,,,,,,,,,,,,,,,,,,,,,,,,,,,,,
,,,,,,,,,,,,,,,,,6112b65a93c2eed74b0416f5,22,2022-02-12_12h48.52.850,lexical_decision_task_DD,2021.2.3,Win32,59.80503558,,,,,,,,,,,0.6302,1,,,,,,,,,,,,,,z,1,0.6302,,,,,,,,0.710625012,-0.310555562,0,0,0,,0,18,18,131,1,NACES,LB,old,z,./images/NACESLB.png,,,,,,,,,,,,,,,,,,,,,,,,,,,,,,,,,,,
,,,,,,,,,,,,,,,,,6112b65a93c2eed74b0416f5,22,2022-02-12_12h48.52.850,lexical_decision_task_DD,2021.2.3,Win32,59.80503558,,,,,,,,,,,1.0782,1,,,,,,,,,,,,,,z,1,1.0782,,,,,,,,0.710625012,-0.310555562,0,0,0,,0,19,19,85,1,CHULK,HB,old,z,./images/CHULKHB.png,,,,,,,,,,,,,,,,,,,,,,,,,,,,,,,,,,,
,,,,,,,,,,,,,,,,,6112b65a93c2eed74b0416f5,22,2022-02-12_12h48.52.850,lexical_decision_task_DD,2021.2.3,Win32,59.80503558,,,,,,,,,,,0.6145,1,,,,,,,,,,,,,,m,1,0.6145,,,,,,,,0.710625012,-0.310555562,0,0,0,,0,20,20,46,1,PEARL,HB,old,m,./images/PEARLHB.png,,,,,,,,,,,,,,,,,,,,,,,,,,,,,,,,,,,
,,,,,,,,,,,,,,,,,6112b65a93c2eed74b0416f5,22,2022-02-12_12h48.52.850,lexical_decision_task_DD,2021.2.3,Win32,59.80503558,,,,,,,,,,,0.5576,1,,,,,,,,,,,,,,z,1,0.5576,,,,,,,,0.710625012,-0.310555562,0,0,0,,0,21,21,162,1,LEICH,C,old,z,./images/LEICH.png,,,,,,,,,,,,,,,,,,,,,,,,,,,,,,,,,,,
,,,,,,,,,,,,,,,,,6112b65a93c2eed74b0416f5,22,2022-02-12_12h48.52.850,lexical_decision_task_DD,2021.2.3,Win32,59.80503558,,,,,,,,,,,0.6026,1,,,,,,,,,,,,,,m,1,0.6026,,,,,,,,0.710625012,-0.310555562,0,0,0,,0,22,22,28,1,FALCON,HB,old,m,./images/FALCONHB.png,,,,,,,,,,,,,,,,,,,,,,,,,,,,,,,,,,,
,,,,,,,,,,,,,,,,,6112b65a93c2eed74b0416f5,22,2022-02-12_12h48.52.850,lexical_decision_task_DD,2021.2.3,Win32,59.80503558,,,,,,,,,,,0.5933,1,,,,,,,,,,,,,,m,1,0.5933,,,,,,,,0.710625012,-0.310555562,0,0,0,,0,23,23,3,1,FINGER,C,old,m,./images/FINGER.png,,,,,,,,,,,,,,,,,,,,,,,,,,,,,,,,,,,
,,,,,,,,,,,,,,,,,6112b65a93c2eed74b0416f5,22,2022-02-12_12h48.52.850,lexical_decision_task_DD,2021.2.3,Win32,59.80503558,,,,,,,,,,,0.6115,1,,,,,,,,,,,,,,m,1,0.6115,,,,,,,,0.710625012,-0.310555562,0,0,0,,0,24,24,7,1,PAINT,HB,old,m,./images/PAINTHB.png,,,,,,,,,,,,,,,,,,,,,,,,,,,,,,,,,,,
,,,,,,,,,,,,,,,,,6112b65a93c2eed74b0416f5,22,2022-02-12_12h48.52.850,lexical_decision_task_DD,2021.2.3,Win32,59.80503558,,,,,,,,,,,0.719,1,,,,,,,,,,,,,,m,1,0.719,,,,,,,,0.710625012,-0.310555562,0,0,0,,0,25,25,2,1,BEARD,LB,old,m,./images/BEARDLB.png,,,,,,,,,,,,,,,,,,,,,,,,,,,,,,,,,,,
,,,,,,,,,,,,,,,,,6112b65a93c2eed74b0416f5,22,2022-02-12_12h48.52.850,lexical_decision_task_DD,2021.2.3,Win32,59.80503558,,,,,,,,,,,0.5927,1,,,,,,,,,,,,,,m,1,0.5927,,,,,,,,0.710625012,-0.310555562,0,0,0,,0,26,26,72,1,NOOSE,C,old,m,./images/NOOSE.png,,,,,,,,,,,,,,,,,,,,,,,,,,,,,,,,,,,
,,,,,,,,,,,,,,,,,6112b65a93c2eed74b0416f5,22,2022-02-12_12h48.52.850,lexical_decision_task_DD,2021.2.3,Win32,59.80503558,,,,,,,,,,,0.4871,1,,,,,,,,,,,,,,m,1,0.4871,,,,,,,,0.710625012,-0.310555562,0,0,0,,0,27,27,29,1,CRUMB,LB,old,m,./images/CRUMBLB.png,,,,,,,,,,,,,,,,,,,,,,,,,,,,,,,,,,,
,,,,,,,,,,,,,,,,,6112b65a93c2eed74b0416f5,22,2022-02-12_12h48.52.850,lexical_decision_task_DD,2021.2.3,Win32,59.80503558,,,,,,,,,,,0.8702,0,,,,,,,,,,,,,,m,0,0.8702,,,,,,,,0.710625012,-0.310555562,0,0,0,,0,28,28,100,1,DRIBS,HB,old,z,./images/DRIBSHB.png,,,,,,,,,,,,,,,,,,,,,,,,,,,,,,,,,,,
,,,,,,,,,,,,,,,,,6112b65a93c2eed74b0416f5,22,2022-02-12_12h48.52.850,lexical_decision_task_DD,2021.2.3,Win32,59.80503558,,,,,,,,,,,0.5829,1,,,,,,,,,,,,,,m,1,0.5829,,,,,,,,0.710625012,-0.310555562,0,0,0,,0,29,29,55,1,MUFFIN,HB,old,m,./images/MUFFINHB.png,,,,,,,,,,,,,,,,,,,,,,,,,,,,,,,,,,,
,,,,,,,,,,,,,,,,,6112b65a93c2eed74b0416f5,22,2022-02-12_12h48.52.850,lexical_decision_task_DD,2021.2.3,Win32,59.80503558,,,,,,,,,,,0.8824,1,,,,,,,,,,,,,,z,1,0.8824,,,,,,,,0.710625012,-0.310555562,0,0,0,,0,30,30,136,1,WERVE,HB,old,z,./images/WERVEHB.png,,,,,,,,,,,,,,,,,,,,,,,,,,,,,,,,,,,
,,,,,,,,,,,,,,,,,6112b65a93c2eed74b0416f5,22,2022-02-12_12h48.52.850,lexical_decision_task_DD,2021.2.3,Win32,59.80503558,,,,,,,,,,,0.6396,1,,,,,,,,,,,,,,m,1,0.6396,,,,,,,,0.710625012,-0.310555562,0,0,0,,0,31,31,69,1,COOKER,C,old,m,./images/COOKER.png,,,,,,,,,,,,,,,,,,,,,,,,,,,,,,,,,,,
,,,,,,,,,,,,,,,,,6112b65a93c2eed74b0416f5,22,2022-02-12_12h48.52.850,lexical_decision_task_DD,2021.2.3,Win32,59.80503558,,,,,,,,,,,0.6872,1,,,,,,,,,,,,,,z,1,0.6872,,,,,,,,0.710625012,-0.310555562,0,0,0,,0,32,32,133,1,POWDY,HB,old,z,./images/POWDYHB.png,,,,,,,,,,,,,,,,,,,,,,,,,,,,,,,,,,,
,,,,,,,,,,,,,,,,,6112b65a93c2eed74b0416f5,22,2022-02-12_12h48.52.850,lexical_decision_task_DD,2021.2.3,Win32,59.80503558,,,,,,,,,,,0.7092,1,,,,,,,,,,,,,,z,1,0.7092,,,,,,,,0.710625012,-0.310555562,0,0,0,,0,33,33,154,1,THINT,HB,old,z,./images/THINTHB.png,,,,,,,,,,,,,,,,,,,,,,,,,,,,,,,,,,,
,,,,,,,,,,,,,,,,,6112b65a93c2eed74b0416f5,22,2022-02-12_12h48.52.850,lexical_decision_task_DD,2021.2.3,Win32,59.80503558,,,,,,,,,,,0.8234,1,,,,,,,,,,,,,,z,1,0.8234,,,,,,,,0.710625012,-0.310555562,0,0,0,,0,34,34,130,1,CRILL,HB,old,z,./images/CRILLHB.png,,,,,,,,,,,,,,,,,,,,,,,,,,,,,,,,,,,
,,,,,,,,,,,,,,,,,6112b65a93c2eed74b0416f5,22,2022-02-12_12h48.52.850,lexical_decision_task_DD,2021.2.3,Win32,59.80503558,,,,,,,,,,,0.7027,1,,,,,,,,,,,,,,z,1,0.7027,,,,,,,,0.710625012,-0.310555562,0,0,0,,0,35,35,108,1,GRUET,C,old,z,./images/GRUET.png,,,,,,,,,,,,,,,,,,,,,,,,,,,,,,,,,,,
,,,,,,,,,,,,,,,,,6112b65a93c2eed74b0416f5,22,2022-02-12_12h48.52.850,lexical_decision_task_DD,2021.2.3,Win32,59.80503558,,,,,,,,,,,0.5659,1,,,,,,,,,,,,,,m,1,0.5659,,,,,,,,0.710625012,-0.310555562,0,0,0,,0,36,36,74,1,CEMENT,LB,old,m,./images/CEMENTLB.png,,,,,,,,,,,,,,,,,,,,,,,,,,,,,,,,,,,
,,,,,,,,,,,,,,,,,6112b65a93c2eed74b0416f5,22,2022-02-12_12h48.52.850,lexical_decision_task_DD,2021.2.3,Win32,59.80503558,,,,,,,,,,,0.6984,1,,,,,,,,,,,,,,z,1,0.6984,,,,,,,,0.710625012,-0.310555562,0,0,0,,0,37,37,104,1,GITTY,LB,old,z,./images/GITTYLB.png,,,,,,,,,,,,,,,,,,,,,,,,,,,,,,,,,,,
,,,,,,,,,,,,,,,,,6112b65a93c2eed74b0416f5,22,2022-02-12_12h48.52.850,lexical_decision_task_DD,2021.2.3,Win32,59.80503558,,,,,,,,,,,0.6878,1,,,,,,,,,,,,,,z,1,0.6878,,,,,,,,0.710625012,-0.310555562,0,0,0,,0,38,38,142,1,PLASK,HB,old,z,./images/PLASKHB.png,,,,,,,,,,,,,,,,,,,,,,,,,,,,,,,,,,,
,,,,,,,,,,,,,,,,,6112b65a93c2eed74b0416f5,22,2022-02-12_12h48.52.850,lexical_decision_task_DD,2021.2.3,Win32,59.80503558,,,,,,,,,,,0.5677,1,,,,,,,,,,,,,,m,1,0.5677,,,,,,,,0.710625012,-0.310555562,0,0,0,,0,39,39,14,1,PICKLE,LB,old,m,./images/PICKLELB.png,,,,,,,,,,,,,,,,,,,,,,,,,,,,,,,,,,,
,,,,,,,,,,,,,,,,,6112b65a93c2eed74b0416f5,22,2022-02-12_12h48.52.850,lexical_decision_task_DD,2021.2.3,Win32,59.80503558,,,,,,,,,,,0.5064,1,,,,,,,,,,,,,,m,1,0.5064,,,,,,,,0.710625012,-0.310555562,0,0,0,,0,40,40,20,1,CRADLE,LB,old,m,./images/CRADLELB.png,,,,,,,,,,,,,,,,,,,,,,,,,,,,,,,,,,,
,,,,,,,,,,,,,,,,,6112b65a93c2eed74b0416f5,22,2022-02-12_12h48.52.850,lexical_decision_task_DD,2021.2.3,Win32,59.80503558,,,,,,,,,,,1.2855,1,,,,,,,,,,,,,,m,1,1.2855,,,,,,,,0.710625012,-0.310555562,0,0,0,space,0,41,41,16,1,PENCE,HB,old,m,./images/PENCEHB.png,2.6627,,,,,,,,,,,,,,,,,,,,,,,,,,,,,,,,,,
,,,,,,,,,,,,,,,,,6112b65a93c2eed74b0416f5,22,2022-02-12_12h48.52.850,lexical_decision_task_DD,2021.2.3,Win32,59.80503558,,,,,,,,,,,0.5824,1,,,,,,,,,,,,,,z,1,0.5824,,,,,,,,0.710625012,-0.310555562,0,0,0,,0,42,42,125,1,MOOKY,LB,old,z,./images/MOOKYLB.png,,,,,,,,,,,,,,,,,,,,,,,,,,,,,,,,,,,
,,,,,,,,,,,,,,,,,6112b65a93c2eed74b0416f5,22,2022-02-12_12h48.52.850,lexical_decision_task_DD,2021.2.3,Win32,59.80503558,,,,,,,,,,,0.581,1,,,,,,,,,,,,,,m,1,0.581,,,,,,,,0.710625012,-0.310555562,0,0,0,,0,43,43,49,1,DRUMS,HB,old,m,./images/DRUMSHB.png,,,,,,,,,,,,,,,,,,,,,,,,,,,,,,,,,,,
,,,,,,,,,,,,,,,,,6112b65a93c2eed74b0416f5,22,2022-02-12_12h48.52.850,lexical_decision_task_DD,2021.2.3,Win32,59.80503558,,,,,,,,,,,1.0851,0,,,,,,,,,,,,,,m,0,1.0851,,,,,,,,0.710625012,-0.310555562,0,0,0,,0,44,44,140,1,DOVET,LB,old,z,./images/DOVETLB.png,,,,,,,,,,,,,,,,,,,,,,,,,,,,,,,,,,,
,,,,,,,,,,,,,,,,,6112b65a93c2eed74b0416f5,22,2022-02-12_12h48.52.850,lexical_decision_task_DD,2021.2.3,Win32,59.80503558,,,,,,,,,,,0.616,1,,,,,,,,,,,,,,m,1,0.616,,,,,,,,0.710625012,-0.310555562,0,0,0,,0,45,45,61,1,CANDLE,HB,old,m,./images/CANDLEHB.png,,,,,,,,,,,,,,,,,,,,,,,,,,,,,,,,,,,
,,,,,,,,,,,,,,,,,6112b65a93c2eed74b0416f5,22,2022-02-12_12h48.52.850,lexical_decision_task_DD,2021.2.3,Win32,59.80503558,,,,,,,,,,,0.6793,1,,,,,,,,,,,,,,m,1,0.6793,,,,,,,,0.710625012,-0.310555562,0,0,0,,0,46,46,8,1,TULIP,LB,old,m,./images/TULIPLB.png,,,,,,,,,,,,,,,,,,,,,,,,,,,,,,,,,,,
,,,,,,,,,,,,,,,,,6112b65a93c2eed74b0416f5,22,2022-02-12_12h48.52.850,lexical_decision_task_DD,2021.2.3,Win32,59.80503558,,,,,,,,,,,1.0757,1,,,,,,,,,,,,,,m,1,1.0757,,,,,,,,0.710625012,-0.310555562,0,0,0,,0,47,47,58,1,BABOON,HB,old,m,./images/BABOONHB.png,,,,,,,,,,,,,,,,,,,,,,,,,,,,,,,,,,,
,,,,,,,,,,,,,,,,,6112b65a93c2eed74b0416f5,22,2022-02-12_12h48.52.850,lexical_decision_task_DD,2021.2.3,Win32,59.80503558,,,,,,,,,,,0.7596,1,,,,,,,,,,,,,,z,1,0.7596,,,,,,,,0.710625012,-0.310555562,0,0,0,,0,48,48,94,1,BLANS,HB,old,z,./images/BLANSHB.png,,,,,,,,,,,,,,,,,,,,,,,,,,,,,,,,,,,
,,,,,,,,,,,,,,,,,6112b65a93c2eed74b0416f5,22,2022-02-12_12h48.52.850,lexical_decision_task_DD,2021.2.3,Win32,59.80503558,,,,,,,,,,,0.7213,1,,,,,,,,,,,,,,z,1,0.7213,,,,,,,,0.710625012,-0.310555562,0,0,0,,0,49,49,157,1,INLER,HB,old,z,./images/INLERHB.png,,,,,,,,,,,,,,,,,,,,,,,,,,,,,,,,,,,
,,,,,,,,,,,,,,,,,6112b65a93c2eed74b0416f5,22,2022-02-12_12h48.52.850,lexical_decision_task_DD,2021.2.3,Win32,59.80503558,,,,,,,,,,,0.9628,1,,,,,,,,,,,,,,z,1,0.9628,,,,,,,,0.710625012,-0.310555562,0,0,0,,0,50,50,139,1,BLEAR,HB,old,z,./images/BLEARHB.png,,,,,,,,,,,,,,,,,,,,,,,,,,,,,,,,,,,
,,,,,,,,,,,,,,,,,6112b65a93c2eed74b0416f5,22,2022-02-12_12h48.52.850,lexical_decision_task_DD,2021.2.3,Win32,59.80503558,,,,,,,,,,,0.815,1,,,,,,,,,,,,,,m,1,0.815,,,,,,,,0.710625012,-0.310555562,0,0,0,,0,51,51,25,1,WRIST,HB,old,m,./images/WRISTHB.png,,,,,,,,,,,,,,,,,,,,,,,,,,,,,,,,,,,
,,,,,,,,,,,,,,,,,6112b65a93c2eed74b0416f5,22,2022-02-12_12h48.52.850,lexical_decision_task_DD,2021.2.3,Win32,59.80503558,,,,,,,,,,,0.5541,1,,,,,,,,,,,,,,m,1,0.5541,,,,,,,,0.710625012,-0.310555562,0,0,0,,0,52,52,71,1,PIMPLE,LB,old,m,./images/PIMPLELB.png,,,,,,,,,,,,,,,,,,,,,,,,,,,,,,,,,,,
,,,,,,,,,,,,,,,,,6112b65a93c2eed74b0416f5,22,2022-02-12_12h48.52.850,lexical_decision_task_DD,2021.2.3,Win32,59.80503558,,,,,,,,,,,0.7024,1,,,,,,,,,,,,,,z,1,0.7024,,,,,,,,0.710625012,-0.310555562,0,0,0,,0,53,53,147,1,ZOLES,C,old,z,./images/ZOLES.png,,,,,,,,,,,,,,,,,,,,,,,,,,,,,,,,,,,
,,,,,,,,,,,,,,,,,6112b65a93c2eed74b0416f5,22,2022-02-12_12h48.52.850,lexical_decision_task_DD,2021.2.3,Win32,59.80503558,,,,,,,,,,,0.5825,1,,,,,,,,,,,,,,m,1,0.5825,,,,,,,,0.710625012,-0.310555562,0,0,0,,0,54,54,13,1,MOTOR,HB,old,m,./images/MOTORHB.png,,,,,,,,,,,,,,,,,,,,,,,,,,,,,,,,,,,
,,,,,,,,,,,,,,,,,6112b65a93c2eed74b0416f5,22,2022-02-12_12h48.52.850,lexical_decision_task_DD,2021.2.3,Win32,59.80503558,,,,,,,,,,,0.7357,1,,,,,,,,,,,,,,z,1,0.7357,,,,,,,,0.710625012,-0.310555562,0,0,0,,0,55,55,114,1,RIKES,C,old,z,./images/RIKES.png,,,,,,,,,,,,,,,,,,,,,,,,,,,,,,,,,,,
,,,,,,,,,,,,,,,,,6112b65a93c2eed74b0416f5,22,2022-02-12_12h48.52.850,lexical_decision_task_DD,2021.2.3,Win32,59.80503558,,,,,,,,,,,0.6821,1,,,,,,,,,,,,,,z,1,0.6821,,,,,,,,0.710625012,-0.310555562,0,0,0,,0,56,56,146,1,MOOST,LB,old,z,./images/MOOSTLB.png,,,,,,,,,,,,,,,,,,,,,,,,,,,,,,,,,,,
,,,,,,,,,,,,,,,,,6112b65a93c2eed74b0416f5,22,2022-02-12_12h48.52.850,lexical_decision_task_DD,2021.2.3,Win32,59.80503558,,,,,,,,,,,0.5799,1,,,,,,,,,,,,,,m,1,0.5799,,,,,,,,0.710625012,-0.310555562,0,0,0,,0,57,57,56,1,PACKET,LB,old,m,./images/PACKETLB.png,,,,,,,,,,,,,,,,,,,,,,,,,,,,,,,,,,,
,,,,,,,,,,,,,,,,,6112b65a93c2eed74b0416f5,22,2022-02-12_12h48.52.850,lexical_decision_task_DD,2021.2.3,Win32,59.80503558,,,,,,,,,,,0.5708,1,,,,,,,,,,,,,,m,1,0.5708,,,,,,,,0.710625012,-0.310555562,0,0,0,,0,58,58,47,1,BERRY,LB,old,m,./images/BERRYLB.png,,,,,,,,,,,,,,,,,,,,,,,,,,,,,,,,,,,
,,,,,,,,,,,,,,,,,6112b65a93c2eed74b0416f5,22,2022-02-12_12h48.52.850,lexical_decision_task_DD,2021.2.3,Win32,59.80503558,,,,,,,,,,,0.8633,1,,,,,,,,,,,,,,z,1,0.8633,,,,,,,,0.710625012,-0.310555562,0,0,0,,0,59,59,121,1,CEERS,HB,old,z,./images/CEERSHB.png,,,,,,,,,,,,,,,,,,,,,,,,,,,,,,,,,,,
,,,,,,,,,,,,,,,,,6112b65a93c2eed74b0416f5,22,2022-02-12_12h48.52.850,lexical_decision_task_DD,2021.2.3,Win32,59.80503558,,,,,,,,,,,0.6171,1,,,,,,,,,,,,,,z,1,0.6171,,,,,,,,0.710625012,-0.310555562,0,0,0,,0,60,60,165,1,TROWN,C,old,z,./images/TROWN.png,,,,,,,,,,,,,,,,,,,,,,,,,,,,,,,,,,,
,,,,,,,,,,,,,,,,,6112b65a93c2eed74b0416f5,22,2022-02-12_12h48.52.850,lexical_decision_task_DD,2021.2.3,Win32,59.80503558,,,,,,,,,,,0.6526,1,,,,,,,,,,,,,,z,1,0.6526,,,,,,,,0.710625012,-0.310555562,0,0,0,,0,61,61,109,1,BURGE,HB,old,z,./images/BURGEHB.png,,,,,,,,,,,,,,,,,,,,,,,,,,,,,,,,,,,
,,,,,,,,,,,,,,,,,6112b65a93c2eed74b0416f5,22,2022-02-12_12h48.52.850,lexical_decision_task_DD,2021.2.3,Win32,59.80503558,,,,,,,,,,,0.5671,1,,,,,,,,,,,,,,m,1,0.5671,,,,,,,,0.710625012,-0.310555562,0,0,0,,0,62,62,60,1,TWINS,C,old,m,./images/TWINS.png,,,,,,,,,,,,,,,,,,,,,,,,,,,,,,,,,,,
,,,,,,,,,,,,,,,,,6112b65a93c2eed74b0416f5,22,2022-02-12_12h48.52.850,lexical_decision_task_DD,2021.2.3,Win32,59.80503558,,,,,,,,,,,0.9974,0,,,,,,,,,,,,,,m,0,0.9974,,,,,,,,0.710625012,-0.310555562,0,0,0,,0,63,63,88,1,GLUSH,HB,old,z,./images/GLUSHHB.png,,,,,,,,,,,,,,,,,,,,,,,,,,,,,,,,,,,
,,,,,,,,,,,,,,,,,6112b65a93c2eed74b0416f5,22,2022-02-12_12h48.52.850,lexical_decision_task_DD,2021.2.3,Win32,59.80503558,,,,,,,,,,,0.7593,1,,,,,,,,,,,,,,z,1,0.7593,,,,,,,,0.710625012,-0.310555562,0,0,0,,0,64,64,98,1,BAMPS,LB,old,z,./images/BAMPSLB.png,,,,,,,,,,,,,,,,,,,,,,,,,,,,,,,,,,,
,,,,,,,,,,,,,,,,,6112b65a93c2eed74b0416f5,22,2022-02-12_12h48.52.850,lexical_decision_task_DD,2021.2.3,Win32,59.80503558,,,,,,,,,,,0.5098,1,,,,,,,,,,,,,,m,1,0.5098,,,,,,,,0.710625012,-0.310555562,0,0,0,,0,65,65,44,1,LIZARD,LB,old,m,./images/LIZARDLB.png,,,,,,,,,,,,,,,,,,,,,,,,,,,,,,,,,,,
,,,,,,,,,,,,,,,,,6112b65a93c2eed74b0416f5,22,2022-02-12_12h48.52.850,lexical_decision_task_DD,2021.2.3,Win32,59.80503558,,,,,,,,,,,0.616,1,,,,,,,,,,,,,,z,1,0.616,,,,,,,,0.710625012,-0.310555562,0,0,0,,0,66,66,150,1,NOOLS,C,old,z,./images/NOOLS.png,,,,,,,,,,,,,,,,,,,,,,,,,,,,,,,,,,,
,,,,,,,,,,,,,,,,,6112b65a93c2eed74b0416f5,22,2022-02-12_12h48.52.850,lexical_decision_task_DD,2021.2.3,Win32,59.80503558,,,,,,,,,,,0.5598,1,,,,,,,,,,,,,,z,1,0.5598,,,,,,,,0.710625012,-0.310555562,0,0,0,,0,67,67,137,1,JOOST,LB,old,z,./images/JOOSTLB.png,,,,,,,,,,,,,,,,,,,,,,,,,,,,,,,,,,,
,,,,,,,,,,,,,,,,,6112b65a93c2eed74b0416f5,22,2022-02-12_12h48.52.850,lexical_decision_task_DD,2021.2.3,Win32,59.80503558,,,,,,,,,,,0.6606,1,,,,,,,,,,,,,,z,1,0.6606,,,,,,,,0.710625012,-0.310555562,0,0,0,,0,68,68,145,1,LAMEL,HB,old,z,./images/LAMELHB.png,,,,,,,,,,,,,,,,,,,,,,,,,,,,,,,,,,,
,,,,,,,,,,,,,,,,,6112b65a93c2eed74b0416f5,22,2022-02-12_12h48.52.850,lexical_decision_task_DD,2021.2.3,Win32,59.80503558,,,,,,,,,,,0.4947,1,,,,,,,,,,,,,,z,1,0.4947,,,,,,,,0.710625012,-0.310555562,0,0,0,,0,69,69,87,1,TRING,C,old,z,./images/TRING.png,,,,,,,,,,,,,,,,,,,,,,,,,,,,,,,,,,,
,,,,,,,,,,,,,,,,,6112b65a93c2eed74b0416f5,22,2022-02-12_12h48.52.850,lexical_decision_task_DD,2021.2.3,Win32,59.80503558,,,,,,,,,,,0.6592,1,,,,,,,,,,,,,,z,1,0.6592,,,,,,,,0.710625012,-0.310555562,0,0,0,,0,70,70,124,1,TUNCH,HB,old,z,./images/TUNCHHB.png,,,,,,,,,,,,,,,,,,,,,,,,,,,,,,,,,,,
,,,,,,,,,,,,,,,,,6112b65a93c2eed74b0416f5,22,2022-02-12_12h48.52.850,lexical_decision_task_DD,2021.2.3,Win32,59.80503558,,,,,,,,,,,0.6969,1,,,,,,,,,,,,,,m,1,0.6969,,,,,,,,0.710625012,-0.310555562,0,0,0,,0,71,71,31,1,QUILL,HB,old,m,./images/QUILLHB.png,,,,,,,,,,,,,,,,,,,,,,,,,,,,,,,,,,,
,,,,,,,,,,,,,,,,,6112b65a93c2eed74b0416f5,22,2022-02-12_12h48.52.850,lexical_decision_task_DD,2021.2.3,Win32,59.80503558,,,,,,,,,,,0.6285,1,,,,,,,,,,,,,,m,1,0.6285,,,,,,,,0.710625012,-0.310555562,0,0,0,,0,72,72,37,1,BIRTH,HB,old,m,./images/BIRTHHB.png,,,,,,,,,,,,,,,,,,,,,,,,,,,,,,,,,,,
,,,,,,,,,,,,,,,,,6112b65a93c2eed74b0416f5,22,2022-02-12_12h48.52.850,lexical_decision_task_DD,2021.2.3,Win32,59.80503558,,,,,,,,,,,0.5772,1,,,,,,,,,,,,,,z,1,0.5772,,,,,,,,0.710625012,-0.310555562,0,0,0,,0,73,73,152,1,FRAIN,LB,old,z,./images/FRAINLB.png,,,,,,,,,,,,,,,,,,,,,,,,,,,,,,,,,,,
,,,,,,,,,,,,,,,,,6112b65a93c2eed74b0416f5,22,2022-02-12_12h48.52.850,lexical_decision_task_DD,2021.2.3,Win32,59.80503558,,,,,,,,,,,0.5557,1,,,,,,,,,,,,,,m,1,0.5557,,,,,,,,0.710625012,-0.310555562,0,0,0,,0,74,74,39,1,SHELF,C,old,m,./images/SHELF.png,,,,,,,,,,,,,,,,,,,,,,,,,,,,,,,,,,,
,,,,,,,,,,,,,,,,,6112b65a93c2eed74b0416f5,22,2022-02-12_12h48.52.850,lexical_decision_task_DD,2021.2.3,Win32,59.80503558,,,,,,,,,,,0.511,1,,,,,,,,,,,,,,z,1,0.511,,,,,,,,0.710625012,-0.310555562,0,0,0,,0,75,75,138,1,PLICE,C,old,z,./images/PLICE.png,,,,,,,,,,,,,,,,,,,,,,,,,,,,,,,,,,,
,,,,,,,,,,,,,,,,,6112b65a93c2eed74b0416f5,22,2022-02-12_12h48.52.850,lexical_decision_task_DD,2021.2.3,Win32,59.80503558,,,,,,,,,,,0.5912,1,,,,,,,,,,,,,,z,1,0.5912,,,,,,,,0.710625012,-0.310555562,0,0,0,,0,76,76,93,1,SMONE,C,old,z,./images/SMONE.png,,,,,,,,,,,,,,,,,,,,,,,,,,,,,,,,,,,
,,,,,,,,,,,,,,,,,6112b65a93c2eed74b0416f5,22,2022-02-12_12h48.52.850,lexical_decision_task_DD,2021.2.3,Win32,59.80503558,,,,,,,,,,,1.0508,1,,,,,,,,,,,,,,m,1,1.0508,,,,,,,,0.710625012,-0.310555562,0,0,0,,0,77,77,51,1,ONION,C,old,m,./images/ONION.png,,,,,,,,,,,,,,,,,,,,,,,,,,,,,,,,,,,
,,,,,,,,,,,,,,,,,6112b65a93c2eed74b0416f5,22,2022-02-12_12h48.52.850,lexical_decision_task_DD,2021.2.3,Win32,59.80503558,,,,,,,,,,,0.5662,1,,,,,,,,,,,,,,m,1,0.5662,,,,,,,,0.710625012,-0.310555562,0,0,0,,0,78,78,64,1,JELLY,HB,old,m,./images/JELLYHB.png,,,,,,,,,,,,,,,,,,,,,,,,,,,,,,,,,,,
,,,,,,,,,,,,,,,,,6112b65a93c2eed74b0416f5,22,2022-02-12_12h48.52.850,lexical_decision_task_DD,2021.2.3,Win32,59.80503558,,,,,,,,,,,0.5724,1,,,,,,,,,,,,,,z,1,0.5724,,,,,,,,0.710625012,-0.310555562,0,0,0,,0,79,79,101,1,GLEET,LB,old,z,./images/GLEETLB.png,,,,,,,,,,,,,,,,,,,,,,,,,,,,,,,,,,,
,,,,,,,,,,,,,,,,,6112b65a93c2eed74b0416f5,22,2022-02-12_12h48.52.850,lexical_decision_task_DD,2021.2.3,Win32,59.80503558,,,,,,,,,,,0.7373,1,,,,,,,,,,,,,,z,1,0.7373,,,,,,,,0.710625012,-0.310555562,0,0,0,,0,80,80,116,1,BALGY,LB,old,z,./images/BALGYLB.png,,,,,,,,,,,,,,,,,,,,,,,,,,,,,,,,,,,
,,,,,,,,,,,,,,,,,6112b65a93c2eed74b0416f5,22,2022-02-12_12h48.52.850,lexical_decision_task_DD,2021.2.3,Win32,59.80503558,,,,,,,,,,,0.7315,0,,,,,,,,,,,,,,z,0,0.7315,,,,,,,,0.710625012,-0.310555562,0,0,0,,0,81,81,67,1,SAILOR,HB,old,m,./images/SAILORHB.png,,,,,,,,,,,,,,,,,,,,,,,,,,,,,,,,,,,
,,,,,,,,,,,,,,,,,6112b65a93c2eed74b0416f5,22,2022-02-12_12h48.52.850,lexical_decision_task_DD,2021.2.3,Win32,59.80503558,,,,,,,,,,,0.5502,1,,,,,,,,,,,,,,m,1,0.5502,,,,,,,,0.710625012,-0.310555562,0,0,0,,0,82,82,63,1,MIRROR,C,old,m,./images/MIRROR.png,,,,,,,,,,,,,,,,,,,,,,,,,,,,,,,,,,,
,,,,,,,,,,,,,,,,,6112b65a93c2eed74b0416f5,22,2022-02-12_12h48.52.850,lexical_decision_task_DD,2021.2.3,Win32,59.80503558,,,,,,,,,,,0.4993,1,,,,,,,,,,,,,,m,1,0.4993,,,,,,,,0.710625012,-0.310555562,0,0,0,space,0,83,83,65,1,FARMER,LB,old,m,./images/FARMERLB.png,9.685,,,,,,,,,,,,,,,,,,,,,,,,,,,,,,,,,,
,,,,,,,,,,,,,,,,,6112b65a93c2eed74b0416f5,22,2022-02-12_12h48.52.850,lexical_decision_task_DD,2021.2.3,Win32,59.80503558,,,,,,,,,,,0.5049,1,,,,,,,,,,,,,,m,1,0.5049,,,,,,,,0.710625012,-0.310555562,0,0,0,,0,84,84,45,1,KITTEN,C,old,m,./images/KITTEN.png,,,,,,,,,,,,,,,,,,,,,,,,,,,,,,,,,,,
,,,,,,,,,,,,,,,,,6112b65a93c2eed74b0416f5,22,2022-02-12_12h48.52.850,lexical_decision_task_DD,2021.2.3,Win32,59.80503558,,,,,,,,,,,0.5839,1,,,,,,,,,,,,,,m,1,0.5839,,,,,,,,0.710625012,-0.310555562,0,0,0,,0,85,85,54,1,TRIPOD,C,old,m,./images/TRIPOD.png,,,,,,,,,,,,,,,,,,,,,,,,,,,,,,,,,,,
,,,,,,,,,,,,,,,,,6112b65a93c2eed74b0416f5,22,2022-02-12_12h48.52.850,lexical_decision_task_DD,2021.2.3,Win32,59.80503558,,,,,,,,,,,0.5999,1,,,,,,,,,,,,,,z,1,0.5999,,,,,,,,0.710625012,-0.310555562,0,0,0,,0,86,86,96,1,KEAMS,C,old,z,./images/KEAMS.png,,,,,,,,,,,,,,,,,,,,,,,,,,,,,,,,,,,
,,,,,,,,,,,,,,,,,6112b65a93c2eed74b0416f5,22,2022-02-12_12h48.52.850,lexical_decision_task_DD,2021.2.3,Win32,59.80503558,,,,,,,,,,,0.4648,1,,,,,,,,,,,,,,m,1,0.4648,,,,,,,,0.710625012,-0.310555562,0,0,0,,0,87,87,21,1,KIDNEY,C,old,m,./images/KIDNEY.png,,,,,,,,,,,,,,,,,,,,,,,,,,,,,,,,,,,
,,,,,,,,,,,,,,,,,6112b65a93c2eed74b0416f5,22,2022-02-12_12h48.52.850,lexical_decision_task_DD,2021.2.3,Win32,59.80503558,,,,,,,,,,,0.7412,0,,,,,,,,,,,,,,z,0,0.7412,,,,,,,,0.710625012,-0.310555562,0,0,0,,0,88,88,43,1,MOSQUE,HB,old,m,./images/MOSQUEHB.png,,,,,,,,,,,,,,,,,,,,,,,,,,,,,,,,,,,
,,,,,,,,,,,,,,,,,6112b65a93c2eed74b0416f5,22,2022-02-12_12h48.52.850,lexical_decision_task_DD,2021.2.3,Win32,59.80503558,,,,,,,,,,,0.5662,1,,,,,,,,,,,,,,z,1,0.5662,,,,,,,,0.710625012,-0.310555562,0,0,0,,0,89,89,89,1,DRIEK,LB,old,z,./images/DRIEKLB.png,,,,,,,,,,,,,,,,,,,,,,,,,,,,,,,,,,,
,,,,,,,,,,,,,,,,,6112b65a93c2eed74b0416f5,22,2022-02-12_12h48.52.850,lexical_decision_task_DD,2021.2.3,Win32,59.80503558,,,,,,,,,,,0.5209,1,,,,,,,,,,,,,,m,1,0.5209,,,,,,,,0.710625012,-0.310555562,0,0,0,,0,90,90,32,1,BARREL,LB,old,m,./images/BARRELLB.png,,,,,,,,,,,,,,,,,,,,,,,,,,,,,,,,,,,
,,,,,,,,,,,,,,,,,6112b65a93c2eed74b0416f5,22,2022-02-12_12h48.52.850,lexical_decision_task_DD,2021.2.3,Win32,59.80503558,,,,,,,,,,,0.5836,1,,,,,,,,,,,,,,z,1,0.5836,,,,,,,,0.710625012,-0.310555562,0,0,0,,0,91,91,153,1,CLUPS,C,old,z,./images/CLUPS.png,,,,,,,,,,,,,,,,,,,,,,,,,,,,,,,,,,,
,,,,,,,,,,,,,,,,,6112b65a93c2eed74b0416f5,22,2022-02-12_12h48.52.850,lexical_decision_task_DD,2021.2.3,Win32,59.80503558,,,,,,,,,,,0.5011,1,,,,,,,,,,,,,,z,1,0.5011,,,,,,,,0.710625012,-0.310555562,0,0,0,,0,92,92,117,1,STEEG,C,old,z,./images/STEEG.png,,,,,,,,,,,,,,,,,,,,,,,,,,,,,,,,,,,
,,,,,,,,,,,,,,,,,6112b65a93c2eed74b0416f5,22,2022-02-12_12h48.52.850,lexical_decision_task_DD,2021.2.3,Win32,59.80503558,,,,,,,,,,,0.9437,1,,,,,,,,,,,,,,z,1,0.9437,,,,,,,,0.710625012,-0.310555562,0,0,0,,0,93,93,110,1,CRUNK,LB,old,z,./images/CRUNKLB.png,,,,,,,,,,,,,,,,,,,,,,,,,,,,,,,,,,,
,,,,,,,,,,,,,,,,,6112b65a93c2eed74b0416f5,22,2022-02-12_12h48.52.850,lexical_decision_task_DD,2021.2.3,Win32,59.80503558,,,,,,,,,,,1.0647,1,,,,,,,,,,,,,,z,1,1.0647,,,,,,,,0.710625012,-0.310555562,0,0,0,,0,94,94,118,1,BAVEL,HB,old,z,./images/BAVELHB.png,,,,,,,,,,,,,,,,,,,,,,,,,,,,,,,,,,,
,,,,,,,,,,,,,,,,,6112b65a93c2eed74b0416f5,22,2022-02-12_12h48.52.850,lexical_decision_task_DD,2021.2.3,Win32,59.80503558,,,,,,,,,,,0.6178,1,,,,,,,,,,,,,,z,1,0.6178,,,,,,,,0.710625012,-0.310555562,0,0,0,,0,95,95,119,1,PAFER,LB,old,z,./images/PAFERLB.png,,,,,,,,,,,,,,,,,,,,,,,,,,,,,,,,,,,
,,,,,,,,,,,,,,,,,6112b65a93c2eed74b0416f5,22,2022-02-12_12h48.52.850,lexical_decision_task_DD,2021.2.3,Win32,59.80503558,,,,,,,,,,,0.6042,1,,,,,,,,,,,,,,m,1,0.6042,,,,,,,,0.710625012,-0.310555562,0,0,0,,0,96,96,52,1,BANNER,HB,old,m,./images/BANNERHB.png,,,,,,,,,,,,,,,,,,,,,,,,,,,,,,,,,,,
,,,,,,,,,,,,,,,,,6112b65a93c2eed74b0416f5,22,2022-02-12_12h48.52.850,lexical_decision_task_DD,2021.2.3,Win32,59.80503558,,,,,,,,,,,0.5508,1,,,,,,,,,,,,,,m,1,0.5508,,,,,,,,0.710625012,-0.310555562,0,0,0,,0,97,97,17,1,SKIING,LB,old,m,./images/SKIINGLB.png,,,,,,,,,,,,,,,,,,,,,,,,,,,,,,,,,,,
,,,,,,,,,,,,,,,,,6112b65a93c2eed74b0416f5,22,2022-02-12_12h48.52.850,lexical_decision_task_DD,2021.2.3,Win32,59.80503558,,,,,,,,,,,0.6671,1,,,,,,,,,,,,,,z,1,0.6671,,,,,,,,0.710625012,-0.310555562,0,0,0,,0,98,98,159,1,CUDDY,C,old,z,./images/CUDDY.png,,,,,,,,,,,,,,,,,,,,,,,,,,,,,,,,,,,
,,,,,,,,,,,,,,,,,6112b65a93c2eed74b0416f5,22,2022-02-12_12h48.52.850,lexical_decision_task_DD,2021.2.3,Win32,59.80503558,,,,,,,,,,,0.5607,1,,,,,,,,,,,,,,m,1,0.5607,,,,,,,,0.710625012,-0.310555562,0,0,0,,0,99,99,4,1,MUSCLE,HB,old,m,./images/MUSCLEHB.png,,,,,,,,,,,,,,,,,,,,,,,,,,,,,,,,,,,
,,,,,,,,,,,,,,,,,6112b65a93c2eed74b0416f5,22,2022-02-12_12h48.52.850,lexical_decision_task_DD,2021.2.3,Win32,59.80503558,,,,,,,,,,,0.5177,1,,,,,,,,,,,,,,m,1,0.5177,,,,,,,,0.710625012,-0.310555562,0,0,0,,0,100,100,53,1,CARPET,LB,old,m,./images/CARPETLB.png,,,,,,,,,,,,,,,,,,,,,,,,,,,,,,,,,,,
,,,,,,,,,,,,,,,,,6112b65a93c2eed74b0416f5,22,2022-02-12_12h48.52.850,lexical_decision_task_DD,2021.2.3,Win32,59.80503558,,,,,,,,,,,0.5639,1,,,,,,,,,,,,,,z,1,0.5639,,,,,,,,0.710625012,-0.310555562,0,0,0,,0,101,101,129,1,PRANS,C,old,z,./images/PRANS.png,,,,,,,,,,,,,,,,,,,,,,,,,,,,,,,,,,,
,,,,,,,,,,,,,,,,,6112b65a93c2eed74b0416f5,22,2022-02-12_12h48.52.850,lexical_decision_task_DD,2021.2.3,Win32,59.80503558,,,,,,,,,,,0.4901,1,,,,,,,,,,,,,,z,1,0.4901,,,,,,,,0.710625012,-0.310555562,0,0,0,,0,102,102,84,1,HAXES,C,old,z,./images/HAXES.png,,,,,,,,,,,,,,,,,,,,,,,,,,,,,,,,,,,
,,,,,,,,,,,,,,,,,6112b65a93c2eed74b0416f5,22,2022-02-12_12h48.52.850,lexical_decision_task_DD,2021.2.3,Win32,59.80503558,,,,,,,,,,,0.6675,1,,,,,,,,,,,,,,z,1,0.6675,,,,,,,,0.710625012,-0.310555562,0,0,0,,0,103,103,167,1,ZONET,LB,old,z,./images/ZONETLB.png,,,,,,,,,,,,,,,,,,,,,,,,,,,,,,,,,,,
,,,,,,,,,,,,,,,,,6112b65a93c2eed74b0416f5,22,2022-02-12_12h48.52.850,lexical_decision_task_DD,2021.2.3,Win32,59.80503558,,,,,,,,,,,0.7558,1,,,,,,,,,,,,,,z,1,0.7558,,,,,,,,0.710625012,-0.310555562,0,0,0,,0,104,104,113,1,LINEW,LB,old,z,./images/LINEWLB.png,,,,,,,,,,,,,,,,,,,,,,,,,,,,,,,,,,,
,,,,,,,,,,,,,,,,,6112b65a93c2eed74b0416f5,22,2022-02-12_12h48.52.850,lexical_decision_task_DD,2021.2.3,Win32,59.80503558,,,,,,,,,,,0.5688,1,,,,,,,,,,,,,,m,1,0.5688,,,,,,,,0.710625012,-0.310555562,0,0,0,,0,105,105,68,1,TORCH,LB,old,m,./images/TORCHLB.png,,,,,,,,,,,,,,,,,,,,,,,,,,,,,,,,,,,
,,,,,,,,,,,,,,,,,6112b65a93c2eed74b0416f5,22,2022-02-12_12h48.52.850,lexical_decision_task_DD,2021.2.3,Win32,59.80503558,,,,,,,,,,,0.4875,1,,,,,,,,,,,,,,m,1,0.4875,,,,,,,,0.710625012,-0.310555562,0,0,0,,0,106,106,66,1,SWEAT,C,old,m,./images/SWEAT.png,,,,,,,,,,,,,,,,,,,,,,,,,,,,,,,,,,,
,,,,,,,,,,,,,,,,,6112b65a93c2eed74b0416f5,22,2022-02-12_12h48.52.850,lexical_decision_task_DD,2021.2.3,Win32,59.80503558,,,,,,,,,,,0.5458,1,,,,,,,,,,,,,,m,1,0.5458,,,,,,,,0.710625012,-0.310555562,0,0,0,,0,107,107,70,1,URINE,HB,old,m,./images/URINEHB.png,,,,,,,,,,,,,,,,,,,,,,,,,,,,,,,,,,,
,,,,,,,,,,,,,,,,,6112b65a93c2eed74b0416f5,22,2022-02-12_12h48.52.850,lexical_decision_task_DD,2021.2.3,Win32,59.80503558,,,,,,,,,,,0.4839,1,,,,,,,,,,,,,,m,1,0.4839,,,,,,,,0.710625012,-0.310555562,0,0,0,,0,108,108,6,1,SQUARE,C,old,m,./images/SQUARE.png,,,,,,,,,,,,,,,,,,,,,,,,,,,,,,,,,,,
,,,,,,,,,,,,,,,,,6112b65a93c2eed74b0416f5,22,2022-02-12_12h48.52.850,lexical_decision_task_DD,2021.2.3,Win32,59.80503558,,,,,,,,,,,0.9501,1,,,,,,,,,,,,,,z,1,0.9501,,,,,,,,0.710625012,-0.310555562,0,0,0,,0,109,109,106,1,CLUMS,HB,old,z,./images/CLUMSHB.png,,,,,,,,,,,,,,,,,,,,,,,,,,,,,,,,,,,
,,,,,,,,,,,,,,,,,6112b65a93c2eed74b0416f5,22,2022-02-12_12h48.52.850,lexical_decision_task_DD,2021.2.3,Win32,59.80503558,,,,,,,,,,,0.9056,1,,,,,,,,,,,,,,z,1,0.9056,,,,,,,,0.710625012,-0.310555562,0,0,0,,0,110,110,105,1,MOKER,C,old,z,./images/MOKER.png,,,,,,,,,,,,,,,,,,,,,,,,,,,,,,,,,,,
,,,,,,,,,,,,,,,,,6112b65a93c2eed74b0416f5,22,2022-02-12_12h48.52.850,lexical_decision_task_DD,2021.2.3,Win32,59.80503558,,,,,,,,,,,0.5092,1,,,,,,,,,,,,,,m,1,0.5092,,,,,,,,0.710625012,-0.310555562,0,0,0,,0,111,111,36,1,THROAT,C,old,m,./images/THROAT.png,,,,,,,,,,,,,,,,,,,,,,,,,,,,,,,,,,,
,,,,,,,,,,,,,,,,,6112b65a93c2eed74b0416f5,22,2022-02-12_12h48.52.850,lexical_decision_task_DD,2021.2.3,Win32,59.80503558,,,,,,,,,,,1.056,1,,,,,,,,,,,,,,z,1,1.056,,,,,,,,0.710625012,-0.310555562,0,0,0,,0,112,112,151,1,TINKY,HB,old,z,./images/TINKYHB.png,,,,,,,,,,,,,,,,,,,,,,,,,,,,,,,,,,,
,,,,,,,,,,,,,,,,,6112b65a93c2eed74b0416f5,22,2022-02-12_12h48.52.850,lexical_decision_task_DD,2021.2.3,Win32,59.80503558,,,,,,,,,,,0.5611,1,,,,,,,,,,,,,,m,1,0.5611,,,,,,,,0.710625012,-0.310555562,0,0,0,,0,113,113,48,1,SPORT,C,old,m,./images/SPORT.png,,,,,,,,,,,,,,,,,,,,,,,,,,,,,,,,,,,
,,,,,,,,,,,,,,,,,6112b65a93c2eed74b0416f5,22,2022-02-12_12h48.52.850,lexical_decision_task_DD,2021.2.3,Win32,59.80503558,,,,,,,,,,,0.6149,1,,,,,,,,,,,,,,z,1,0.6149,,,,,,,,0.710625012,-0.310555562,0,0,0,,0,114,114,149,1,VEASE,LB,old,z,./images/VEASELB.png,,,,,,,,,,,,,,,,,,,,,,,,,,,,,,,,,,,
,,,,,,,,,,,,,,,,,6112b65a93c2eed74b0416f5,22,2022-02-12_12h48.52.850,lexical_decision_task_DD,2021.2.3,Win32,59.80503558,,,,,,,,,,,0.5555,1,,,,,,,,,,,,,,m,1,0.5555,,,,,,,,0.710625012,-0.310555562,0,0,0,,0,115,115,40,1,SWING,HB,old,m,./images/SWINGHB.png,,,,,,,,,,,,,,,,,,,,,,,,,,,,,,,,,,,
,,,,,,,,,,,,,,,,,6112b65a93c2eed74b0416f5,22,2022-02-12_12h48.52.850,lexical_decision_task_DD,2021.2.3,Win32,59.80503558,,,,,,,,,,,0.6042,1,,,,,,,,,,,,,,m,1,0.6042,,,,,,,,0.710625012,-0.310555562,0,0,0,,0,116,116,79,1,CRUST,HB,old,m,./images/CRUSTHB.png,,,,,,,,,,,,,,,,,,,,,,,,,,,,,,,,,,,
,,,,,,,,,,,,,,,,,6112b65a93c2eed74b0416f5,22,2022-02-12_12h48.52.850,lexical_decision_task_DD,2021.2.3,Win32,59.80503558,,,,,,,,,,,0.5886,1,,,,,,,,,,,,,,m,1,0.5886,,,,,,,,0.710625012,-0.310555562,0,0,0,,0,117,117,19,1,DOUGH,HB,old,m,./images/DOUGHHB.png,,,,,,,,,,,,,,,,,,,,,,,,,,,,,,,,,,,
,,,,,,,,,,,,,,,,,6112b65a93c2eed74b0416f5,22,2022-02-12_12h48.52.850,lexical_decision_task_DD,2021.2.3,Win32,59.80503558,,,,,,,,,,,0.5511,1,,,,,,,,,,,,,,m,1,0.5511,,,,,,,,0.710625012,-0.310555562,0,0,0,,0,118,118,11,1,BONNET,LB,old,m,./images/BONNETLB.png,,,,,,,,,,,,,,,,,,,,,,,,,,,,,,,,,,,
,,,,,,,,,,,,,,,,,6112b65a93c2eed74b0416f5,22,2022-02-12_12h48.52.850,lexical_decision_task_DD,2021.2.3,Win32,59.80503558,,,,,,,,,,,0.6492,1,,,,,,,,,,,,,,z,1,0.6492,,,,,,,,0.710625012,-0.310555562,0,0,0,,0,119,119,115,1,MAWNS,HB,old,z,./images/MAWNSHB.png,,,,,,,,,,,,,,,,,,,,,,,,,,,,,,,,,,,
,,,,,,,,,,,,,,,,,6112b65a93c2eed74b0416f5,22,2022-02-12_12h48.52.850,lexical_decision_task_DD,2021.2.3,Win32,59.80503558,,,,,,,,,,,0.5509,1,,,,,,,,,,,,,,z,1,0.5509,,,,,,,,0.710625012,-0.310555562,0,0,0,,0,120,120,135,1,JOODY,C,old,z,./images/JOODY.png,,,,,,,,,,,,,,,,,,,,,,,,,,,,,,,,,,,
,,,,,,,,,,,,,,,,,6112b65a93c2eed74b0416f5,22,2022-02-12_12h48.52.850,lexical_decision_task_DD,2021.2.3,Win32,59.80503558,,,,,,,,,,,0.5017,1,,,,,,,,,,,,,,m,1,0.5017,,,,,,,,0.710625012,-0.310555562,0,0,0,,0,121,121,59,1,BURIAL,LB,old,m,./images/BURIALLB.png,,,,,,,,,,,,,,,,,,,,,,,,,,,,,,,,,,,
,,,,,,,,,,,,,,,,,6112b65a93c2eed74b0416f5,22,2022-02-12_12h48.52.850,lexical_decision_task_DD,2021.2.3,Win32,59.80503558,,,,,,,,,,,0.7336,1,,,,,,,,,,,,,,z,1,0.7336,,,,,,,,0.710625012,-0.310555562,0,0,0,,0,122,122,148,1,JOMS,HB,old,z,./images/JOMSHB.png,,,,,,,,,,,,,,,,,,,,,,,,,,,,,,,,,,,
,,,,,,,,,,,,,,,,,6112b65a93c2eed74b0416f5,22,2022-02-12_12h48.52.850,lexical_decision_task_DD,2021.2.3,Win32,59.80503558,,,,,,,,,,,0.9697,1,,,,,,,,,,,,,,z,1,0.9697,,,,,,,,0.710625012,-0.310555562,0,0,0,,0,123,123,155,1,CANGY,LB,old,z,./images/CANGYLB.png,,,,,,,,,,,,,,,,,,,,,,,,,,,,,,,,,,,
,,,,,,,,,,,,,,,,,6112b65a93c2eed74b0416f5,22,2022-02-12_12h48.52.850,lexical_decision_task_DD,2021.2.3,Win32,59.80503558,,,,,,,,,,,0.7852,1,,,,,,,,,,,,,,z,1,0.7852,,,,,,,,0.710625012,-0.310555562,0,0,0,,0,124,124,103,1,FLORT,HB,old,z,./images/FLORTHB.png,,,,,,,,,,,,,,,,,,,,,,,,,,,,,,,,,,,
,,,,,,,,,,,,,,,,,6112b65a93c2eed74b0416f5,22,2022-02-12_12h48.52.850,lexical_decision_task_DD,2021.2.3,Win32,59.80503558,,,,,,,,,,,0.5231,1,,,,,,,,,,,,,,z,1,0.5231,,,,,,,,0.710625012,-0.310555562,0,0,0,space,0,125,125,107,1,FASKS,LB,old,z,./images/FASKSLB.png,2.3694,,,,,,,,,,,,,,,,,,,,,,,,,,,,,,,,,,
,,,,,,,,,,,,,,,,,6112b65a93c2eed74b0416f5,22,2022-02-12_12h48.52.850,lexical_decision_task_DD,2021.2.3,Win32,59.80503558,,,,,,,,,,,0.5391,1,,,,,,,,,,,,,,m,1,0.5391,,,,,,,,0.710625012,-0.310555562,0,0,0,,0,126,126,12,1,SHORE,C,old,m,./images/SHORE.png,,,,,,,,,,,,,,,,,,,,,,,,,,,,,,,,,,,
,,,,,,,,,,,,,,,,,6112b65a93c2eed74b0416f5,22,2022-02-12_12h48.52.850,lexical_decision_task_DD,2021.2.3,Win32,59.80503558,,,,,,,,,,,0.4456,1,,,,,,,,,,,,,,m,1,0.4456,,,,,,,,0.710625012,-0.310555562,0,0,0,,0,127,127,42,1,FOLDER,C,old,m,./images/FOLDER.png,,,,,,,,,,,,,,,,,,,,,,,,,,,,,,,,,,,
,,,,,,,,,,,,,,,,,6112b65a93c2eed74b0416f5,22,2022-02-12_12h48.52.850,lexical_decision_task_DD,2021.2.3,Win32,59.80503558,,,,,,,,,,,0.565,1,,,,,,,,,,,,,,z,1,0.565,,,,,,,,0.710625012,-0.310555562,0,0,0,,0,128,128,163,1,GAMBA,HB,old,z,./images/GAMBAHB.png,,,,,,,,,,,,,,,,,,,,,,,,,,,,,,,,,,,
,,,,,,,,,,,,,,,,,6112b65a93c2eed74b0416f5,22,2022-02-12_12h48.52.850,lexical_decision_task_DD,2021.2.3,Win32,59.80503558,,,,,,,,,,,0.4507,1,,,,,,,,,,,,,,z,1,0.4507,,,,,,,,0.710625012,-0.310555562,0,0,0,,0,129,129,158,1,EGECT,LB,old,z,./images/EGECTLB.png,,,,,,,,,,,,,,,,,,,,,,,,,,,,,,,,,,,
,,,,,,,,,,,,,,,,,6112b65a93c2eed74b0416f5,22,2022-02-12_12h48.52.850,lexical_decision_task_DD,2021.2.3,Win32,59.80503558,,,,,,,,,,,0.6474,1,,,,,,,,,,,,,,m,1,0.6474,,,,,,,,0.710625012,-0.310555562,0,0,0,,0,130,130,35,1,PEACH,LB,old,m,./images/PEACHLB.png,,,,,,,,,,,,,,,,,,,,,,,,,,,,,,,,,,,
,,,,,,,,,,,,,,,,,6112b65a93c2eed74b0416f5,22,2022-02-12_12h48.52.850,lexical_decision_task_DD,2021.2.3,Win32,59.80503558,,,,,,,,,,,0.6816,1,,,,,,,,,,,,,,m,1,0.6816,,,,,,,,0.710625012,-0.310555562,0,0,0,,0,131,131,10,1,BELLY,HB,old,m,./images/BELLYHB.png,,,,,,,,,,,,,,,,,,,,,,,,,,,,,,,,,,,
,,,,,,,,,,,,,,,,,6112b65a93c2eed74b0416f5,22,2022-02-12_12h48.52.850,lexical_decision_task_DD,2021.2.3,Win32,59.80503558,,,,,,,,,,,0.5256,1,,,,,,,,,,,,,,z,1,0.5256,,,,,,,,0.710625012,-0.310555562,0,0,0,,0,132,132,141,1,PLEET,C,old,z,./images/PLEET.png,,,,,,,,,,,,,,,,,,,,,,,,,,,,,,,,,,,
,,,,,,,,,,,,,,,,,6112b65a93c2eed74b0416f5,22,2022-02-12_12h48.52.850,lexical_decision_task_DD,2021.2.3,Win32,59.80503558,,,,,,,,,,,0.6395,1,,,,,,,,,,,,,,m,1,0.6395,,,,,,,,0.710625012,-0.310555562,0,0,0,,0,133,133,23,1,WALRUS,LB,old,m,./images/WALRUSLB.png,,,,,,,,,,,,,,,,,,,,,,,,,,,,,,,,,,,
,,,,,,,,,,,,,,,,,6112b65a93c2eed74b0416f5,22,2022-02-12_12h48.52.850,lexical_decision_task_DD,2021.2.3,Win32,59.80503558,,,,,,,,,,,0.4869,1,,,,,,,,,,,,,,z,1,0.4869,,,,,,,,0.710625012,-0.310555562,0,0,0,,0,134,134,132,1,SCIFF,C,old,z,./images/SCIFF.png,,,,,,,,,,,,,,,,,,,,,,,,,,,,,,,,,,,
,,,,,,,,,,,,,,,,,6112b65a93c2eed74b0416f5,22,2022-02-12_12h48.52.850,lexical_decision_task_DD,2021.2.3,Win32,59.80503558,,,,,,,,,,,0.4594,1,,,,,,,,,,,,,,z,1,0.4594,,,,,,,,0.710625012,-0.310555562,0,0,0,,0,135,135,144,1,NAIRY,C,old,z,./images/NAIRY.png,,,,,,,,,,,,,,,,,,,,,,,,,,,,,,,,,,,
,,,,,,,,,,,,,,,,,6112b65a93c2eed74b0416f5,22,2022-02-12_12h48.52.850,lexical_decision_task_DD,2021.2.3,Win32,59.80503558,,,,,,,,,,,0.5874,1,,,,,,,,,,,,,,m,1,0.5874,,,,,,,,0.710625012,-0.310555562,0,0,0,,0,136,136,73,1,SNACK,HB,old,m,./images/SNACKHB.png,,,,,,,,,,,,,,,,,,,,,,,,,,,,,,,,,,,
,,,,,,,,,,,,,,,,,6112b65a93c2eed74b0416f5,22,2022-02-12_12h48.52.850,lexical_decision_task_DD,2021.2.3,Win32,59.80503558,,,,,,,,,,,0.5124,1,,,,,,,,,,,,,,m,1,0.5124,,,,,,,,0.710625012,-0.310555562,0,0,0,,0,137,137,81,1,POODLE,C,old,m,./images/POODLE.png,,,,,,,,,,,,,,,,,,,,,,,,,,,,,,,,,,,
,,,,,,,,,,,,,,,,,6112b65a93c2eed74b0416f5,22,2022-02-12_12h48.52.850,lexical_decision_task_DD,2021.2.3,Win32,59.80503558,,,,,,,,,,,0.4676,1,,,,,,,,,,,,,,m,1,0.4676,,,,,,,,0.710625012,-0.310555562,0,0,0,,0,138,138,77,1,COUCH,LB,old,m,./images/COUCHLB.png,,,,,,,,,,,,,,,,,,,,,,,,,,,,,,,,,,,
,,,,,,,,,,,,,,,,,6112b65a93c2eed74b0416f5,22,2022-02-12_12h48.52.850,lexical_decision_task_DD,2021.2.3,Win32,59.80503558,,,,,,,,,,,0.4435,1,,,,,,,,,,,,,,m,1,0.4435,,,,,,,,0.710625012,-0.310555562,0,0,0,,0,139,139,75,1,GRAIN,C,old,m,./images/GRAIN.png,,,,,,,,,,,,,,,,,,,,,,,,,,,,,,,,,,,
,,,,,,,,,,,,,,,,,6112b65a93c2eed74b0416f5,22,2022-02-12_12h48.52.850,lexical_decision_task_DD,2021.2.3,Win32,59.80503558,,,,,,,,,,,0.6448,0,,,,,,,,,,,,,,z,0,0.6448,,,,,,,,0.710625012,-0.310555562,0,0,0,,0,140,140,50,1,MALLET,LB,old,m,./images/MALLETLB.png,,,,,,,,,,,,,,,,,,,,,,,,,,,,,,,,,,,
,,,,,,,,,,,,,,,,,6112b65a93c2eed74b0416f5,22,2022-02-12_12h48.52.850,lexical_decision_task_DD,2021.2.3,Win32,59.80503558,,,,,,,,,,,0.5642,1,,,,,,,,,,,,,,m,1,0.5642,,,,,,,,0.710625012,-0.310555562,0,0,0,,0,141,141,57,1,MOOSE,C,old,m,./images/MOOSE.png,,,,,,,,,,,,,,,,,,,,,,,,,,,,,,,,,,,
,,,,,,,,,,,,,,,,,6112b65a93c2eed74b0416f5,22,2022-02-12_12h48.52.850,lexical_decision_task_DD,2021.2.3,Win32,59.80503558,,,,,,,,,,,0.4571,1,,,,,,,,,,,,,,m,1,0.4571,,,,,,,,0.710625012,-0.310555562,0,0,0,,0,142,142,9,1,RHINO,C,old,m,./images/RHINO.png,,,,,,,,,,,,,,,,,,,,,,,,,,,,,,,,,,,
,,,,,,,,,,,,,,,,,6112b65a93c2eed74b0416f5,22,2022-02-12_12h48.52.850,lexical_decision_task_DD,2021.2.3,Win32,59.80503558,,,,,,,,,,,0.5353,1,,,,,,,,,,,,,,m,1,0.5353,,,,,,,,0.710625012,-0.310555562,0,0,0,,0,143,143,18,1,JAGUAR,C,old,m,./images/JAGUAR.png,,,,,,,,,,,,,,,,,,,,,,,,,,,,,,,,,,,
,,,,,,,,,,,,,,,,,6112b65a93c2eed74b0416f5,22,2022-02-12_12h48.52.850,lexical_decision_task_DD,2021.2.3,Win32,59.80503558,,,,,,,,,,,0.6233,0,,,,,,,,,,,,,,m,0,0.6233,,,,,,,,0.710625012,-0.310555562,0,0,0,,0,144,144,90,1,NEAST,C,old,z,./images/NEAST.png,,,,,,,,,,,,,,,,,,,,,,,,,,,,,,,,,,,
,,,,,,,,,,,,,,,,,6112b65a93c2eed74b0416f5,22,2022-02-12_12h48.52.850,lexical_decision_task_DD,2021.2.3,Win32,59.80503558,,,,,,,,,,,0.5409,1,,,,,,,,,,,,,,m,1,0.5409,,,,,,,,0.710625012,-0.310555562,0,0,0,,0,145,145,27,1,ATTIC,C,old,m,./images/ATTIC.png,,,,,,,,,,,,,,,,,,,,,,,,,,,,,,,,,,,
,,,,,,,,,,,,,,,,,6112b65a93c2eed74b0416f5,22,2022-02-12_12h48.52.850,lexical_decision_task_DD,2021.2.3,Win32,59.80503558,,,,,,,,,,,1.0771,1,,,,,,,,,,,,,,z,1,1.0771,,,,,,,,0.710625012,-0.310555562,0,0,0,,0,146,146,164,1,SGREW,LB,old,z,./images/SGREWLB.png,,,,,,,,,,,,,,,,,,,,,,,,,,,,,,,,,,,
,,,,,,,,,,,,,,,,,6112b65a93c2eed74b0416f5,22,2022-02-12_12h48.52.850,lexical_decision_task_DD,2021.2.3,Win32,59.80503558,,,,,,,,,,,0.6831,1,,,,,,,,,,,,,,z,1,0.6831,,,,,,,,0.710625012,-0.310555562,0,0,0,,0,147,147,111,1,HOSSE,C,old,z,./images/HOSSE.png,,,,,,,,,,,,,,,,,,,,,,,,,,,,,,,,,,,
,,,,,,,,,,,,,,,,,6112b65a93c2eed74b0416f5,22,2022-02-12_12h48.52.850,lexical_decision_task_DD,2021.2.3,Win32,59.80503558,,,,,,,,,,,0.6886,1,,,,,,,,,,,,,,m,1,0.6886,,,,,,,,0.710625012,-0.310555562,0,0,0,,0,148,148,82,1,SUNSET,HB,old,m,./images/SUNSETHB.png,,,,,,,,,,,,,,,,,,,,,,,,,,,,,,,,,,,
,,,,,,,,,,,,,,,,,6112b65a93c2eed74b0416f5,22,2022-02-12_12h48.52.850,lexical_decision_task_DD,2021.2.3,Win32,59.80503558,,,,,,,,,,,0.6842,1,,,,,,,,,,,,,,z,1,0.6842,,,,,,,,0.710625012,-0.310555562,0,0,0,,0,149,149,128,1,GRIFT,LB,old,z,./images/GRIFTLB.png,,,,,,,,,,,,,,,,,,,,,,,,,,,,,,,,,,,
,,,,,,,,,,,,,,,,,6112b65a93c2eed74b0416f5,22,2022-02-12_12h48.52.850,lexical_decision_task_DD,2021.2.3,Win32,59.80503558,,,,,,,,,,,0.9482,1,,,,,,,,,,,,,,z,1,0.9482,,,,,,,,0.710625012,-0.310555562,0,0,0,,0,150,150,156,1,HIXES,C,old,z,./images/HIXES.png,,,,,,,,,,,,,,,,,,,,,,,,,,,,,,,,,,,
,,,,,,,,,,,,,,,,,6112b65a93c2eed74b0416f5,22,2022-02-12_12h48.52.850,lexical_decision_task_DD,2021.2.3,Win32,59.80503558,,,,,,,,,,,0.6711,1,,,,,,,,,,,,,,z,1,0.6711,,,,,,,,0.710625012,-0.310555562,0,0,0,,0,151,151,126,1,GUELS,C,old,z,./images/GUELS.png,,,,,,,,,,,,,,,,,,,,,,,,,,,,,,,,,,,
,,,,,,,,,,,,,,,,,6112b65a93c2eed74b0416f5,22,2022-02-12_12h48.52.850,lexical_decision_task_DD,2021.2.3,Win32,59.80503558,,,,,,,,,,,0.4635,1,,,,,,,,,,,,,,z,1,0.4635,,,,,,,,0.710625012,-0.310555562,0,0,0,,0,152,152,102,1,DULLE,C,old,z,./images/DULLE.png,,,,,,,,,,,,,,,,,,,,,,,,,,,,,,,,,,,
,,,,,,,,,,,,,,,,,6112b65a93c2eed74b0416f5,22,2022-02-12_12h48.52.850,lexical_decision_task_DD,2021.2.3,Win32,59.80503558,,,,,,,,,,,0.584,1,,,,,,,,,,,,,,m,1,0.584,,,,,,,,0.710625012,-0.310555562,0,0,0,,0,153,153,1,1,PLANK,HB,old,m,./images/PLANKHB.png,,,,,,,,,,,,,,,,,,,,,,,,,,,,,,,,,,,
,,,,,,,,,,,,,,,,,6112b65a93c2eed74b0416f5,22,2022-02-12_12h48.52.850,lexical_decision_task_DD,2021.2.3,Win32,59.80503558,,,,,,,,,,,0.5446,1,,,,,,,,,,,,,,m,1,0.5446,,,,,,,,0.710625012,-0.310555562,0,0,0,,0,154,154,26,1,SMOKER,LB,old,m,./images/SMOKERLB.png,,,,,,,,,,,,,,,,,,,,,,,,,,,,,,,,,,,
,,,,,,,,,,,,,,,,,6112b65a93c2eed74b0416f5,22,2022-02-12_12h48.52.850,lexical_decision_task_DD,2021.2.3,Win32,59.80503558,,,,,,,,,,,0.4998,1,,,,,,,,,,,,,,m,1,0.4998,,,,,,,,0.710625012,-0.310555562,0,0,0,,0,155,155,15,1,GREASE,C,old,m,./images/GREASE.png,,,,,,,,,,,,,,,,,,,,,,,,,,,,,,,,,,,
,,,,,,,,,,,,,,,,,6112b65a93c2eed74b0416f5,22,2022-02-12_12h48.52.850,lexical_decision_task_DD,2021.2.3,Win32,59.80503558,,,,,,,,,,,0.599,1,,,,,,,,,,,,,,m,1,0.599,,,,,,,,0.710625012,-0.310555562,0,0,0,,0,156,156,22,1,MELON,HB,old,m,./images/MELONHB.png,,,,,,,,,,,,,,,,,,,,,,,,,,,,,,,,,,,
,,,,,,,,,,,,,,,,,6112b65a93c2eed74b0416f5,22,2022-02-12_12h48.52.850,lexical_decision_task_DD,2021.2.3,Win32,59.80503558,,,,,,,,,,,0.6016,1,,,,,,,,,,,,,,z,1,0.6016,,,,,,,,0.710625012,-0.310555562,0,0,0,,0,157,157,123,1,SEDGE,C,old,z,./images/SEDGE.png,,,,,,,,,,,,,,,,,,,,,,,,,,,,,,,,,,,
,,,,,,,,,,,,,,,,,6112b65a93c2eed74b0416f5,22,2022-02-12_12h48.52.850,lexical_decision_task_DD,2021.2.3,Win32,59.80503558,,,,,,,,,,,0.7993,1,,,,,,,,,,,,,,m,1,0.7993,,,,,,,,0.710625012,-0.310555562,0,0,0,,0,158,158,24,1,SCREW,C,old,m,./images/SCREW.png,,,,,,,,,,,,,,,,,,,,,,,,,,,,,,,,,,,
,,,,,,,,,,,,,,,,,6112b65a93c2eed74b0416f5,22,2022-02-12_12h48.52.850,lexical_decision_task_DD,2021.2.3,Win32,59.80503558,,,,,,,,,,,0.4403,1,,,,,,,,,,,,,,m,1,0.4403,,,,,,,,0.710625012,-0.310555562,0,0,0,,0,159,159,62,1,PURSE,LB,old,m,./images/PURSELB.png,,,,,,,,,,,,,,,,,,,,,,,,,,,,,,,,,,,
,,,,,,,,,,,,,,,,,6112b65a93c2eed74b0416f5,22,2022-02-12_12h48.52.850,lexical_decision_task_DD,2021.2.3,Win32,59.80503558,,,,,,,,,,,0.4818,1,,,,,,,,,,,,,,m,1,0.4818,,,,,,,,0.710625012,-0.310555562,0,0,0,,0,160,160,33,1,MAGGOT,C,old,m,./images/MAGGOT.png,,,,,,,,,,,,,,,,,,,,,,,,,,,,,,,,,,,
,,,,,,,,,,,,,,,,,6112b65a93c2eed74b0416f5,22,2022-02-12_12h48.52.850,lexical_decision_task_DD,2021.2.3,Win32,59.80503558,,,,,,,,,,,0.818,1,,,,,,,,,,,,,,z,1,0.818,,,,,,,,0.710625012,-0.310555562,0,0,0,,0,161,161,99,1,BACKY,C,old,z,./images/BACKY.png,,,,,,,,,,,,,,,,,,,,,,,,,,,,,,,,,,,
,,,,,,,,,,,,,,,,,6112b65a93c2eed74b0416f5,22,2022-02-12_12h48.52.850,lexical_decision_task_DD,2021.2.3,Win32,59.80503558,,,,,,,,,,,0.8842,1,,,,,,,,,,,,,,z,1,0.8842,,,,,,,,0.710625012,-0.310555562,0,0,0,,0,162,162,97,1,CHIDS,HB,old,z,./images/CHIDSHB.png,,,,,,,,,,,,,,,,,,,,,,,,,,,,,,,,,,,
,,,,,,,,,,,,,,,,,6112b65a93c2eed74b0416f5,22,2022-02-12_12h48.52.850,lexical_decision_task_DD,2021.2.3,Win32,59.80503558,,,,,,,,,,,0.5173,1,,,,,,,,,,,,,,m,1,0.5173,,,,,,,,0.710625012,-0.310555562,0,0,0,,0,163,163,5,1,PASTA,LB,old,m,./images/PASTALB.png,,,,,,,,,,,,,,,,,,,,,,,,,,,,,,,,,,,
,,,,,,,,,,,,,,,,,6112b65a93c2eed74b0416f5,22,2022-02-12_12h48.52.850,lexical_decision_task_DD,2021.2.3,Win32,59.80503558,,,,,,,,,,,0.5,1,,,,,,,,,,,,,,m,1,0.5,,,,,,,,0.710625012,-0.310555562,0,0,0,,0,164,164,0,1,TOMATO,C,old,m,./images/TOMATO.png,,,,,,,,,,,,,,,,,,,,,,,,,,,,,,,,,,,
,,,,,,,,,,,,,,,,,6112b65a93c2eed74b0416f5,22,2022-02-12_12h48.52.850,lexical_decision_task_DD,2021.2.3,Win32,59.80503558,,,,,,,,,,,0.5795,1,,,,,,,,,,,,,,z,1,0.5795,,,,,,,,0.710625012,-0.310555562,0,0,0,,0,165,165,86,1,AIFED,LB,old,z,./images/AIFEDLB.png,,,,,,,,,,,,,,,,,,,,,,,,,,,,,,,,,,,
,,,,,,,,,,,,,,,,,6112b65a93c2eed74b0416f5,22,2022-02-12_12h48.52.850,lexical_decision_task_DD,2021.2.3,Win32,59.80503558,,,,,,,,,,,0.5588,1,,,,,,,,,,,,,,m,1,0.5588,,,,,,,,0.710625012,-0.310555562,0,0,0,,0,166,166,30,1,STORM,C,old,m,./images/STORM.png,,,,,,,,,,,,,,,,,,,,,,,,,,,,,,,,,,,
,,,,,,,,,,,,,,,,,6112b65a93c2eed74b0416f5,22,2022-02-12_12h48.52.850,lexical_decision_task_DD,2021.2.3,Win32,59.80503558,,,,,,,,,,,0.537,1,,,,,,,,,,,,,,m,1,0.537,,,,,,,,0.710625012,-0.310555562,0,0,0,,0,167,167,41,1,STRING,LB,old,m,./images/STRINGLB.png,,,,,,,,,,,,,,,,,,,,,,,,,,,,,,,,,,,
,,,,,,,,,,,,,,,,,6112b65a93c2eed74b0416f5,22,2022-02-12_12h48.52.850,lexical_decision_task_DD,2021.2.3,Win32,59.80503558,,,,,,,,,,,,,,,,,,,,,,,,,,,,,,,,,,,,,,,,,,,,,,,,How likely will it be that you will recognize the words presented clearly on a scale of 0 (not likely) to 100 (most likely)?,,,,,0.00895834,-0.397777784,1,0,0,jol_adv,4,9.0453,0,0,0,0,1,,,,,,,,,,,,,,,,,,,,,
,,,,,,,,,,,,,,,,,6112b65a93c2eed74b0416f5,22,2022-02-12_12h48.52.850,lexical_decision_task_DD,2021.2.3,Win32,59.80503558,,,,,,,,,,,,,,,,,,,,,,,,,,,,,,,,,,,,,,,,,,,,,,,,How likely will it be that you will recognize the words presented very blurred on a scale of 0 (not likely) to 100 (most likely)?,,,,,,,,,,,4,7.9003,0,1,1,2,1,,,,,,,,,,,,,,,,,,,,,
,,,,,,,,,,,,,,,,,6112b65a93c2eed74b0416f5,22,2022-02-12_12h48.52.850,lexical_decision_task_DD,2021.2.3,Win32,59.80503558,,,,,,,,,,,,,,,,,,,,,,,,,,,,,,,,,,,,,,,,,,,,,,,,How likely will it be that you will recognize the words presented slighly blurred on a scale of 0 (not likely) to 100 (most likely)?,,,,,,,,,,,4,0.447,0,2,2,1,1,,,,,,,,,,,,,,,,,,,,,
,,0.122291674,-0.404444451,1,0,0,,,,,,1,test,"In the next phase you will be presented with the words from the the first phase. Your job is to decide whether you remember seeing the word or not. If you remember seeing the word press ""old"" or type ""m"". If you do not remember seeing the word press ""new"" or type ""z"". Please press the space bar or click on continue to begin. ",,,6112b65a93c2eed74b0416f5,22,2022-02-12_12h48.52.850,lexical_decision_task_DD,2021.2.3,Win32,59.80503558,,,,,,,,,,,,,,,,,,,,,,,,,,,,,,,,,,,,,,,,,,,,,,,,,,,,,,,,,,,,,,,,,,instr_done_button,0,0,0,0,1,,,,,,,,,,,,,,,
space,6.2112,0.632291678,-0.276111117,0,0,0,,,,,,1,test,"In the next phase you will be presented with the words from the the first phase. Your job is to decide whether you remember seeing the word or not. If you remember seeing the word press ""old"" or type ""m"". If you do not remember seeing the word press ""new"" or type ""z"". Please press the space bar or click on continue to begin. ",,,6112b65a93c2eed74b0416f5,22,2022-02-12_12h48.52.850,lexical_decision_task_DD,2021.2.3,Win32,59.80503558,,,,,,,,,,,,,,,,,,,,,,,,,,,,,,,,,,,,,,,,,,,,,,,,,,,,,,,,,,,,,,,,,,,1,0,1,0,1,,,,,,,,,,,,,,,
,,0.016736118,-0.375000007,1,0,0,,,,,,1,test,"In the next phase you will be presented with the words from the the first phase. Your job is to decide whether you remember seeing the word or not. If you remember seeing the word press ""old"" or type ""m"". If you do not remember seeing the word press ""new"" or type ""z"". Please press the space bar or click on continue to begin. ",,,6112b65a93c2eed74b0416f5,22,2022-02-12_12h48.52.850,lexical_decision_task_DD,2021.2.3,Win32,59.80503558,,,,,,,,,,,,,,,,,,,,,,,,,,,,,,,,,,,,,,,,,,,,,,,,,,,,,,,,,,,,,,,,,,instr_done_button,2,0,2,0,1,,,,,,,,,,,,,,,
space,3.7827,0.695069456,-0.303333339,0,0,0,,,,,,1,test,"In the next phase you will be presented with the words from the the first phase. Your job is to decide whether you remember seeing the word or not. If you remember seeing the word press ""old"" or type ""m"". If you do not remember seeing the word press ""new"" or type ""z"". Please press the space bar or click on continue to begin. ",,,6112b65a93c2eed74b0416f5,22,2022-02-12_12h48.52.850,lexical_decision_task_DD,2021.2.3,Win32,59.80503558,,,,,,,,,,,,,,,,,,,,,,,,,,,,,,,,,,,,,,,,,,,,,,,,,,,,,,,,,,,,,,,,,,,3,0,3,0,1,,,,,,,,,,,,,,,
space,2.3034,0.695069456,-0.303333339,0,0,0,,,,,,1,test,"In the next phase you will be presented with the words from the the first phase. Your job is to decide whether you remember seeing the word or not. If you remember seeing the word press ""old"" or type ""m"". If you do not remember seeing the word press ""new"" or type ""z"". Please press the space bar or click on continue to begin. ",,,6112b65a93c2eed74b0416f5,22,2022-02-12_12h48.52.850,lexical_decision_task_DD,2021.2.3,Win32,59.80503558,,,,,,,,,,,,,,,,,,,,,,,,,,,,,,,,,,,,,,,,,,,,,,,,,,,,,,,,,,,,,,,,,,,4,0,4,0,1,,,,,,,,,,,,,,,
,,,,,,,,,,,,,,,,,6112b65a93c2eed74b0416f5,22,2022-02-12_12h48.52.850,lexical_decision_task_DD,2021.2.3,Win32,59.80503558,,,,,,,,,,,1.174,0,,,,,,,,,,,,,,,,,,,,,,,,0.695069456,-0.303333339,0,0,0,,,,,,,ONION,C,m,m,./images/ONION.png,,,,,,,,,,,,,,,,,,,,,z,0,1.174,,,,,,,,0,0,0,51,1
,,,,,,,,,,,,,,,,,6112b65a93c2eed74b0416f5,22,2022-02-12_12h48.52.850,lexical_decision_task_DD,2021.2.3,Win32,59.80503558,,,,,,,,,,,0.5765,1,,,,,,,,,,,,,,,,,,,,,,,,0.695069456,-0.303333339,0,0,0,,,,,,,LADDER,LB,m,m,./images/LADDERLB.png,,,,,,,,,,,,,,,,,,,,,m,1,0.5765,,,,,,,,0,1,1,38,1
,,,,,,,,,,,,,,,,,6112b65a93c2eed74b0416f5,22,2022-02-12_12h48.52.850,lexical_decision_task_DD,2021.2.3,Win32,59.80503558,,,,,,,,,,,1.1626,1,,,,,,,,,,,,,,,,,,,,,,,,0.695069456,-0.303333339,0,0,0,,,,,,,CRATER,C,z,m,./images/CRATER.png,,,,,,,,,,,,,,,,,,,,,z,1,1.1626,,,,,,,,0,2,2,87,1
,,,,,,,,,,,,,,,,,6112b65a93c2eed74b0416f5,22,2022-02-12_12h48.52.850,lexical_decision_task_DD,2021.2.3,Win32,59.80503558,,,,,,,,,,,0.6846,1,,,,,,,,,,,,,,,,,,,,,,,,0.695069456,-0.303333339,0,0,0,,,,,,,TIGER,HB,z,m,./images/TIGERHB.png,,,,,,,,,,,,,,,,,,,,,z,1,0.6846,,,,,,,,0,3,3,121,1
,,,,,,,,,,,,,,,,,6112b65a93c2eed74b0416f5,22,2022-02-12_12h48.52.850,lexical_decision_task_DD,2021.2.3,Win32,59.80503558,,,,,,,,,,,0.5515,1,,,,,,,,,,,,,,,,,,,,,,,,0.695069456,-0.303333339,0,0,0,,,,,,,SMOKER,LB,m,m,./images/SMOKERLB.png,,,,,,,,,,,,,,,,,,,,,m,1,0.5515,,,,,,,,0,4,4,26,1
,,,,,,,,,,,,,,,,,6112b65a93c2eed74b0416f5,22,2022-02-12_12h48.52.850,lexical_decision_task_DD,2021.2.3,Win32,59.80503558,,,,,,,,,,,0.8365,1,,,,,,,,,,,,,,,,,,,,,,,,0.695069456,-0.303333339,0,0,0,,,,,,,QUILL,HB,m,m,./images/QUILLHB.png,,,,,,,,,,,,,,,,,,,,,m,1,0.8365,,,,,,,,0,5,5,31,1
,,,,,,,,,,,,,,,,,6112b65a93c2eed74b0416f5,22,2022-02-12_12h48.52.850,lexical_decision_task_DD,2021.2.3,Win32,59.80503558,,,,,,,,,,,0.9513,1,,,,,,,,,,,,,,,,,,,,,,,,0.695069456,-0.303333339,0,0,0,,,,,,,PARADE,LB,z,m,./images/PARADELB.png,,,,,,,,,,,,,,,,,,,,,z,1,0.9513,,,,,,,,0,6,6,101,1
,,,,,,,,,,,,,,,,,6112b65a93c2eed74b0416f5,22,2022-02-12_12h48.52.850,lexical_decision_task_DD,2021.2.3,Win32,59.80503558,,,,,,,,,,,0.5864,1,,,,,,,,,,,,,,,,,,,,,,,,0.695069456,-0.303333339,0,0,0,,,,,,,SQUARE,C,m,m,./images/SQUARE.png,,,,,,,,,,,,,,,,,,,,,m,1,0.5864,,,,,,,,0,7,7,6,1
,,,,,,,,,,,,,,,,,6112b65a93c2eed74b0416f5,22,2022-02-12_12h48.52.850,lexical_decision_task_DD,2021.2.3,Win32,59.80503558,,,,,,,,,,,0.6347,0,,,,,,,,,,,,,,,,,,,,,,,,0.695069456,-0.303333339,0,0,0,,,,,,,RAZOR,HB,z,m,./images/RAZORHB.png,,,,,,,,,,,,,,,,,,,,,m,0,0.6347,,,,,,,,0,8,8,118,1
,,,,,,,,,,,,,,,,,6112b65a93c2eed74b0416f5,22,2022-02-12_12h48.52.850,lexical_decision_task_DD,2021.2.3,Win32,59.80503558,,,,,,,,,,,0.588,1,,,,,,,,,,,,,,,,,,,,,,,,0.695069456,-0.303333339,0,0,0,,,,,,,BERRY,LB,m,m,./images/BERRYLB.png,,,,,,,,,,,,,,,,,,,,,m,1,0.588,,,,,,,,0,9,9,47,1
,,,,,,,,,,,,,,,,,6112b65a93c2eed74b0416f5,22,2022-02-12_12h48.52.850,lexical_decision_task_DD,2021.2.3,Win32,59.80503558,,,,,,,,,,,0.6011,0,,,,,,,,,,,,,,,,,,,,,,,,0.695069456,-0.303333339,0,0,0,,,,,,,PILOT,LB,z,m,./images/PILOTLB.png,,,,,,,,,,,,,,,,,,,,,m,0,0.6011,,,,,,,,0,10,10,134,1
,,,,,,,,,,,,,,,,,6112b65a93c2eed74b0416f5,22,2022-02-12_12h48.52.850,lexical_decision_task_DD,2021.2.3,Win32,59.80503558,,,,,,,,,,,0.6198,1,,,,,,,,,,,,,,,,,,,,,,,,0.695069456,-0.303333339,0,0,0,,,,,,,BURIAL,LB,m,m,./images/BURIALLB.png,,,,,,,,,,,,,,,,,,,,,m,1,0.6198,,,,,,,,0,11,11,59,1
,,,,,,,,,,,,,,,,,6112b65a93c2eed74b0416f5,22,2022-02-12_12h48.52.850,lexical_decision_task_DD,2021.2.3,Win32,59.80503558,,,,,,,,,,,0.8254,0,,,,,,,,,,,,,,,,,,,,,,,,0.695069456,-0.303333339,0,0,0,,,,,,,DOUGH,HB,m,m,./images/DOUGHHB.png,,,,,,,,,,,,,,,,,,,,,z,0,0.8254,,,,,,,,0,12,12,19,1
,,,,,,,,,,,,,,,,,6112b65a93c2eed74b0416f5,22,2022-02-12_12h48.52.850,lexical_decision_task_DD,2021.2.3,Win32,59.80503558,,,,,,,,,,,0.7928,1,,,,,,,,,,,,,,,,,,,,,,,,0.695069456,-0.303333339,0,0,0,,,,,,,WHEEL,LB,z,m,./images/WHEELLB.png,,,,,,,,,,,,,,,,,,,,,z,1,0.7928,,,,,,,,0,13,13,161,1
,,,,,,,,,,,,,,,,,6112b65a93c2eed74b0416f5,22,2022-02-12_12h48.52.850,lexical_decision_task_DD,2021.2.3,Win32,59.80503558,,,,,,,,,,,0.7353,1,,,,,,,,,,,,,,,,,,,,,,,,0.695069456,-0.303333339,0,0,0,,,,,,,SAUCE,C,z,m,./images/SAUCE.png,,,,,,,,,,,,,,,,,,,,,z,1,0.7353,,,,,,,,0,14,14,135,1
,,,,,,,,,,,,,,,,,6112b65a93c2eed74b0416f5,22,2022-02-12_12h48.52.850,lexical_decision_task_DD,2021.2.3,Win32,59.80503558,,,,,,,,,,,0.6842,1,,,,,,,,,,,,,,,,,,,,,,,,0.695069456,-0.303333339,0,0,0,,,,,,,COUCH,LB,m,m,./images/COUCHLB.png,,,,,,,,,,,,,,,,,,,,,m,1,0.6842,,,,,,,,0,15,15,77,1
,,,,,,,,,,,,,,,,,6112b65a93c2eed74b0416f5,22,2022-02-12_12h48.52.850,lexical_decision_task_DD,2021.2.3,Win32,59.80503558,,,,,,,,,,,0.9639,1,,,,,,,,,,,,,,,,,,,,,,,,0.695069456,-0.303333339,0,0,0,,,,,,,CLOTH,LB,z,m,./images/CLOTHLB.png,,,,,,,,,,,,,,,,,,,,,z,1,0.9639,,,,,,,,0,16,16,107,1
,,,,,,,,,,,,,,,,,6112b65a93c2eed74b0416f5,22,2022-02-12_12h48.52.850,lexical_decision_task_DD,2021.2.3,Win32,59.80503558,,,,,,,,,,,0.9812,0,,,,,,,,,,,,,,,,,,,,,,,,0.695069456,-0.303333339,0,0,0,,,,,,,DESERT,HB,z,m,./images/DESERTHB.png,,,,,,,,,,,,,,,,,,,,,m,0,0.9812,,,,,,,,0,17,17,136,1
,,,,,,,,,,,,,,,,,6112b65a93c2eed74b0416f5,22,2022-02-12_12h48.52.850,lexical_decision_task_DD,2021.2.3,Win32,59.80503558,,,,,,,,,,,0.5959,1,,,,,,,,,,,,,,,,,,,,,,,,0.695069456,-0.303333339,0,0,0,,,,,,,STORM,C,m,m,./images/STORM.png,,,,,,,,,,,,,,,,,,,,,m,1,0.5959,,,,,,,,0,18,18,30,1
,,,,,,,,,,,,,,,,,6112b65a93c2eed74b0416f5,22,2022-02-12_12h48.52.850,lexical_decision_task_DD,2021.2.3,Win32,59.80503558,,,,,,,,,,,0.864,0,,,,,,,,,,,,,,,,,,,,,,,,0.695069456,-0.303333339,0,0,0,,,,,,,CLOWN,HB,z,m,./images/CLOWNHB.png,,,,,,,,,,,,,,,,,,,,,m,0,0.864,,,,,,,,0,19,19,106,1
,,,,,,,,,,,,,,,,,6112b65a93c2eed74b0416f5,22,2022-02-12_12h48.52.850,lexical_decision_task_DD,2021.2.3,Win32,59.80503558,,,,,,,,,,,0.5625,1,,,,,,,,,,,,,,,,,,,,,,,,0.695069456,-0.303333339,0,0,0,,,,,,,PICKLE,LB,m,m,./images/PICKLELB.png,,,,,,,,,,,,,,,,,,,,,m,1,0.5625,,,,,,,,0,20,20,14,1
,,,,,,,,,,,,,,,,,6112b65a93c2eed74b0416f5,22,2022-02-12_12h48.52.850,lexical_decision_task_DD,2021.2.3,Win32,59.80503558,,,,,,,,,,,0.5625,1,,,,,,,,,,,,,,,,,,,,,,,,0.695069456,-0.303333339,0,0,0,,,,,,,DRUMS,HB,m,m,./images/DRUMSHB.png,,,,,,,,,,,,,,,,,,,,,m,1,0.5625,,,,,,,,0,21,21,49,1
,,,,,,,,,,,,,,,,,6112b65a93c2eed74b0416f5,22,2022-02-12_12h48.52.850,lexical_decision_task_DD,2021.2.3,Win32,59.80503558,,,,,,,,,,,1.3467,0,,,,,,,,,,,,,,,,,,,,,,,,0.695069456,-0.303333339,0,0,0,,,,,,,TORCH,LB,m,m,./images/TORCHLB.png,,,,,,,,,,,,,,,,,,,,,z,0,1.3467,,,,,,,,0,22,22,68,1
,,,,,,,,,,,,,,,,,6112b65a93c2eed74b0416f5,22,2022-02-12_12h48.52.850,lexical_decision_task_DD,2021.2.3,Win32,59.80503558,,,,,,,,,,,0.8616,1,,,,,,,,,,,,,,,,,,,,,,,,0.695069456,-0.303333339,0,0,0,,,,,,,CLIFF,LB,z,m,./images/CLIFFLB.png,,,,,,,,,,,,,,,,,,,,,z,1,0.8616,,,,,,,,0,23,23,92,1
,,,,,,,,,,,,,,,,,6112b65a93c2eed74b0416f5,22,2022-02-12_12h48.52.850,lexical_decision_task_DD,2021.2.3,Win32,59.80503558,,,,,,,,,,,0.8364,0,,,,,,,,,,,,,,,,,,,,,,,,0.695069456,-0.303333339,0,0,0,,,,,,,BAKER,C,z,m,./images/BAKER.png,,,,,,,,,,,,,,,,,,,,,m,0,0.8364,,,,,,,,0,24,24,147,1
,,,,,,,,,,,,,,,,,6112b65a93c2eed74b0416f5,22,2022-02-12_12h48.52.850,lexical_decision_task_DD,2021.2.3,Win32,59.80503558,,,,,,,,,,,0.6681,1,,,,,,,,,,,,,,,,,,,,,,,,0.695069456,-0.303333339,0,0,0,,,,,,,MOTOR,HB,m,m,./images/MOTORHB.png,,,,,,,,,,,,,,,,,,,,,m,1,0.6681,,,,,,,,0,25,25,13,1
,,,,,,,,,,,,,,,,,6112b65a93c2eed74b0416f5,22,2022-02-12_12h48.52.850,lexical_decision_task_DD,2021.2.3,Win32,59.80503558,,,,,,,,,,,0.5856,1,,,,,,,,,,,,,,,,,,,,,,,,0.695069456,-0.303333339,0,0,0,,,,,,,LIZARD,LB,m,m,./images/LIZARDLB.png,,,,,,,,,,,,,,,,,,,,,m,1,0.5856,,,,,,,,0,26,26,44,1
,,,,,,,,,,,,,,,,,6112b65a93c2eed74b0416f5,22,2022-02-12_12h48.52.850,lexical_decision_task_DD,2021.2.3,Win32,59.80503558,,,,,,,,,,,0.7857,1,,,,,,,,,,,,,,,,,,,,,,,,0.695069456,-0.303333339,0,0,0,,,,,,,CASINO,HB,z,m,./images/CASINOHB.png,,,,,,,,,,,,,,,,,,,,,z,1,0.7857,,,,,,,,0,27,27,112,1
,,,,,,,,,,,,,,,,,6112b65a93c2eed74b0416f5,22,2022-02-12_12h48.52.850,lexical_decision_task_DD,2021.2.3,Win32,59.80503558,,,,,,,,,,,0.7681,1,,,,,,,,,,,,,,,,,,,,,,,,0.695069456,-0.303333339,0,0,0,,,,,,,BLOKE,C,z,m,./images/BLOKE.png,,,,,,,,,,,,,,,,,,,,,z,1,0.7681,,,,,,,,0,28,28,96,1
,,,,,,,,,,,,,,,,,6112b65a93c2eed74b0416f5,22,2022-02-12_12h48.52.850,lexical_decision_task_DD,2021.2.3,Win32,59.80503558,,,,,,,,,,,0.8539,0,,,,,,,,,,,,,,,,,,,,,,,,0.695069456,-0.303333339,0,0,0,,,,,,,POKER,HB,z,m,./images/POKERHB.png,,,,,,,,,,,,,,,,,,,,,m,0,0.8539,,,,,,,,0,29,29,151,1
,,,,,,,,,,,,,,,,,6112b65a93c2eed74b0416f5,22,2022-02-12_12h48.52.850,lexical_decision_task_DD,2021.2.3,Win32,59.80503558,,,,,,,,,,,0.5512,0,,,,,,,,,,,,,,,,,,,,,,,,0.695069456,-0.303333339,0,0,0,,,,,,,SLOPE,C,z,m,./images/SLOPE.png,,,,,,,,,,,,,,,,,,,,,m,0,0.5512,,,,,,,,0,30,30,114,1
,,,,,,,,,,,,,,,,,6112b65a93c2eed74b0416f5,22,2022-02-12_12h48.52.850,lexical_decision_task_DD,2021.2.3,Win32,59.80503558,,,,,,,,,,,0.6578,0,,,,,,,,,,,,,,,,,,,,,,,,0.695069456,-0.303333339,0,0,0,,,,,,,KITTEN,C,m,m,./images/KITTEN.png,,,,,,,,,,,,,,,,,,,,,z,0,0.6578,,,,,,,,0,31,31,45,1
,,,,,,,,,,,,,,,,,6112b65a93c2eed74b0416f5,22,2022-02-12_12h48.52.850,lexical_decision_task_DD,2021.2.3,Win32,59.80503558,,,,,,,,,,,0.6513,1,,,,,,,,,,,,,,,,,,,,,,,,0.695069456,-0.303333339,0,0,0,,,,,,,PENCE,HB,m,m,./images/PENCEHB.png,,,,,,,,,,,,,,,,,,,,,m,1,0.6513,,,,,,,,0,32,32,16,1
,,,,,,,,,,,,,,,,,6112b65a93c2eed74b0416f5,22,2022-02-12_12h48.52.850,lexical_decision_task_DD,2021.2.3,Win32,59.80503558,,,,,,,,,,,0.7639,0,,,,,,,,,,,,,,,,,,,,,,,,0.695069456,-0.303333339,0,0,0,,,,,,,JELLY,HB,m,m,./images/JELLYHB.png,,,,,,,,,,,,,,,,,,,,,z,0,0.7639,,,,,,,,0,33,33,64,1
,,,,,,,,,,,,,,,,,6112b65a93c2eed74b0416f5,22,2022-02-12_12h48.52.850,lexical_decision_task_DD,2021.2.3,Win32,59.80503558,,,,,,,,,,,0.8092,1,,,,,,,,,,,,,,,,,,,,,,,,0.695069456,-0.303333339,0,0,0,,,,,,,BUNNY,HB,z,m,./images/BUNNYHB.png,,,,,,,,,,,,,,,,,,,,,z,1,0.8092,,,,,,,,0,34,34,97,1
,,,,,,,,,,,,,,,,,6112b65a93c2eed74b0416f5,22,2022-02-12_12h48.52.850,lexical_decision_task_DD,2021.2.3,Win32,59.80503558,,,,,,,,,,,0.61,1,,,,,,,,,,,,,,,,,,,,,,,,0.695069456,-0.303333339,0,0,0,,,,,,,CRUST,HB,m,m,./images/CRUSTHB.png,,,,,,,,,,,,,,,,,,,,,m,1,0.61,,,,,,,,0,35,35,79,1
,,,,,,,,,,,,,,,,,6112b65a93c2eed74b0416f5,22,2022-02-12_12h48.52.850,lexical_decision_task_DD,2021.2.3,Win32,59.80503558,,,,,,,,,,,0.7345,1,,,,,,,,,,,,,,,,,,,,,,,,0.695069456,-0.303333339,0,0,0,,,,,,,SNAKE,HB,z,m,./images/SNAKEHB.png,,,,,,,,,,,,,,,,,,,,,z,1,0.7345,,,,,,,,0,36,36,124,1
,,,,,,,,,,,,,,,,,6112b65a93c2eed74b0416f5,22,2022-02-12_12h48.52.850,lexical_decision_task_DD,2021.2.3,Win32,59.80503558,,,,,,,,,,,0.5314,0,,,,,,,,,,,,,,,,,,,,,,,,0.695069456,-0.303333339,0,0,0,,,,,,,CLOUD,LB,z,m,./images/CLOUDLB.png,,,,,,,,,,,,,,,,,,,,,m,0,0.5314,,,,,,,,0,37,37,110,1
,,,,,,,,,,,,,,,,,6112b65a93c2eed74b0416f5,22,2022-02-12_12h48.52.850,lexical_decision_task_DD,2021.2.3,Win32,59.80503558,,,,,,,,,,,0.9651,0,,,,,,,,,,,,,,,,,,,,,,,,0.695069456,-0.303333339,0,0,0,,,,,,,CANDLE,HB,m,m,./images/CANDLEHB.png,,,,,,,,,,,,,,,,,,,,,z,0,0.9651,,,,,,,,0,38,38,61,1
,,,,,,,,,,,,,,,,,6112b65a93c2eed74b0416f5,22,2022-02-12_12h48.52.850,lexical_decision_task_DD,2021.2.3,Win32,59.80503558,,,,,,,,,,,0.7436,1,,,,,,,,,,,,,,,,,,,,,,,,0.695069456,-0.303333339,0,0,0,,,,,,,FARMER,LB,m,m,./images/FARMERLB.png,,,,,,,,,,,,,,,,,,,,,m,1,0.7436,,,,,,,,0,39,39,65,1
,,,,,,,,,,,,,,,,,6112b65a93c2eed74b0416f5,22,2022-02-12_12h48.52.850,lexical_decision_task_DD,2021.2.3,Win32,59.80503558,,,,,,,,,,,0.851,0,,,,,,,,,,,,,,,,,,,,,,,,0.695069456,-0.303333339,0,0,0,,,,,,,DANCER,C,z,m,./images/DANCER.png,,,,,,,,,,,,,,,,,,,,,m,0,0.851,,,,,,,,0,40,40,105,1
,,,,,,,,,,,,,,,,,6112b65a93c2eed74b0416f5,22,2022-02-12_12h48.52.850,lexical_decision_task_DD,2021.2.3,Win32,59.80503558,,,,,,,,,,,0.5933,0,,,,,,,,,,,,,,,,,,,,,,,,0.695069456,-0.303333339,0,0,0,space,,,,,,MEDAL,LB,z,m,./images/MEDALLB.png,1.6934,,,,,,,,,,,,,,,,,,,,m,0,0.5933,,,,,,,,0,41,41,95,1
,,,,,,,,,,,,,,,,,6112b65a93c2eed74b0416f5,22,2022-02-12_12h48.52.850,lexical_decision_task_DD,2021.2.3,Win32,59.80503558,,,,,,,,,,,0.5683,1,,,,,,,,,,,,,,,,,,,,,,,,0.695069456,-0.303333339,0,0,0,,,,,,,PURSE,LB,m,m,./images/PURSELB.png,,,,,,,,,,,,,,,,,,,,,m,1,0.5683,,,,,,,,0,42,42,62,1
,,,,,,,,,,,,,,,,,6112b65a93c2eed74b0416f5,22,2022-02-12_12h48.52.850,lexical_decision_task_DD,2021.2.3,Win32,59.80503558,,,,,,,,,,,0.6525,1,,,,,,,,,,,,,,,,,,,,,,,,0.695069456,-0.303333339,0,0,0,,,,,,,ARTIST,HB,z,m,./images/ARTISTHB.png,,,,,,,,,,,,,,,,,,,,,z,1,0.6525,,,,,,,,0,43,43,145,1
,,,,,,,,,,,,,,,,,6112b65a93c2eed74b0416f5,22,2022-02-12_12h48.52.850,lexical_decision_task_DD,2021.2.3,Win32,59.80503558,,,,,,,,,,,1.4678,1,,,,,,,,,,,,,,,,,,,,,,,,0.695069456,-0.303333339,0,0,0,,,,,,,DIVER,C,z,m,./images/DIVER.png,,,,,,,,,,,,,,,,,,,,,z,1,1.4678,,,,,,,,0,44,44,93,1
,,,,,,,,,,,,,,,,,6112b65a93c2eed74b0416f5,22,2022-02-12_12h48.52.850,lexical_decision_task_DD,2021.2.3,Win32,59.80503558,,,,,,,,,,,0.6528,1,,,,,,,,,,,,,,,,,,,,,,,,0.695069456,-0.303333339,0,0,0,,,,,,,WRIST,HB,m,m,./images/WRISTHB.png,,,,,,,,,,,,,,,,,,,,,m,1,0.6528,,,,,,,,0,45,45,25,1
,,,,,,,,,,,,,,,,,6112b65a93c2eed74b0416f5,22,2022-02-12_12h48.52.850,lexical_decision_task_DD,2021.2.3,Win32,59.80503558,,,,,,,,,,,0.7643,1,,,,,,,,,,,,,,,,,,,,,,,,0.695069456,-0.303333339,0,0,0,,,,,,,MELON,HB,m,m,./images/MELONHB.png,,,,,,,,,,,,,,,,,,,,,m,1,0.7643,,,,,,,,0,46,46,22,1
,,,,,,,,,,,,,,,,,6112b65a93c2eed74b0416f5,22,2022-02-12_12h48.52.850,lexical_decision_task_DD,2021.2.3,Win32,59.80503558,,,,,,,,,,,0.5842,1,,,,,,,,,,,,,,,,,,,,,,,,0.695069456,-0.303333339,0,0,0,,,,,,,PEARL,HB,m,m,./images/PEARLHB.png,,,,,,,,,,,,,,,,,,,,,m,1,0.5842,,,,,,,,0,47,47,46,1
,,,,,,,,,,,,,,,,,6112b65a93c2eed74b0416f5,22,2022-02-12_12h48.52.850,lexical_decision_task_DD,2021.2.3,Win32,59.80503558,,,,,,,,,,,0.594,1,,,,,,,,,,,,,,,,,,,,,,,,0.695069456,-0.303333339,0,0,0,,,,,,,HEATER,LB,z,m,./images/HEATERLB.png,,,,,,,,,,,,,,,,,,,,,z,1,0.594,,,,,,,,0,48,48,140,1
,,,,,,,,,,,,,,,,,6112b65a93c2eed74b0416f5,22,2022-02-12_12h48.52.850,lexical_decision_task_DD,2021.2.3,Win32,59.80503558,,,,,,,,,,,0.5486,1,,,,,,,,,,,,,,,,,,,,,,,,0.695069456,-0.303333339,0,0,0,,,,,,,VALLEY,LB,z,m,./images/VALLEYLB.png,,,,,,,,,,,,,,,,,,,,,z,1,0.5486,,,,,,,,0,49,49,152,1
,,,,,,,,,,,,,,,,,6112b65a93c2eed74b0416f5,22,2022-02-12_12h48.52.850,lexical_decision_task_DD,2021.2.3,Win32,59.80503558,,,,,,,,,,,0.5156,1,,,,,,,,,,,,,,,,,,,,,,,,0.695069456,-0.303333339,0,0,0,,,,,,,CARPET,LB,m,m,./images/CARPETLB.png,,,,,,,,,,,,,,,,,,,,,m,1,0.5156,,,,,,,,0,50,50,53,1
,,,,,,,,,,,,,,,,,6112b65a93c2eed74b0416f5,22,2022-02-12_12h48.52.850,lexical_decision_task_DD,2021.2.3,Win32,59.80503558,,,,,,,,,,,0.9686,0,,,,,,,,,,,,,,,,,,,,,,,,0.695069456,-0.303333339,0,0,0,,,,,,,MONKEY,C,z,m,./images/MONKEY.png,,,,,,,,,,,,,,,,,,,,,m,0,0.9686,,,,,,,,0,51,51,129,1
,,,,,,,,,,,,,,,,,6112b65a93c2eed74b0416f5,22,2022-02-12_12h48.52.850,lexical_decision_task_DD,2021.2.3,Win32,59.80503558,,,,,,,,,,,0.7092,1,,,,,,,,,,,,,,,,,,,,,,,,0.695069456,-0.303333339,0,0,0,,,,,,,SWEAT,C,m,m,./images/SWEAT.png,,,,,,,,,,,,,,,,,,,,,m,1,0.7092,,,,,,,,0,52,52,66,1
,,,,,,,,,,,,,,,,,6112b65a93c2eed74b0416f5,22,2022-02-12_12h48.52.850,lexical_decision_task_DD,2021.2.3,Win32,59.80503558,,,,,,,,,,,0.6299,1,,,,,,,,,,,,,,,,,,,,,,,,0.695069456,-0.303333339,0,0,0,,,,,,,TWINS,C,m,m,./images/TWINS.png,,,,,,,,,,,,,,,,,,,,,m,1,0.6299,,,,,,,,0,53,53,60,1
,,,,,,,,,,,,,,,,,6112b65a93c2eed74b0416f5,22,2022-02-12_12h48.52.850,lexical_decision_task_DD,2021.2.3,Win32,59.80503558,,,,,,,,,,,0.606,1,,,,,,,,,,,,,,,,,,,,,,,,0.695069456,-0.303333339,0,0,0,,,,,,,STATUE,C,z,m,./images/STATUE.png,,,,,,,,,,,,,,,,,,,,,z,1,0.606,,,,,,,,0,54,54,150,1
,,,,,,,,,,,,,,,,,6112b65a93c2eed74b0416f5,22,2022-02-12_12h48.52.850,lexical_decision_task_DD,2021.2.3,Win32,59.80503558,,,,,,,,,,,0.9018,0,,,,,,,,,,,,,,,,,,,,,,,,0.695069456,-0.303333339,0,0,0,,,,,,,BOILER,C,z,m,./images/BOILER.png,,,,,,,,,,,,,,,,,,,,,m,0,0.9018,,,,,,,,0,55,55,120,1
,,,,,,,,,,,,,,,,,6112b65a93c2eed74b0416f5,22,2022-02-12_12h48.52.850,lexical_decision_task_DD,2021.2.3,Win32,59.80503558,,,,,,,,,,,0.5716,1,,,,,,,,,,,,,,,,,,,,,,,,0.695069456,-0.303333339,0,0,0,,,,,,,MOOSE,C,m,m,./images/MOOSE.png,,,,,,,,,,,,,,,,,,,,,m,1,0.5716,,,,,,,,0,56,56,57,1
,,,,,,,,,,,,,,,,,6112b65a93c2eed74b0416f5,22,2022-02-12_12h48.52.850,lexical_decision_task_DD,2021.2.3,Win32,59.80503558,,,,,,,,,,,0.847,1,,,,,,,,,,,,,,,,,,,,,,,,0.695069456,-0.303333339,0,0,0,,,,,,,MALLET,LB,m,m,./images/MALLETLB.png,,,,,,,,,,,,,,,,,,,,,m,1,0.847,,,,,,,,0,57,57,50,1
,,,,,,,,,,,,,,,,,6112b65a93c2eed74b0416f5,22,2022-02-12_12h48.52.850,lexical_decision_task_DD,2021.2.3,Win32,59.80503558,,,,,,,,,,,0.825,0,,,,,,,,,,,,,,,,,,,,,,,,0.695069456,-0.303333339,0,0,0,,,,,,,PLANET,LB,z,m,./images/PLANETLB.png,,,,,,,,,,,,,,,,,,,,,m,0,0.825,,,,,,,,0,58,58,164,1
,,,,,,,,,,,,,,,,,6112b65a93c2eed74b0416f5,22,2022-02-12_12h48.52.850,lexical_decision_task_DD,2021.2.3,Win32,59.80503558,,,,,,,,,,,0.9701,0,,,,,,,,,,,,,,,,,,,,,,,,0.695069456,-0.303333339,0,0,0,,,,,,,NOOSE,C,m,m,./images/NOOSE.png,,,,,,,,,,,,,,,,,,,,,z,0,0.9701,,,,,,,,0,59,59,72,1
,,,,,,,,,,,,,,,,,6112b65a93c2eed74b0416f5,22,2022-02-12_12h48.52.850,lexical_decision_task_DD,2021.2.3,Win32,59.80503558,,,,,,,,,,,0.9848,1,,,,,,,,,,,,,,,,,,,,,,,,0.695069456,-0.303333339,0,0,0,,,,,,,CURRY,C,z,m,./images/CURRY.png,,,,,,,,,,,,,,,,,,,,,z,1,0.9848,,,,,,,,0,60,60,144,1
,,,,,,,,,,,,,,,,,6112b65a93c2eed74b0416f5,22,2022-02-12_12h48.52.850,lexical_decision_task_DD,2021.2.3,Win32,59.80503558,,,,,,,,,,,0.8039,0,,,,,,,,,,,,,,,,,,,,,,,,0.695069456,-0.303333339,0,0,0,,,,,,,GLOVE,HB,z,m,./images/GLOVEHB.png,,,,,,,,,,,,,,,,,,,,,m,0,0.8039,,,,,,,,0,61,61,157,1
,,,,,,,,,,,,,,,,,6112b65a93c2eed74b0416f5,22,2022-02-12_12h48.52.850,lexical_decision_task_DD,2021.2.3,Win32,59.80503558,,,,,,,,,,,0.5195,0,,,,,,,,,,,,,,,,,,,,,,,,0.695069456,-0.303333339,0,0,0,,,,,,,TOWEL,HB,z,m,./images/TOWELHB.png,,,,,,,,,,,,,,,,,,,,,m,0,0.5195,,,,,,,,0,62,62,85,1
,,,,,,,,,,,,,,,,,6112b65a93c2eed74b0416f5,22,2022-02-12_12h48.52.850,lexical_decision_task_DD,2021.2.3,Win32,59.80503558,,,,,,,,,,,0.8517,0,,,,,,,,,,,,,,,,,,,,,,,,0.695069456,-0.303333339,0,0,0,,,,,,,GARDEN,HB,z,m,./images/GARDENHB.png,,,,,,,,,,,,,,,,,,,,,m,0,0.8517,,,,,,,,0,63,63,94,1
,,,,,,,,,,,,,,,,,6112b65a93c2eed74b0416f5,22,2022-02-12_12h48.52.850,lexical_decision_task_DD,2021.2.3,Win32,59.80503558,,,,,,,,,,,0.8352,0,,,,,,,,,,,,,,,,,,,,,,,,0.695069456,-0.303333339,0,0,0,,,,,,,MUSCLE,HB,m,m,./images/MUSCLEHB.png,,,,,,,,,,,,,,,,,,,,,z,0,0.8352,,,,,,,,0,64,64,4,1
,,,,,,,,,,,,,,,,,6112b65a93c2eed74b0416f5,22,2022-02-12_12h48.52.850,lexical_decision_task_DD,2021.2.3,Win32,59.80503558,,,,,,,,,,,0.9677,0,,,,,,,,,,,,,,,,,,,,,,,,0.695069456,-0.303333339,0,0,0,,,,,,,CANOE,HB,z,m,./images/CANOEHB.png,,,,,,,,,,,,,,,,,,,,,m,0,0.9677,,,,,,,,0,65,65,142,1
,,,,,,,,,,,,,,,,,6112b65a93c2eed74b0416f5,22,2022-02-12_12h48.52.850,lexical_decision_task_DD,2021.2.3,Win32,59.80503558,,,,,,,,,,,0.7846,1,,,,,,,,,,,,,,,,,,,,,,,,0.695069456,-0.303333339,0,0,0,,,,,,,FINGER,C,m,m,./images/FINGER.png,,,,,,,,,,,,,,,,,,,,,m,1,0.7846,,,,,,,,0,66,66,3,1
,,,,,,,,,,,,,,,,,6112b65a93c2eed74b0416f5,22,2022-02-12_12h48.52.850,lexical_decision_task_DD,2021.2.3,Win32,59.80503558,,,,,,,,,,,0.8693,1,,,,,,,,,,,,,,,,,,,,,,,,0.695069456,-0.303333339,0,0,0,,,,,,,SAILOR,HB,m,m,./images/SAILORHB.png,,,,,,,,,,,,,,,,,,,,,m,1,0.8693,,,,,,,,0,67,67,67,1
,,,,,,,,,,,,,,,,,6112b65a93c2eed74b0416f5,22,2022-02-12_12h48.52.850,lexical_decision_task_DD,2021.2.3,Win32,59.80503558,,,,,,,,,,,0.7767,1,,,,,,,,,,,,,,,,,,,,,,,,0.695069456,-0.303333339,0,0,0,,,,,,,SUNSET,HB,m,m,./images/SUNSETHB.png,,,,,,,,,,,,,,,,,,,,,m,1,0.7767,,,,,,,,0,68,68,82,1
,,,,,,,,,,,,,,,,,6112b65a93c2eed74b0416f5,22,2022-02-12_12h48.52.850,lexical_decision_task_DD,2021.2.3,Win32,59.80503558,,,,,,,,,,,1.7226,1,,,,,,,,,,,,,,,,,,,,,,,,0.695069456,-0.303333339,0,0,0,,,,,,,CANDY,C,z,m,./images/CANDY.png,,,,,,,,,,,,,,,,,,,,,z,1,1.7226,,,,,,,,0,69,69,123,1
,,,,,,,,,,,,,,,,,6112b65a93c2eed74b0416f5,22,2022-02-12_12h48.52.850,lexical_decision_task_DD,2021.2.3,Win32,59.80503558,,,,,,,,,,,0.664,1,,,,,,,,,,,,,,,,,,,,,,,,0.695069456,-0.303333339,0,0,0,,,,,,,PARCEL,C,z,m,./images/PARCEL.png,,,,,,,,,,,,,,,,,,,,,z,1,0.664,,,,,,,,0,70,70,102,1
,,,,,,,,,,,,,,,,,6112b65a93c2eed74b0416f5,22,2022-02-12_12h48.52.850,lexical_decision_task_DD,2021.2.3,Win32,59.80503558,,,,,,,,,,,1.1329,1,,,,,,,,,,,,,,,,,,,,,,,,0.695069456,-0.303333339,0,0,0,,,,,,,BRUSH,LB,z,m,./images/BRUSHLB.png,,,,,,,,,,,,,,,,,,,,,z,1,1.1329,,,,,,,,0,71,71,143,1
,,,,,,,,,,,,,,,,,6112b65a93c2eed74b0416f5,22,2022-02-12_12h48.52.850,lexical_decision_task_DD,2021.2.3,Win32,59.80503558,,,,,,,,,,,0.8682,1,,,,,,,,,,,,,,,,,,,,,,,,0.695069456,-0.303333339,0,0,0,,,,,,,GRAIN,C,m,m,./images/GRAIN.png,,,,,,,,,,,,,,,,,,,,,m,1,0.8682,,,,,,,,0,72,72,75,1
,,,,,,,,,,,,,,,,,6112b65a93c2eed74b0416f5,22,2022-02-12_12h48.52.850,lexical_decision_task_DD,2021.2.3,Win32,59.80503558,,,,,,,,,,,0.6075,0,,,,,,,,,,,,,,,,,,,,,,,,0.695069456,-0.303333339,0,0,0,,,,,,,COLLAR,C,z,m,./images/COLLAR.png,,,,,,,,,,,,,,,,,,,,,m,0,0.6075,,,,,,,,0,73,73,99,1
,,,,,,,,,,,,,,,,,6112b65a93c2eed74b0416f5,22,2022-02-12_12h48.52.850,lexical_decision_task_DD,2021.2.3,Win32,59.80503558,,,,,,,,,,,0.8247,1,,,,,,,,,,,,,,,,,,,,,,,,0.695069456,-0.303333339,0,0,0,,,,,,,COOKER,C,m,m,./images/COOKER.png,,,,,,,,,,,,,,,,,,,,,m,1,0.8247,,,,,,,,0,74,74,69,1
,,,,,,,,,,,,,,,,,6112b65a93c2eed74b0416f5,22,2022-02-12_12h48.52.850,lexical_decision_task_DD,2021.2.3,Win32,59.80503558,,,,,,,,,,,0.6678,1,,,,,,,,,,,,,,,,,,,,,,,,0.695069456,-0.303333339,0,0,0,,,,,,,LLAMA,LB,z,m,./images/LLAMALB.png,,,,,,,,,,,,,,,,,,,,,z,1,0.6678,,,,,,,,0,75,75,119,1
,,,,,,,,,,,,,,,,,6112b65a93c2eed74b0416f5,22,2022-02-12_12h48.52.850,lexical_decision_task_DD,2021.2.3,Win32,59.80503558,,,,,,,,,,,0.819,1,,,,,,,,,,,,,,,,,,,,,,,,0.695069456,-0.303333339,0,0,0,,,,,,,BANANA,HB,z,m,./images/BANANAHB.png,,,,,,,,,,,,,,,,,,,,,z,1,0.819,,,,,,,,0,76,76,154,1
,,,,,,,,,,,,,,,,,6112b65a93c2eed74b0416f5,22,2022-02-12_12h48.52.850,lexical_decision_task_DD,2021.2.3,Win32,59.80503558,,,,,,,,,,,0.6823,1,,,,,,,,,,,,,,,,,,,,,,,,0.695069456,-0.303333339,0,0,0,,,,,,,RHINO,C,m,m,./images/RHINO.png,,,,,,,,,,,,,,,,,,,,,m,1,0.6823,,,,,,,,0,77,77,9,1
,,,,,,,,,,,,,,,,,6112b65a93c2eed74b0416f5,22,2022-02-12_12h48.52.850,lexical_decision_task_DD,2021.2.3,Win32,59.80503558,,,,,,,,,,,0.7345,0,,,,,,,,,,,,,,,,,,,,,,,,0.695069456,-0.303333339,0,0,0,,,,,,,INFANT,HB,m,m,./images/INFANTHB.png,,,,,,,,,,,,,,,,,,,,,z,0,0.7345,,,,,,,,0,78,78,76,1
,,,,,,,,,,,,,,,,,6112b65a93c2eed74b0416f5,22,2022-02-12_12h48.52.850,lexical_decision_task_DD,2021.2.3,Win32,59.80503558,,,,,,,,,,,0.867,0,,,,,,,,,,,,,,,,,,,,,,,,0.695069456,-0.303333339,0,0,0,,,,,,,CRADLE,LB,m,m,./images/CRADLELB.png,,,,,,,,,,,,,,,,,,,,,z,0,0.867,,,,,,,,0,79,79,20,1
,,,,,,,,,,,,,,,,,6112b65a93c2eed74b0416f5,22,2022-02-12_12h48.52.850,lexical_decision_task_DD,2021.2.3,Win32,59.80503558,,,,,,,,,,,1.1402,0,,,,,,,,,,,,,,,,,,,,,,,,0.695069456,-0.303333339,0,0,0,,,,,,,HAMMER,C,z,m,./images/HAMMER.png,,,,,,,,,,,,,,,,,,,,,m,0,1.1402,,,,,,,,0,80,80,159,1
,,,,,,,,,,,,,,,,,6112b65a93c2eed74b0416f5,22,2022-02-12_12h48.52.850,lexical_decision_task_DD,2021.2.3,Win32,59.80503558,,,,,,,,,,,0.6685,0,,,,,,,,,,,,,,,,,,,,,,,,0.695069456,-0.303333339,0,0,0,,,,,,,BROOM,C,z,m,./images/BROOM.png,,,,,,,,,,,,,,,,,,,,,m,0,0.6685,,,,,,,,0,81,81,162,1
,,,,,,,,,,,,,,,,,6112b65a93c2eed74b0416f5,22,2022-02-12_12h48.52.850,lexical_decision_task_DD,2021.2.3,Win32,59.80503558,,,,,,,,,,,0.885,0,,,,,,,,,,,,,,,,,,,,,,,,0.695069456,-0.303333339,0,0,0,,,,,,,ALLEY,HB,z,m,./images/ALLEYHB.png,,,,,,,,,,,,,,,,,,,,,m,0,0.885,,,,,,,,0,82,82,139,1
,,,,,,,,,,,,,,,,,6112b65a93c2eed74b0416f5,22,2022-02-12_12h48.52.850,lexical_decision_task_DD,2021.2.3,Win32,59.80503558,,,,,,,,,,,0.7444,1,,,,,,,,,,,,,,,,,,,,,,,,0.695069456,-0.303333339,0,0,0,space,,,,,,FLASK,C,z,m,./images/FLASK.png,1.0344,,,,,,,,,,,,,,,,,,,,z,1,0.7444,,,,,,,,0,83,83,156,1
,,,,,,,,,,,,,,,,,6112b65a93c2eed74b0416f5,22,2022-02-12_12h48.52.850,lexical_decision_task_DD,2021.2.3,Win32,59.80503558,,,,,,,,,,,0.7854,1,,,,,,,,,,,,,,,,,,,,,,,,0.695069456,-0.303333339,0,0,0,,,,,,,URINE,HB,m,m,./images/URINEHB.png,,,,,,,,,,,,,,,,,,,,,m,1,0.7854,,,,,,,,0,84,84,70,1
,,,,,,,,,,,,,,,,,6112b65a93c2eed74b0416f5,22,2022-02-12_12h48.52.850,lexical_decision_task_DD,2021.2.3,Win32,59.80503558,,,,,,,,,,,1.7923,0,,,,,,,,,,,,,,,,,,,,,,,,0.695069456,-0.303333339,0,0,0,,,,,,,MUFFIN,HB,m,m,./images/MUFFINHB.png,,,,,,,,,,,,,,,,,,,,,z,0,1.7923,,,,,,,,0,85,85,55,1
,,,,,,,,,,,,,,,,,6112b65a93c2eed74b0416f5,22,2022-02-12_12h48.52.850,lexical_decision_task_DD,2021.2.3,Win32,59.80503558,,,,,,,,,,,0.6968,1,,,,,,,,,,,,,,,,,,,,,,,,0.695069456,-0.303333339,0,0,0,,,,,,,GREASE,C,m,m,./images/GREASE.png,,,,,,,,,,,,,,,,,,,,,m,1,0.6968,,,,,,,,0,86,86,15,1
,,,,,,,,,,,,,,,,,6112b65a93c2eed74b0416f5,22,2022-02-12_12h48.52.850,lexical_decision_task_DD,2021.2.3,Win32,59.80503558,,,,,,,,,,,0.642,1,,,,,,,,,,,,,,,,,,,,,,,,0.695069456,-0.303333339,0,0,0,,,,,,,SWING,HB,m,m,./images/SWINGHB.png,,,,,,,,,,,,,,,,,,,,,m,1,0.642,,,,,,,,0,87,87,40,1
,,,,,,,,,,,,,,,,,6112b65a93c2eed74b0416f5,22,2022-02-12_12h48.52.850,lexical_decision_task_DD,2021.2.3,Win32,59.80503558,,,,,,,,,,,1.6822,0,,,,,,,,,,,,,,,,,,,,,,,,0.695069456,-0.303333339,0,0,0,,,,,,,TULIP,LB,m,m,./images/TULIPLB.png,,,,,,,,,,,,,,,,,,,,,z,0,1.6822,,,,,,,,0,88,88,8,1
,,,,,,,,,,,,,,,,,6112b65a93c2eed74b0416f5,22,2022-02-12_12h48.52.850,lexical_decision_task_DD,2021.2.3,Win32,59.80503558,,,,,,,,,,,0.725,1,,,,,,,,,,,,,,,,,,,,,,,,0.695069456,-0.303333339,0,0,0,,,,,,,PEACH,LB,m,m,./images/PEACHLB.png,,,,,,,,,,,,,,,,,,,,,m,1,0.725,,,,,,,,0,89,89,35,1
,,,,,,,,,,,,,,,,,6112b65a93c2eed74b0416f5,22,2022-02-12_12h48.52.850,lexical_decision_task_DD,2021.2.3,Win32,59.80503558,,,,,,,,,,,1.2028,0,,,,,,,,,,,,,,,,,,,,,,,,0.695069456,-0.303333339,0,0,0,,,,,,,TOMATO,C,m,m,./images/TOMATO.png,,,,,,,,,,,,,,,,,,,,,z,0,1.2028,,,,,,,,0,90,90,0,1
,,,,,,,,,,,,,,,,,6112b65a93c2eed74b0416f5,22,2022-02-12_12h48.52.850,lexical_decision_task_DD,2021.2.3,Win32,59.80503558,,,,,,,,,,,0.6273,1,,,,,,,,,,,,,,,,,,,,,,,,0.695069456,-0.303333339,0,0,0,,,,,,,CRUMB,LB,m,m,./images/CRUMBLB.png,,,,,,,,,,,,,,,,,,,,,m,1,0.6273,,,,,,,,0,91,91,29,1
,,,,,,,,,,,,,,,,,6112b65a93c2eed74b0416f5,22,2022-02-12_12h48.52.850,lexical_decision_task_DD,2021.2.3,Win32,59.80503558,,,,,,,,,,,0.6184,1,,,,,,,,,,,,,,,,,,,,,,,,0.695069456,-0.303333339,0,0,0,,,,,,,JUNGLE,LB,m,m,./images/JUNGLELB.png,,,,,,,,,,,,,,,,,,,,,m,1,0.6184,,,,,,,,0,92,92,83,1
,,,,,,,,,,,,,,,,,6112b65a93c2eed74b0416f5,22,2022-02-12_12h48.52.850,lexical_decision_task_DD,2021.2.3,Win32,59.80503558,,,,,,,,,,,0.6635,1,,,,,,,,,,,,,,,,,,,,,,,,0.695069456,-0.303333339,0,0,0,,,,,,,THROAT,C,m,m,./images/THROAT.png,,,,,,,,,,,,,,,,,,,,,m,1,0.6635,,,,,,,,0,93,93,36,1
,,,,,,,,,,,,,,,,,6112b65a93c2eed74b0416f5,22,2022-02-12_12h48.52.850,lexical_decision_task_DD,2021.2.3,Win32,59.80503558,,,,,,,,,,,0.7517,1,,,,,,,,,,,,,,,,,,,,,,,,0.695069456,-0.303333339,0,0,0,,,,,,,RULER,HB,z,m,./images/RULERHB.png,,,,,,,,,,,,,,,,,,,,,z,1,0.7517,,,,,,,,0,94,94,163,1
,,,,,,,,,,,,,,,,,6112b65a93c2eed74b0416f5,22,2022-02-12_12h48.52.850,lexical_decision_task_DD,2021.2.3,Win32,59.80503558,,,,,,,,,,,0.7038,1,,,,,,,,,,,,,,,,,,,,,,,,0.695069456,-0.303333339,0,0,0,,,,,,,ENGINE,LB,z,m,./images/ENGINELB.png,,,,,,,,,,,,,,,,,,,,,z,1,0.7038,,,,,,,,0,95,95,122,1
,,,,,,,,,,,,,,,,,6112b65a93c2eed74b0416f5,22,2022-02-12_12h48.52.850,lexical_decision_task_DD,2021.2.3,Win32,59.80503558,,,,,,,,,,,0.6719,0,,,,,,,,,,,,,,,,,,,,,,,,0.695069456,-0.303333339,0,0,0,,,,,,,FENCE,LB,z,m,./images/FENCELB.png,,,,,,,,,,,,,,,,,,,,,m,0,0.6719,,,,,,,,0,96,96,98,1
,,,,,,,,,,,,,,,,,6112b65a93c2eed74b0416f5,22,2022-02-12_12h48.52.850,lexical_decision_task_DD,2021.2.3,Win32,59.80503558,,,,,,,,,,,0.607,1,,,,,,,,,,,,,,,,,,,,,,,,0.695069456,-0.303333339,0,0,0,,,,,,,BANNER,HB,m,m,./images/BANNERHB.png,,,,,,,,,,,,,,,,,,,,,m,1,0.607,,,,,,,,0,97,97,52,1
,,,,,,,,,,,,,,,,,6112b65a93c2eed74b0416f5,22,2022-02-12_12h48.52.850,lexical_decision_task_DD,2021.2.3,Win32,59.80503558,,,,,,,,,,,0.7006,1,,,,,,,,,,,,,,,,,,,,,,,,0.695069456,-0.303333339,0,0,0,,,,,,,STEAK,HB,z,m,./images/STEAKHB.png,,,,,,,,,,,,,,,,,,,,,z,1,0.7006,,,,,,,,0,98,98,115,1
,,,,,,,,,,,,,,,,,6112b65a93c2eed74b0416f5,22,2022-02-12_12h48.52.850,lexical_decision_task_DD,2021.2.3,Win32,59.80503558,,,,,,,,,,,0.8342,1,,,,,,,,,,,,,,,,,,,,,,,,0.695069456,-0.303333339,0,0,0,,,,,,,GRANNY,LB,z,m,./images/GRANNYLB.png,,,,,,,,,,,,,,,,,,,,,z,1,0.8342,,,,,,,,0,99,99,104,1
,,,,,,,,,,,,,,,,,6112b65a93c2eed74b0416f5,22,2022-02-12_12h48.52.850,lexical_decision_task_DD,2021.2.3,Win32,59.80503558,,,,,,,,,,,0.9797,0,,,,,,,,,,,,,,,,,,,,,,,,0.695069456,-0.303333339,0,0,0,,,,,,,FALCON,HB,m,m,./images/FALCONHB.png,,,,,,,,,,,,,,,,,,,,,z,0,0.9797,,,,,,,,0,100,100,28,1
,,,,,,,,,,,,,,,,,6112b65a93c2eed74b0416f5,22,2022-02-12_12h48.52.850,lexical_decision_task_DD,2021.2.3,Win32,59.80503558,,,,,,,,,,,0.9616,0,,,,,,,,,,,,,,,,,,,,,,,,0.695069456,-0.303333339,0,0,0,,,,,,,CEMENT,LB,m,m,./images/CEMENTLB.png,,,,,,,,,,,,,,,,,,,,,z,0,0.9616,,,,,,,,0,101,101,74,1
,,,,,,,,,,,,,,,,,6112b65a93c2eed74b0416f5,22,2022-02-12_12h48.52.850,lexical_decision_task_DD,2021.2.3,Win32,59.80503558,,,,,,,,,,,0.9135,0,,,,,,,,,,,,,,,,,,,,,,,,0.695069456,-0.303333339,0,0,0,,,,,,,FERRY,C,z,m,./images/FERRY.png,,,,,,,,,,,,,,,,,,,,,m,0,0.9135,,,,,,,,0,102,102,141,1
,,,,,,,,,,,,,,,,,6112b65a93c2eed74b0416f5,22,2022-02-12_12h48.52.850,lexical_decision_task_DD,2021.2.3,Win32,59.80503558,,,,,,,,,,,1.0937,1,,,,,,,,,,,,,,,,,,,,,,,,0.695069456,-0.303333339,0,0,0,,,,,,,WAGON,HB,z,m,./images/WAGONHB.png,,,,,,,,,,,,,,,,,,,,,z,1,1.0937,,,,,,,,0,103,103,91,1
,,,,,,,,,,,,,,,,,6112b65a93c2eed74b0416f5,22,2022-02-12_12h48.52.850,lexical_decision_task_DD,2021.2.3,Win32,59.80503558,,,,,,,,,,,0.6503,1,,,,,,,,,,,,,,,,,,,,,,,,0.695069456,-0.303333339,0,0,0,,,,,,,MIDGET,HB,z,m,./images/MIDGETHB.png,,,,,,,,,,,,,,,,,,,,,z,1,0.6503,,,,,,,,0,104,104,160,1
,,,,,,,,,,,,,,,,,6112b65a93c2eed74b0416f5,22,2022-02-12_12h48.52.850,lexical_decision_task_DD,2021.2.3,Win32,59.80503558,,,,,,,,,,,0.6682,1,,,,,,,,,,,,,,,,,,,,,,,,0.695069456,-0.303333339,0,0,0,,,,,,,JAGUAR,C,m,m,./images/JAGUAR.png,,,,,,,,,,,,,,,,,,,,,m,1,0.6682,,,,,,,,0,105,105,18,1
,,,,,,,,,,,,,,,,,6112b65a93c2eed74b0416f5,22,2022-02-12_12h48.52.850,lexical_decision_task_DD,2021.2.3,Win32,59.80503558,,,,,,,,,,,0.5052,1,,,,,,,,,,,,,,,,,,,,,,,,0.695069456,-0.303333339,0,0,0,,,,,,,ATTIC,C,m,m,./images/ATTIC.png,,,,,,,,,,,,,,,,,,,,,m,1,0.5052,,,,,,,,0,106,106,27,1
,,,,,,,,,,,,,,,,,6112b65a93c2eed74b0416f5,22,2022-02-12_12h48.52.850,lexical_decision_task_DD,2021.2.3,Win32,59.80503558,,,,,,,,,,,0.8018,1,,,,,,,,,,,,,,,,,,,,,,,,0.695069456,-0.303333339,0,0,0,,,,,,,KIDNEY,C,m,m,./images/KIDNEY.png,,,,,,,,,,,,,,,,,,,,,m,1,0.8018,,,,,,,,0,107,107,21,1
,,,,,,,,,,,,,,,,,6112b65a93c2eed74b0416f5,22,2022-02-12_12h48.52.850,lexical_decision_task_DD,2021.2.3,Win32,59.80503558,,,,,,,,,,,0.5882,1,,,,,,,,,,,,,,,,,,,,,,,,0.695069456,-0.303333339,0,0,0,,,,,,,BEARD,LB,m,m,./images/BEARDLB.png,,,,,,,,,,,,,,,,,,,,,m,1,0.5882,,,,,,,,0,108,108,2,1
,,,,,,,,,,,,,,,,,6112b65a93c2eed74b0416f5,22,2022-02-12_12h48.52.850,lexical_decision_task_DD,2021.2.3,Win32,59.80503558,,,,,,,,,,,0.6419,1,,,,,,,,,,,,,,,,,,,,,,,,0.695069456,-0.303333339,0,0,0,,,,,,,BELLY,HB,m,m,./images/BELLYHB.png,,,,,,,,,,,,,,,,,,,,,m,1,0.6419,,,,,,,,0,109,109,10,1
,,,,,,,,,,,,,,,,,6112b65a93c2eed74b0416f5,22,2022-02-12_12h48.52.850,lexical_decision_task_DD,2021.2.3,Win32,59.80503558,,,,,,,,,,,0.6346,0,,,,,,,,,,,,,,,,,,,,,,,,0.695069456,-0.303333339,0,0,0,,,,,,,BIRTH,HB,m,m,./images/BIRTHHB.png,,,,,,,,,,,,,,,,,,,,,z,0,0.6346,,,,,,,,0,110,110,37,1
,,,,,,,,,,,,,,,,,6112b65a93c2eed74b0416f5,22,2022-02-12_12h48.52.850,lexical_decision_task_DD,2021.2.3,Win32,59.80503558,,,,,,,,,,,0.5973,1,,,,,,,,,,,,,,,,,,,,,,,,0.695069456,-0.303333339,0,0,0,,,,,,,BARREL,LB,m,m,./images/BARRELLB.png,,,,,,,,,,,,,,,,,,,,,m,1,0.5973,,,,,,,,0,111,111,32,1
,,,,,,,,,,,,,,,,,6112b65a93c2eed74b0416f5,22,2022-02-12_12h48.52.850,lexical_decision_task_DD,2021.2.3,Win32,59.80503558,,,,,,,,,,,1.1323,1,,,,,,,,,,,,,,,,,,,,,,,,0.695069456,-0.303333339,0,0,0,,,,,,,POODLE,C,m,m,./images/POODLE.png,,,,,,,,,,,,,,,,,,,,,m,1,1.1323,,,,,,,,0,112,112,81,1
,,,,,,,,,,,,,,,,,6112b65a93c2eed74b0416f5,22,2022-02-12_12h48.52.850,lexical_decision_task_DD,2021.2.3,Win32,59.80503558,,,,,,,,,,,0.813,1,,,,,,,,,,,,,,,,,,,,,,,,0.695069456,-0.303333339,0,0,0,,,,,,,BOXER,HB,z,m,./images/BOXERHB.png,,,,,,,,,,,,,,,,,,,,,z,1,0.813,,,,,,,,0,113,113,88,1
,,,,,,,,,,,,,,,,,6112b65a93c2eed74b0416f5,22,2022-02-12_12h48.52.850,lexical_decision_task_DD,2021.2.3,Win32,59.80503558,,,,,,,,,,,0.5344,1,,,,,,,,,,,,,,,,,,,,,,,,0.695069456,-0.303333339,0,0,0,,,,,,,HOCKEY,LB,z,m,./images/HOCKEYLB.png,,,,,,,,,,,,,,,,,,,,,z,1,0.5344,,,,,,,,0,114,114,116,1
,,,,,,,,,,,,,,,,,6112b65a93c2eed74b0416f5,22,2022-02-12_12h48.52.850,lexical_decision_task_DD,2021.2.3,Win32,59.80503558,,,,,,,,,,,0.6849,1,,,,,,,,,,,,,,,,,,,,,,,,0.695069456,-0.303333339,0,0,0,,,,,,,FOLDER,C,m,m,./images/FOLDER.png,,,,,,,,,,,,,,,,,,,,,m,1,0.6849,,,,,,,,0,115,115,42,1
,,,,,,,,,,,,,,,,,6112b65a93c2eed74b0416f5,22,2022-02-12_12h48.52.850,lexical_decision_task_DD,2021.2.3,Win32,59.80503558,,,,,,,,,,,0.6524,1,,,,,,,,,,,,,,,,,,,,,,,,0.695069456,-0.303333339,0,0,0,,,,,,,BRIDE,HB,z,m,./images/BRIDEHB.png,,,,,,,,,,,,,,,,,,,,,z,1,0.6524,,,,,,,,0,116,116,148,1
,,,,,,,,,,,,,,,,,6112b65a93c2eed74b0416f5,22,2022-02-12_12h48.52.850,lexical_decision_task_DD,2021.2.3,Win32,59.80503558,,,,,,,,,,,0.7658,1,,,,,,,,,,,,,,,,,,,,,,,,0.695069456,-0.303333339,0,0,0,,,,,,,WHISKY,LB,z,m,./images/WHISKYLB.png,,,,,,,,,,,,,,,,,,,,,z,1,0.7658,,,,,,,,0,117,117,167,1
,,,,,,,,,,,,,,,,,6112b65a93c2eed74b0416f5,22,2022-02-12_12h48.52.850,lexical_decision_task_DD,2021.2.3,Win32,59.80503558,,,,,,,,,,,0.6847,0,,,,,,,,,,,,,,,,,,,,,,,,0.695069456,-0.303333339,0,0,0,,,,,,,STOOL,HB,z,m,./images/STOOLHB.png,,,,,,,,,,,,,,,,,,,,,m,0,0.6847,,,,,,,,0,118,118,127,1
,,,,,,,,,,,,,,,,,6112b65a93c2eed74b0416f5,22,2022-02-12_12h48.52.850,lexical_decision_task_DD,2021.2.3,Win32,59.80503558,,,,,,,,,,,0.9671,1,,,,,,,,,,,,,,,,,,,,,,,,0.695069456,-0.303333339,0,0,0,,,,,,,STREAM,LB,z,m,./images/STREAMLB.png,,,,,,,,,,,,,,,,,,,,,z,1,0.9671,,,,,,,,0,119,119,125,1
,,,,,,,,,,,,,,,,,6112b65a93c2eed74b0416f5,22,2022-02-12_12h48.52.850,lexical_decision_task_DD,2021.2.3,Win32,59.80503558,,,,,,,,,,,0.5975,1,,,,,,,,,,,,,,,,,,,,,,,,0.695069456,-0.303333339,0,0,0,,,,,,,BUBBLE,LB,z,m,./images/BUBBLELB.png,,,,,,,,,,,,,,,,,,,,,z,1,0.5975,,,,,,,,0,120,120,155,1
,,,,,,,,,,,,,,,,,6112b65a93c2eed74b0416f5,22,2022-02-12_12h48.52.850,lexical_decision_task_DD,2021.2.3,Win32,59.80503558,,,,,,,,,,,0.7975,0,,,,,,,,,,,,,,,,,,,,,,,,0.695069456,-0.303333339,0,0,0,,,,,,,CHALK,HB,z,m,./images/CHALKHB.png,,,,,,,,,,,,,,,,,,,,,m,0,0.7975,,,,,,,,0,121,121,109,1
,,,,,,,,,,,,,,,,,6112b65a93c2eed74b0416f5,22,2022-02-12_12h48.52.850,lexical_decision_task_DD,2021.2.3,Win32,59.80503558,,,,,,,,,,,1.2895,1,,,,,,,,,,,,,,,,,,,,,,,,0.695069456,-0.303333339,0,0,0,,,,,,,SNACK,HB,m,m,./images/SNACKHB.png,,,,,,,,,,,,,,,,,,,,,m,1,1.2895,,,,,,,,0,122,122,73,1
,,,,,,,,,,,,,,,,,6112b65a93c2eed74b0416f5,22,2022-02-12_12h48.52.850,lexical_decision_task_DD,2021.2.3,Win32,59.80503558,,,,,,,,,,,1.7865,1,,,,,,,,,,,,,,,,,,,,,,,,0.695069456,-0.303333339,0,0,0,,,,,,,PISTOL,LB,z,m,./images/PISTOLLB.png,,,,,,,,,,,,,,,,,,,,,z,1,1.7865,,,,,,,,0,123,123,113,1
,,,,,,,,,,,,,,,,,6112b65a93c2eed74b0416f5,22,2022-02-12_12h48.52.850,lexical_decision_task_DD,2021.2.3,Win32,59.80503558,,,,,,,,,,,0.9188,1,,,,,,,,,,,,,,,,,,,,,,,,0.695069456,-0.303333339,0,0,0,,,,,,,SHIELD,C,z,m,./images/SHIELD.png,,,,,,,,,,,,,,,,,,,,,z,1,0.9188,,,,,,,,0,124,124,132,1
,,,,,,,,,,,,,,,,,6112b65a93c2eed74b0416f5,22,2022-02-12_12h48.52.850,lexical_decision_task_DD,2021.2.3,Win32,59.80503558,,,,,,,,,,,0.7516,0,,,,,,,,,,,,,,,,,,,,,,,,0.695069456,-0.303333339,0,0,0,space,,,,,,PLANK,HB,m,m,./images/PLANKHB.png,1.0354,,,,,,,,,,,,,,,,,,,,z,0,0.7516,,,,,,,,0,125,125,1,1
,,,,,,,,,,,,,,,,,6112b65a93c2eed74b0416f5,22,2022-02-12_12h48.52.850,lexical_decision_task_DD,2021.2.3,Win32,59.80503558,,,,,,,,,,,0.8437,0,,,,,,,,,,,,,,,,,,,,,,,,0.695069456,-0.303333339,0,0,0,,,,,,,SKIING,LB,m,m,./images/SKIINGLB.png,,,,,,,,,,,,,,,,,,,,,z,0,0.8437,,,,,,,,0,126,126,17,1
,,,,,,,,,,,,,,,,,6112b65a93c2eed74b0416f5,22,2022-02-12_12h48.52.850,lexical_decision_task_DD,2021.2.3,Win32,59.80503558,,,,,,,,,,,0.9692,1,,,,,,,,,,,,,,,,,,,,,,,,0.695069456,-0.303333339,0,0,0,,,,,,,LAGOON,LB,z,m,./images/LAGOONLB.png,,,,,,,,,,,,,,,,,,,,,z,1,0.9692,,,,,,,,0,127,127,131,1
,,,,,,,,,,,,,,,,,6112b65a93c2eed74b0416f5,22,2022-02-12_12h48.52.850,lexical_decision_task_DD,2021.2.3,Win32,59.80503558,,,,,,,,,,,1.2016,1,,,,,,,,,,,,,,,,,,,,,,,,0.695069456,-0.303333339,0,0,0,,,,,,,SHELF,C,m,m,./images/SHELF.png,,,,,,,,,,,,,,,,,,,,,m,1,1.2016,,,,,,,,0,128,128,39,1
,,,,,,,,,,,,,,,,,6112b65a93c2eed74b0416f5,22,2022-02-12_12h48.52.850,lexical_decision_task_DD,2021.2.3,Win32,59.80503558,,,,,,,,,,,0.6207,0,,,,,,,,,,,,,,,,,,,,,,,,0.695069456,-0.303333339,0,0,0,,,,,,,POSTER,LB,z,m,./images/POSTERLB.png,,,,,,,,,,,,,,,,,,,,,m,0,0.6207,,,,,,,,0,129,129,137,1
,,,,,,,,,,,,,,,,,6112b65a93c2eed74b0416f5,22,2022-02-12_12h48.52.850,lexical_decision_task_DD,2021.2.3,Win32,59.80503558,,,,,,,,,,,0.6683,1,,,,,,,,,,,,,,,,,,,,,,,,0.695069456,-0.303333339,0,0,0,,,,,,,MAGGOT,C,m,m,./images/MAGGOT.png,,,,,,,,,,,,,,,,,,,,,m,1,0.6683,,,,,,,,0,130,130,33,1
,,,,,,,,,,,,,,,,,6112b65a93c2eed74b0416f5,22,2022-02-12_12h48.52.850,lexical_decision_task_DD,2021.2.3,Win32,59.80503558,,,,,,,,,,,0.7664,1,,,,,,,,,,,,,,,,,,,,,,,,0.695069456,-0.303333339,0,0,0,,,,,,,BONNET,LB,m,m,./images/BONNETLB.png,,,,,,,,,,,,,,,,,,,,,m,1,0.7664,,,,,,,,0,131,131,11,1
,,,,,,,,,,,,,,,,,6112b65a93c2eed74b0416f5,22,2022-02-12_12h48.52.850,lexical_decision_task_DD,2021.2.3,Win32,59.80503558,,,,,,,,,,,0.6185,0,,,,,,,,,,,,,,,,,,,,,,,,0.695069456,-0.303333339,0,0,0,,,,,,,DRILL,C,z,m,./images/DRILL.png,,,,,,,,,,,,,,,,,,,,,m,0,0.6185,,,,,,,,0,132,132,165,1
,,,,,,,,,,,,,,,,,6112b65a93c2eed74b0416f5,22,2022-02-12_12h48.52.850,lexical_decision_task_DD,2021.2.3,Win32,59.80503558,,,,,,,,,,,0.5798,0,,,,,,,,,,,,,,,,,,,,,,,,0.695069456,-0.303333339,0,0,0,,,,,,,BAMBOO,LB,z,m,./images/BAMBOOLB.png,,,,,,,,,,,,,,,,,,,,,m,0,0.5798,,,,,,,,0,133,133,89,1
,,,,,,,,,,,,,,,,,6112b65a93c2eed74b0416f5,22,2022-02-12_12h48.52.850,lexical_decision_task_DD,2021.2.3,Win32,59.80503558,,,,,,,,,,,0.72,1,,,,,,,,,,,,,,,,,,,,,,,,0.695069456,-0.303333339,0,0,0,,,,,,,MUMMY,HB,z,m,./images/MUMMYHB.png,,,,,,,,,,,,,,,,,,,,,z,1,0.72,,,,,,,,0,134,134,130,1
