key_resp.keys,instr_done_touch.x,instr_done_touch.y,instr_done_touch.leftButton,instr_done_touch.midButton,instr_done_touch.rightButton,instr_done_touch.clicked_name,instruction_pages.thisRepN,instruction_pages.thisTrialN,instruction_pages.thisN,instruction_pages.thisIndex,instruction_pages.ran,pageN,phase,instruct_text,has_image,instruct_image,participant,age,date,expName,psychopyVersion,OS,frameRate,key_resp.rt,response.keys,response.corr,response.rt,touch_resp.x,touch_resp.y,touch_resp.leftButton,touch_resp.midButton,touch_resp.rightButton,touch_resp.time,touch_resp.clicked_name,rt,corr,practrials.thisRepN,practrials.thisTrialN,practrials.thisN,practrials.thisIndex,practrials.ran,TrialID,Target,corrAns,end_of_practice_trials_pages.thisRepN,end_of_practice_trials_pages.thisTrialN,end_of_practice_trials_pages.thisN,end_of_practice_trials_pages.thisIndex,end_of_practice_trials_pages.ran,key_resp_2.keys,key_resp_2.corr,key_resp_2.rt,targ_click.x,targ_click.y,targ_click.leftButton,targ_click.midButton,targ_click.rightButton,targ_click.time,targ_click.clicked_name,break_done_touch.x,break_done_touch.y,break_done_touch.leftButton,break_done_touch.midButton,break_done_touch.rightButton,break_done_keyboard.keys,maintrials.thisRepN,maintrials.thisTrialN,maintrials.thisN,maintrials.thisIndex,maintrials.ran,string,blur,study,lex,stim_path,break_done_keyboard.rt,mouse_2.x,mouse_2.y,mouse_2.leftButton,mouse_2.midButton,mouse_2.rightButton,mouse_2.clicked_name,slider.response,slider.rt,trials.thisRepN,trials.thisTrialN,trials.thisN,trials.thisIndex,trials.ran,test_instructions.thisRepN,test_instructions.thisTrialN,test_instructions.thisN,test_instructions.thisIndex,test_instructions.ran,key_resp_3.keys,key_resp_3.corr,key_resp_3.rt,test_click.x,test_click.y,test_click.leftButton,test_click.midButton,test_click.rightButton,test_click.time,test_click.clicked_name,test_phase.thisRepN,test_phase.thisTrialN,test_phase.thisN,test_phase.thisIndex,test_phase.ran
,0.147135417,-0.377604167,1,0,0,instr_done_button,0,0,0,0,1,1,instructions,"INSTRUCTIONS
At the start of each trial, look at the plus sign  (+) in the center of the screen.  This tells you that a trial is about to begin and where to look. Second, the plus sign will disappear and a string of letters will appear. Your task is to determine if the string of letters is a word or not. If the item is a word press the M key (on keyboard)  or touch the word button (phone/tablet).  If the item is not a word,  press the  Z key (on keyboard)  or touch the nonword button (on phone/tablet). 
Press the space bar or touch  continue.",0,,6117f6388428f7fc03e16eb2,25,2022-02-12_11h17.18.936,lexical_decision_task_DD,2021.2.3,Win32,60.07449237,,,,,,,,,,,,,,,,,,,,,,,,,,,,,,,,,,,,,,,,,,,,,,,,,,,,,,,,,,,,,,,,,,,,,,,,,,,,,,,,,,,,,,
space,0.516927083,-0.346354167,0,0,0,,0,1,1,1,1,2,instructions,"If your device has a keyboard, press the 'Z' key for nonwords and the 'M' key for words.





Press the space bar or touch the button below to continue.",0,keyboard-example.gif,6117f6388428f7fc03e16eb2,25,2022-02-12_11h17.18.936,lexical_decision_task_DD,2021.2.3,Win32,60.07449237,8.407,,,,,,,,,,,,,,,,,,,,,,,,,,,,,,,,,,,,,,,,,,,,,,,,,,,,,,,,,,,,,,,,,,,,,,,,,,,,,,,,,,,,,
space,0.752604167,-0.104166667,0,0,0,,0,2,2,2,1,3,instructions,"If you are using a touchscreen only device, use the buttons on the screen. Do not use the mouse.





Press the space bar or touch the button below to continue.",0,touchscreen-example.gif,6117f6388428f7fc03e16eb2,25,2022-02-12_11h17.18.936,lexical_decision_task_DD,2021.2.3,Win32,60.07449237,9.149,,,,,,,,,,,,,,,,,,,,,,,,,,,,,,,,,,,,,,,,,,,,,,,,,,,,,,,,,,,,,,,,,,,,,,,,,,,,,,,,,,,,,
space,0.752604167,-0.104166667,0,0,0,,0,3,3,3,1,4,instructions,"It is very important that you respond as quickly and accurately as possible, as each letter string will only be on the screen for two seconds. If you do not respond within this time, the message 'Too slow!' will be displayed and the experiment will progress to the next letter string. The first 20 trials will be practice trials and you will receive feedback on your answers. 

Press the space bar or touch the button below to start the practice trials.",0,,6117f6388428f7fc03e16eb2,25,2022-02-12_11h17.18.936,lexical_decision_task_DD,2021.2.3,Win32,60.07449237,7.2397,,,,,,,,,,,,,,,,,,,,,,,,,,,,,,,,,,,,,,,,,,,,,,,,,,,,,,,,,,,,,,,,,,,,,,,,,,,,,,,,,,,,,
,,,,,,,,,,,,,,,,,6117f6388428f7fc03e16eb2,25,2022-02-12_11h17.18.936,lexical_decision_task_DD,2021.2.3,Win32,60.07449237,,z,1,2.7609,,,,,,,,2.7609,1,0,0,0,10,1,1001,INLADE,z,,,,,,,,,,,,,,,,,,,,,,,,,,,,,,,,,,,,,,,,,,,,,,,,,,,,,,,,,,,,,,,,,
,,,,,,,,,,,,,,,,,6117f6388428f7fc03e16eb2,25,2022-02-12_11h17.18.936,lexical_decision_task_DD,2021.2.3,Win32,60.07449237,,z,1,1.5669,,,,,,,,1.5669,1,0,1,1,11,1,1001,RASHET,z,,,,,,,,,,,,,,,,,,,,,,,,,,,,,,,,,,,,,,,,,,,,,,,,,,,,,,,,,,,,,,,,,
,,,,,,,,,,,,,,,,,6117f6388428f7fc03e16eb2,25,2022-02-12_11h17.18.936,lexical_decision_task_DD,2021.2.3,Win32,60.07449237,,m,1,0.6875,,,,,,,,0.6875,1,0,2,2,7,1,1001,VOLUME,m,,,,,,,,,,,,,,,,,,,,,,,,,,,,,,,,,,,,,,,,,,,,,,,,,,,,,,,,,,,,,,,,,
,,,,,,,,,,,,,,,,,6117f6388428f7fc03e16eb2,25,2022-02-12_11h17.18.936,lexical_decision_task_DD,2021.2.3,Win32,60.07449237,,z,1,1.1587,,,,,,,,1.1587,1,0,3,3,12,1,1001,SPRINY,z,,,,,,,,,,,,,,,,,,,,,,,,,,,,,,,,,,,,,,,,,,,,,,,,,,,,,,,,,,,,,,,,,
,,,,,,,,,,,,,,,,,6117f6388428f7fc03e16eb2,25,2022-02-12_11h17.18.936,lexical_decision_task_DD,2021.2.3,Win32,60.07449237,,z,1,1.2304,,,,,,,,1.2304,1,0,4,4,15,1,1001,WHAISE,z,,,,,,,,,,,,,,,,,,,,,,,,,,,,,,,,,,,,,,,,,,,,,,,,,,,,,,,,,,,,,,,,,
,,,,,,,,,,,,,,,,,6117f6388428f7fc03e16eb2,25,2022-02-12_11h17.18.936,lexical_decision_task_DD,2021.2.3,Win32,60.07449237,,z,1,1.5186,,,,,,,,1.5186,1,0,5,5,14,1,1001,THRALE,z,,,,,,,,,,,,,,,,,,,,,,,,,,,,,,,,,,,,,,,,,,,,,,,,,,,,,,,,,,,,,,,,,
,,,,,,,,,,,,,,,,,6117f6388428f7fc03e16eb2,25,2022-02-12_11h17.18.936,lexical_decision_task_DD,2021.2.3,Win32,60.07449237,,z,1,1.2107,,,,,,,,1.2107,1,0,6,6,13,1,1001,ROUPET,z,,,,,,,,,,,,,,,,,,,,,,,,,,,,,,,,,,,,,,,,,,,,,,,,,,,,,,,,,,,,,,,,,
,,,,,,,,,,,,,,,,,6117f6388428f7fc03e16eb2,25,2022-02-12_11h17.18.936,lexical_decision_task_DD,2021.2.3,Win32,60.07449237,,m,1,0.9924,,,,,,,,0.9924,1,0,7,7,0,1,1001,UTOPIA,m,,,,,,,,,,,,,,,,,,,,,,,,,,,,,,,,,,,,,,,,,,,,,,,,,,,,,,,,,,,,,,,,,
,,,,,,,,,,,,,,,,,6117f6388428f7fc03e16eb2,25,2022-02-12_11h17.18.936,lexical_decision_task_DD,2021.2.3,Win32,60.07449237,,m,1,0.6512,,,,,,,,0.6512,1,0,8,8,6,1,1001,ZOMBIE,m,,,,,,,,,,,,,,,,,,,,,,,,,,,,,,,,,,,,,,,,,,,,,,,,,,,,,,,,,,,,,,,,,
,,,,,,,,,,,,,,,,,6117f6388428f7fc03e16eb2,25,2022-02-12_11h17.18.936,lexical_decision_task_DD,2021.2.3,Win32,60.07449237,,m,1,0.5683,,,,,,,,0.5683,1,0,9,9,2,1,1001,ALMOND,m,,,,,,,,,,,,,,,,,,,,,,,,,,,,,,,,,,,,,,,,,,,,,,,,,,,,,,,,,,,,,,,,,
,,,,,,,,,,,,,,,,,6117f6388428f7fc03e16eb2,25,2022-02-12_11h17.18.936,lexical_decision_task_DD,2021.2.3,Win32,60.07449237,,m,1,0.6072,,,,,,,,0.6072,1,0,10,10,5,1,1001,OBTAIN,m,,,,,,,,,,,,,,,,,,,,,,,,,,,,,,,,,,,,,,,,,,,,,,,,,,,,,,,,,,,,,,,,,
,,,,,,,,,,,,,,,,,6117f6388428f7fc03e16eb2,25,2022-02-12_11h17.18.936,lexical_decision_task_DD,2021.2.3,Win32,60.07449237,,m,1,0.7107,,,,,,,,0.7107,1,0,11,11,3,1,1001,MATRIX,m,,,,,,,,,,,,,,,,,,,,,,,,,,,,,,,,,,,,,,,,,,,,,,,,,,,,,,,,,,,,,,,,,
,,,,,,,,,,,,,,,,,6117f6388428f7fc03e16eb2,25,2022-02-12_11h17.18.936,lexical_decision_task_DD,2021.2.3,Win32,60.07449237,,z,1,1.0765,,,,,,,,1.0765,1,0,12,12,8,1,1001,ASLERT,z,,,,,,,,,,,,,,,,,,,,,,,,,,,,,,,,,,,,,,,,,,,,,,,,,,,,,,,,,,,,,,,,,
,,,,,,,,,,,,,,,,,6117f6388428f7fc03e16eb2,25,2022-02-12_11h17.18.936,lexical_decision_task_DD,2021.2.3,Win32,60.07449237,,z,1,1.1791,,,,,,,,1.1791,1,0,13,13,9,1,1001,FARINY,z,,,,,,,,,,,,,,,,,,,,,,,,,,,,,,,,,,,,,,,,,,,,,,,,,,,,,,,,,,,,,,,,,
,,,,,,,,,,,,,,,,,6117f6388428f7fc03e16eb2,25,2022-02-12_11h17.18.936,lexical_decision_task_DD,2021.2.3,Win32,60.07449237,,m,1,0.7297,,,,,,,,0.7297,1,0,14,14,4,1,1001,SQUEAK,m,,,,,,,,,,,,,,,,,,,,,,,,,,,,,,,,,,,,,,,,,,,,,,,,,,,,,,,,,,,,,,,,,
,,,,,,,,,,,,,,,,,6117f6388428f7fc03e16eb2,25,2022-02-12_11h17.18.936,lexical_decision_task_DD,2021.2.3,Win32,60.07449237,,m,1,0.6278,,,,,,,,0.6278,1,0,15,15,1,1,1001,ADJUST,m,,,,,,,,,,,,,,,,,,,,,,,,,,,,,,,,,,,,,,,,,,,,,,,,,,,,,,,,,,,,,,,,,
space,0.752604167,-0.104166667,0,0,0,,,,,,,1,end_of_practice,"You have completed the practice trials. During the experimental trials, you will not receive feedback. 
Before you begin, please ensure that you are in a comfortable and quiet location and will not be disturbed for about 15 minutes, as we cannot use your data if you do not complete all the trials. 
 When you are ready to start the experimental trials, please press space or touch the button below.",,,6117f6388428f7fc03e16eb2,25,2022-02-12_11h17.18.936,lexical_decision_task_DD,2021.2.3,Win32,60.07449237,1.154,,,,,,,,,,,,,,,,,,,,,0,0,0,0,1,,,,,,,,,,,,,,,,,,,,,,,,,,,,,,,,,,,,,,,,,,,,,,,,,,,,,,,,,,,,
,,,,,,,,,,,,,,,,,6117f6388428f7fc03e16eb2,25,2022-02-12_11h17.18.936,lexical_decision_task_DD,2021.2.3,Win32,60.07449237,,,,,,,,,,,,0.6721,1,,,,,,,,,,,,,,m,1,0.6721,,,,,,,,0.752604167,-0.104166667,0,0,0,,0,0,0,21,1,KIDNEY,C,old,m,./images/KIDNEY.png,,,,,,,,,,,,,,,,,,,,,,,,,,,,,,,,,,
,,,,,,,,,,,,,,,,,6117f6388428f7fc03e16eb2,25,2022-02-12_11h17.18.936,lexical_decision_task_DD,2021.2.3,Win32,60.07449237,,,,,,,,,,,,0.8416,1,,,,,,,,,,,,,,m,1,0.8416,,,,,,,,0.752604167,-0.104166667,0,0,0,,0,1,1,74,1,CEMENT,LB,old,m,./images/CEMENTLB.png,,,,,,,,,,,,,,,,,,,,,,,,,,,,,,,,,,
,,,,,,,,,,,,,,,,,6117f6388428f7fc03e16eb2,25,2022-02-12_11h17.18.936,lexical_decision_task_DD,2021.2.3,Win32,60.07449237,,,,,,,,,,,,0.8127,1,,,,,,,,,,,,,,z,1,0.8127,,,,,,,,0.752604167,-0.104166667,0,0,0,,0,2,2,129,1,PRANS,C,old,z,./images/PRANS.png,,,,,,,,,,,,,,,,,,,,,,,,,,,,,,,,,,
,,,,,,,,,,,,,,,,,6117f6388428f7fc03e16eb2,25,2022-02-12_11h17.18.936,lexical_decision_task_DD,2021.2.3,Win32,60.07449237,,,,,,,,,,,,0.5896,1,,,,,,,,,,,,,,m,1,0.5896,,,,,,,,0.752604167,-0.104166667,0,0,0,,0,3,3,14,1,PICKLE,LB,old,m,./images/PICKLELB.png,,,,,,,,,,,,,,,,,,,,,,,,,,,,,,,,,,
,,,,,,,,,,,,,,,,,6117f6388428f7fc03e16eb2,25,2022-02-12_11h17.18.936,lexical_decision_task_DD,2021.2.3,Win32,60.07449237,,,,,,,,,,,,0.5233,1,,,,,,,,,,,,,,m,1,0.5233,,,,,,,,0.752604167,-0.104166667,0,0,0,,0,4,4,57,1,MOOSE,C,old,m,./images/MOOSE.png,,,,,,,,,,,,,,,,,,,,,,,,,,,,,,,,,,
,,,,,,,,,,,,,,,,,6117f6388428f7fc03e16eb2,25,2022-02-12_11h17.18.936,lexical_decision_task_DD,2021.2.3,Win32,60.07449237,,,,,,,,,,,,1.4403,1,,,,,,,,,,,,,,z,1,1.4403,,,,,,,,0.752604167,-0.104166667,0,0,0,,0,5,5,164,1,SGREW,LB,old,z,./images/SGREWLB.png,,,,,,,,,,,,,,,,,,,,,,,,,,,,,,,,,,
,,,,,,,,,,,,,,,,,6117f6388428f7fc03e16eb2,25,2022-02-12_11h17.18.936,lexical_decision_task_DD,2021.2.3,Win32,60.07449237,,,,,,,,,,,,0.7808,1,,,,,,,,,,,,,,z,1,0.7808,,,,,,,,0.752604167,-0.104166667,0,0,0,,0,6,6,125,1,MOOKY,LB,old,z,./images/MOOKYLB.png,,,,,,,,,,,,,,,,,,,,,,,,,,,,,,,,,,
,,,,,,,,,,,,,,,,,6117f6388428f7fc03e16eb2,25,2022-02-12_11h17.18.936,lexical_decision_task_DD,2021.2.3,Win32,60.07449237,,,,,,,,,,,,0.8592,1,,,,,,,,,,,,,,m,1,0.8592,,,,,,,,0.752604167,-0.104166667,0,0,0,,0,7,7,13,1,MOTOR,HB,old,m,./images/MOTORHB.png,,,,,,,,,,,,,,,,,,,,,,,,,,,,,,,,,,
,,,,,,,,,,,,,,,,,6117f6388428f7fc03e16eb2,25,2022-02-12_11h17.18.936,lexical_decision_task_DD,2021.2.3,Win32,60.07449237,,,,,,,,,,,,0.7539,1,,,,,,,,,,,,,,m,1,0.7539,,,,,,,,0.752604167,-0.104166667,0,0,0,,0,8,8,64,1,JELLY,HB,old,m,./images/JELLYHB.png,,,,,,,,,,,,,,,,,,,,,,,,,,,,,,,,,,
,,,,,,,,,,,,,,,,,6117f6388428f7fc03e16eb2,25,2022-02-12_11h17.18.936,lexical_decision_task_DD,2021.2.3,Win32,60.07449237,,,,,,,,,,,,0.7082,1,,,,,,,,,,,,,,m,1,0.7082,,,,,,,,0.752604167,-0.104166667,0,0,0,,0,9,9,9,1,RHINO,C,old,m,./images/RHINO.png,,,,,,,,,,,,,,,,,,,,,,,,,,,,,,,,,,
,,,,,,,,,,,,,,,,,6117f6388428f7fc03e16eb2,25,2022-02-12_11h17.18.936,lexical_decision_task_DD,2021.2.3,Win32,60.07449237,,,,,,,,,,,,0.6307,1,,,,,,,,,,,,,,z,1,0.6307,,,,,,,,0.752604167,-0.104166667,0,0,0,,0,10,10,147,1,ZOLES,C,old,z,./images/ZOLES.png,,,,,,,,,,,,,,,,,,,,,,,,,,,,,,,,,,
,,,,,,,,,,,,,,,,,6117f6388428f7fc03e16eb2,25,2022-02-12_11h17.18.936,lexical_decision_task_DD,2021.2.3,Win32,60.07449237,,,,,,,,,,,,1.1248,1,,,,,,,,,,,,,,z,1,1.1248,,,,,,,,0.752604167,-0.104166667,0,0,0,,0,11,11,139,1,BLEAR,HB,old,z,./images/BLEARHB.png,,,,,,,,,,,,,,,,,,,,,,,,,,,,,,,,,,
,,,,,,,,,,,,,,,,,6117f6388428f7fc03e16eb2,25,2022-02-12_11h17.18.936,lexical_decision_task_DD,2021.2.3,Win32,60.07449237,,,,,,,,,,,,0.9445,1,,,,,,,,,,,,,,z,1,0.9445,,,,,,,,0.752604167,-0.104166667,0,0,0,,0,12,12,92,1,PAIMS,LB,old,z,./images/PAIMSLB.png,,,,,,,,,,,,,,,,,,,,,,,,,,,,,,,,,,
,,,,,,,,,,,,,,,,,6117f6388428f7fc03e16eb2,25,2022-02-12_11h17.18.936,lexical_decision_task_DD,2021.2.3,Win32,60.07449237,,,,,,,,,,,,0.6544,1,,,,,,,,,,,,,,m,1,0.6544,,,,,,,,0.752604167,-0.104166667,0,0,0,,0,13,13,1,1,PLANK,HB,old,m,./images/PLANKHB.png,,,,,,,,,,,,,,,,,,,,,,,,,,,,,,,,,,
,,,,,,,,,,,,,,,,,6117f6388428f7fc03e16eb2,25,2022-02-12_11h17.18.936,lexical_decision_task_DD,2021.2.3,Win32,60.07449237,,,,,,,,,,,,0.7787,1,,,,,,,,,,,,,,z,1,0.7787,,,,,,,,0.752604167,-0.104166667,0,0,0,,0,14,14,149,1,VEASE,LB,old,z,./images/VEASELB.png,,,,,,,,,,,,,,,,,,,,,,,,,,,,,,,,,,
,,,,,,,,,,,,,,,,,6117f6388428f7fc03e16eb2,25,2022-02-12_11h17.18.936,lexical_decision_task_DD,2021.2.3,Win32,60.07449237,,,,,,,,,,,,0.6183,1,,,,,,,,,,,,,,m,1,0.6183,,,,,,,,0.752604167,-0.104166667,0,0,0,,0,15,15,66,1,SWEAT,C,old,m,./images/SWEAT.png,,,,,,,,,,,,,,,,,,,,,,,,,,,,,,,,,,
,,,,,,,,,,,,,,,,,6117f6388428f7fc03e16eb2,25,2022-02-12_11h17.18.936,lexical_decision_task_DD,2021.2.3,Win32,60.07449237,,,,,,,,,,,,1.8684,1,,,,,,,,,,,,,,z,1,1.8684,,,,,,,,0.752604167,-0.104166667,0,0,0,,0,16,16,94,1,BLANS,HB,old,z,./images/BLANSHB.png,,,,,,,,,,,,,,,,,,,,,,,,,,,,,,,,,,
,,,,,,,,,,,,,,,,,6117f6388428f7fc03e16eb2,25,2022-02-12_11h17.18.936,lexical_decision_task_DD,2021.2.3,Win32,60.07449237,,,,,,,,,,,,1.4166,1,,,,,,,,,,,,,,m,1,1.4166,,,,,,,,0.752604167,-0.104166667,0,0,0,,0,17,17,15,1,GREASE,C,old,m,./images/GREASE.png,,,,,,,,,,,,,,,,,,,,,,,,,,,,,,,,,,
,,,,,,,,,,,,,,,,,6117f6388428f7fc03e16eb2,25,2022-02-12_11h17.18.936,lexical_decision_task_DD,2021.2.3,Win32,60.07449237,,,,,,,,,,,,0.9981,1,,,,,,,,,,,,,,m,1,0.9981,,,,,,,,0.752604167,-0.104166667,0,0,0,,0,18,18,29,1,CRUMB,LB,old,m,./images/CRUMBLB.png,,,,,,,,,,,,,,,,,,,,,,,,,,,,,,,,,,
,,,,,,,,,,,,,,,,,6117f6388428f7fc03e16eb2,25,2022-02-12_11h17.18.936,lexical_decision_task_DD,2021.2.3,Win32,60.07449237,,,,,,,,,,,,0.8331,1,,,,,,,,,,,,,,m,1,0.8331,,,,,,,,0.752604167,-0.104166667,0,0,0,,0,19,19,46,1,PEARL,HB,old,m,./images/PEARLHB.png,,,,,,,,,,,,,,,,,,,,,,,,,,,,,,,,,,
,,,,,,,,,,,,,,,,,6117f6388428f7fc03e16eb2,25,2022-02-12_11h17.18.936,lexical_decision_task_DD,2021.2.3,Win32,60.07449237,,,,,,,,,,,,0.8173,1,,,,,,,,,,,,,,m,1,0.8173,,,,,,,,0.752604167,-0.104166667,0,0,0,,0,20,20,56,1,PACKET,LB,old,m,./images/PACKETLB.png,,,,,,,,,,,,,,,,,,,,,,,,,,,,,,,,,,
,,,,,,,,,,,,,,,,,6117f6388428f7fc03e16eb2,25,2022-02-12_11h17.18.936,lexical_decision_task_DD,2021.2.3,Win32,60.07449237,,,,,,,,,,,,0.7462,1,,,,,,,,,,,,,,z,1,0.7462,,,,,,,,0.752604167,-0.104166667,0,0,0,,0,21,21,98,1,BAMPS,LB,old,z,./images/BAMPSLB.png,,,,,,,,,,,,,,,,,,,,,,,,,,,,,,,,,,
,,,,,,,,,,,,,,,,,6117f6388428f7fc03e16eb2,25,2022-02-12_11h17.18.936,lexical_decision_task_DD,2021.2.3,Win32,60.07449237,,,,,,,,,,,,0.667,1,,,,,,,,,,,,,,m,1,0.667,,,,,,,,0.752604167,-0.104166667,0,0,0,,0,22,22,5,1,PASTA,LB,old,m,./images/PASTALB.png,,,,,,,,,,,,,,,,,,,,,,,,,,,,,,,,,,
,,,,,,,,,,,,,,,,,6117f6388428f7fc03e16eb2,25,2022-02-12_11h17.18.936,lexical_decision_task_DD,2021.2.3,Win32,60.07449237,,,,,,,,,,,,2.8669,1,,,,,,,,,,,,,,m,1,2.8669,,,,,,,,0.752604167,-0.104166667,0,0,0,,0,23,23,67,1,SAILOR,HB,old,m,./images/SAILORHB.png,,,,,,,,,,,,,,,,,,,,,,,,,,,,,,,,,,
,,,,,,,,,,,,,,,,,6117f6388428f7fc03e16eb2,25,2022-02-12_11h17.18.936,lexical_decision_task_DD,2021.2.3,Win32,60.07449237,,,,,,,,,,,,0.7193,1,,,,,,,,,,,,,,m,1,0.7193,,,,,,,,0.752604167,-0.104166667,0,0,0,,0,24,24,42,1,FOLDER,C,old,m,./images/FOLDER.png,,,,,,,,,,,,,,,,,,,,,,,,,,,,,,,,,,
,,,,,,,,,,,,,,,,,6117f6388428f7fc03e16eb2,25,2022-02-12_11h17.18.936,lexical_decision_task_DD,2021.2.3,Win32,60.07449237,,,,,,,,,,,,1.5739,1,,,,,,,,,,,,,,z,1,1.5739,,,,,,,,0.752604167,-0.104166667,0,0,0,,0,25,25,156,1,HIXES,C,old,z,./images/HIXES.png,,,,,,,,,,,,,,,,,,,,,,,,,,,,,,,,,,
,,,,,,,,,,,,,,,,,6117f6388428f7fc03e16eb2,25,2022-02-12_11h17.18.936,lexical_decision_task_DD,2021.2.3,Win32,60.07449237,,,,,,,,,,,,0.733,1,,,,,,,,,,,,,,m,1,0.733,,,,,,,,0.752604167,-0.104166667,0,0,0,,0,26,26,33,1,MAGGOT,C,old,m,./images/MAGGOT.png,,,,,,,,,,,,,,,,,,,,,,,,,,,,,,,,,,
,,,,,,,,,,,,,,,,,6117f6388428f7fc03e16eb2,25,2022-02-12_11h17.18.936,lexical_decision_task_DD,2021.2.3,Win32,60.07449237,,,,,,,,,,,,1.0843,1,,,,,,,,,,,,,,z,1,1.0843,,,,,,,,0.752604167,-0.104166667,0,0,0,,0,27,27,109,1,BURGE,HB,old,z,./images/BURGEHB.png,,,,,,,,,,,,,,,,,,,,,,,,,,,,,,,,,,
,,,,,,,,,,,,,,,,,6117f6388428f7fc03e16eb2,25,2022-02-12_11h17.18.936,lexical_decision_task_DD,2021.2.3,Win32,60.07449237,,,,,,,,,,,,0.8546,1,,,,,,,,,,,,,,z,1,0.8546,,,,,,,,0.752604167,-0.104166667,0,0,0,,0,28,28,105,1,MOKER,C,old,z,./images/MOKER.png,,,,,,,,,,,,,,,,,,,,,,,,,,,,,,,,,,
,,,,,,,,,,,,,,,,,6117f6388428f7fc03e16eb2,25,2022-02-12_11h17.18.936,lexical_decision_task_DD,2021.2.3,Win32,60.07449237,,,,,,,,,,,,1.075,1,,,,,,,,,,,,,,z,1,1.075,,,,,,,,0.752604167,-0.104166667,0,0,0,,0,29,29,93,1,SMONE,C,old,z,./images/SMONE.png,,,,,,,,,,,,,,,,,,,,,,,,,,,,,,,,,,
,,,,,,,,,,,,,,,,,6117f6388428f7fc03e16eb2,25,2022-02-12_11h17.18.936,lexical_decision_task_DD,2021.2.3,Win32,60.07449237,,,,,,,,,,,,0.5494,1,,,,,,,,,,,,,,m,1,0.5494,,,,,,,,0.752604167,-0.104166667,0,0,0,,0,30,30,69,1,COOKER,C,old,m,./images/COOKER.png,,,,,,,,,,,,,,,,,,,,,,,,,,,,,,,,,,
,,,,,,,,,,,,,,,,,6117f6388428f7fc03e16eb2,25,2022-02-12_11h17.18.936,lexical_decision_task_DD,2021.2.3,Win32,60.07449237,,,,,,,,,,,,0.9596,1,,,,,,,,,,,,,,z,1,0.9596,,,,,,,,0.752604167,-0.104166667,0,0,0,,0,31,31,165,1,TROWN,C,old,z,./images/TROWN.png,,,,,,,,,,,,,,,,,,,,,,,,,,,,,,,,,,
,,,,,,,,,,,,,,,,,6117f6388428f7fc03e16eb2,25,2022-02-12_11h17.18.936,lexical_decision_task_DD,2021.2.3,Win32,60.07449237,,,,,,,,,,,,2.7934,1,,,,,,,,,,,,,,z,1,2.7934,,,,,,,,0.752604167,-0.104166667,0,0,0,,0,32,32,148,1,JOMS,HB,old,z,./images/JOMSHB.png,,,,,,,,,,,,,,,,,,,,,,,,,,,,,,,,,,
,,,,,,,,,,,,,,,,,6117f6388428f7fc03e16eb2,25,2022-02-12_11h17.18.936,lexical_decision_task_DD,2021.2.3,Win32,60.07449237,,,,,,,,,,,,0.7081,1,,,,,,,,,,,,,,z,1,0.7081,,,,,,,,0.752604167,-0.104166667,0,0,0,,0,33,33,150,1,NOOLS,C,old,z,./images/NOOLS.png,,,,,,,,,,,,,,,,,,,,,,,,,,,,,,,,,,
,,,,,,,,,,,,,,,,,6117f6388428f7fc03e16eb2,25,2022-02-12_11h17.18.936,lexical_decision_task_DD,2021.2.3,Win32,60.07449237,,,,,,,,,,,,0.6744,1,,,,,,,,,,,,,,m,1,0.6744,,,,,,,,0.752604167,-0.104166667,0,0,0,,0,34,34,39,1,SHELF,C,old,m,./images/SHELF.png,,,,,,,,,,,,,,,,,,,,,,,,,,,,,,,,,,
,,,,,,,,,,,,,,,,,6117f6388428f7fc03e16eb2,25,2022-02-12_11h17.18.936,lexical_decision_task_DD,2021.2.3,Win32,60.07449237,,,,,,,,,,,,0.6894,1,,,,,,,,,,,,,,z,1,0.6894,,,,,,,,0.752604167,-0.104166667,0,0,0,,0,35,35,167,1,ZONET,LB,old,z,./images/ZONETLB.png,,,,,,,,,,,,,,,,,,,,,,,,,,,,,,,,,,
,,,,,,,,,,,,,,,,,6117f6388428f7fc03e16eb2,25,2022-02-12_11h17.18.936,lexical_decision_task_DD,2021.2.3,Win32,60.07449237,,,,,,,,,,,,0.6667,1,,,,,,,,,,,,,,m,1,0.6667,,,,,,,,0.752604167,-0.104166667,0,0,0,,0,36,36,83,1,JUNGLE,LB,old,m,./images/JUNGLELB.png,,,,,,,,,,,,,,,,,,,,,,,,,,,,,,,,,,
,,,,,,,,,,,,,,,,,6117f6388428f7fc03e16eb2,25,2022-02-12_11h17.18.936,lexical_decision_task_DD,2021.2.3,Win32,60.07449237,,,,,,,,,,,,0.9007,1,,,,,,,,,,,,,,m,1,0.9007,,,,,,,,0.752604167,-0.104166667,0,0,0,,0,37,37,8,1,TULIP,LB,old,m,./images/TULIPLB.png,,,,,,,,,,,,,,,,,,,,,,,,,,,,,,,,,,
,,,,,,,,,,,,,,,,,6117f6388428f7fc03e16eb2,25,2022-02-12_11h17.18.936,lexical_decision_task_DD,2021.2.3,Win32,60.07449237,,,,,,,,,,,,0.7101,1,,,,,,,,,,,,,,z,1,0.7101,,,,,,,,0.752604167,-0.104166667,0,0,0,,0,38,38,146,1,MOOST,LB,old,z,./images/MOOSTLB.png,,,,,,,,,,,,,,,,,,,,,,,,,,,,,,,,,,
,,,,,,,,,,,,,,,,,6117f6388428f7fc03e16eb2,25,2022-02-12_11h17.18.936,lexical_decision_task_DD,2021.2.3,Win32,60.07449237,,,,,,,,,,,,0.6897,1,,,,,,,,,,,,,,m,1,0.6897,,,,,,,,0.752604167,-0.104166667,0,0,0,,0,39,39,24,1,SCREW,C,old,m,./images/SCREW.png,,,,,,,,,,,,,,,,,,,,,,,,,,,,,,,,,,
,,,,,,,,,,,,,,,,,6117f6388428f7fc03e16eb2,25,2022-02-12_11h17.18.936,lexical_decision_task_DD,2021.2.3,Win32,60.07449237,,,,,,,,,,,,0.7767,1,,,,,,,,,,,,,,z,1,0.7767,,,,,,,,0.752604167,-0.104166667,0,0,0,,0,40,40,155,1,CANGY,LB,old,z,./images/CANGYLB.png,,,,,,,,,,,,,,,,,,,,,,,,,,,,,,,,,,
,,,,,,,,,,,,,,,,,6117f6388428f7fc03e16eb2,25,2022-02-12_11h17.18.936,lexical_decision_task_DD,2021.2.3,Win32,60.07449237,,,,,,,,,,,,0.6423,1,,,,,,,,,,,,,,z,1,0.6423,,,,,,,,0.752604167,-0.104166667,0,0,0,space,0,41,41,132,1,SCIFF,C,old,z,./images/SCIFF.png,6.2816,,,,,,,,,,,,,,,,,,,,,,,,,,,,,,,,,
,,,,,,,,,,,,,,,,,6117f6388428f7fc03e16eb2,25,2022-02-12_11h17.18.936,lexical_decision_task_DD,2021.2.3,Win32,60.07449237,,,,,,,,,,,,0.6032,1,,,,,,,,,,,,,,z,1,0.6032,,,,,,,,0.752604167,-0.104166667,0,0,0,,0,42,42,153,1,CLUPS,C,old,z,./images/CLUPS.png,,,,,,,,,,,,,,,,,,,,,,,,,,,,,,,,,,
,,,,,,,,,,,,,,,,,6117f6388428f7fc03e16eb2,25,2022-02-12_11h17.18.936,lexical_decision_task_DD,2021.2.3,Win32,60.07449237,,,,,,,,,,,,1.6441,0,,,,,,,,,,,,,,z,0,1.6441,,,,,,,,0.752604167,-0.104166667,0,0,0,,0,43,43,37,1,BIRTH,HB,old,m,./images/BIRTHHB.png,,,,,,,,,,,,,,,,,,,,,,,,,,,,,,,,,,
,,,,,,,,,,,,,,,,,6117f6388428f7fc03e16eb2,25,2022-02-12_11h17.18.936,lexical_decision_task_DD,2021.2.3,Win32,60.07449237,,,,,,,,,,,,2.217,1,,,,,,,,,,,,,,z,1,2.217,,,,,,,,0.752604167,-0.104166667,0,0,0,,0,44,44,115,1,MAWNS,HB,old,z,./images/MAWNSHB.png,,,,,,,,,,,,,,,,,,,,,,,,,,,,,,,,,,
,,,,,,,,,,,,,,,,,6117f6388428f7fc03e16eb2,25,2022-02-12_11h17.18.936,lexical_decision_task_DD,2021.2.3,Win32,60.07449237,,,,,,,,,,,,0.7944,1,,,,,,,,,,,,,,z,1,0.7944,,,,,,,,0.752604167,-0.104166667,0,0,0,,0,45,45,113,1,LINEW,LB,old,z,./images/LINEWLB.png,,,,,,,,,,,,,,,,,,,,,,,,,,,,,,,,,,
,,,,,,,,,,,,,,,,,6117f6388428f7fc03e16eb2,25,2022-02-12_11h17.18.936,lexical_decision_task_DD,2021.2.3,Win32,60.07449237,,,,,,,,,,,,0.7608,1,,,,,,,,,,,,,,m,1,0.7608,,,,,,,,0.752604167,-0.104166667,0,0,0,,0,46,46,36,1,THROAT,C,old,m,./images/THROAT.png,,,,,,,,,,,,,,,,,,,,,,,,,,,,,,,,,,
,,,,,,,,,,,,,,,,,6117f6388428f7fc03e16eb2,25,2022-02-12_11h17.18.936,lexical_decision_task_DD,2021.2.3,Win32,60.07449237,,,,,,,,,,,,0.636,1,,,,,,,,,,,,,,z,1,0.636,,,,,,,,0.752604167,-0.104166667,0,0,0,,0,47,47,95,1,HANTY,LB,old,z,./images/HANTYLB.png,,,,,,,,,,,,,,,,,,,,,,,,,,,,,,,,,,
,,,,,,,,,,,,,,,,,6117f6388428f7fc03e16eb2,25,2022-02-12_11h17.18.936,lexical_decision_task_DD,2021.2.3,Win32,60.07449237,,,,,,,,,,,,0.6291,1,,,,,,,,,,,,,,m,1,0.6291,,,,,,,,0.752604167,-0.104166667,0,0,0,,0,48,48,62,1,PURSE,LB,old,m,./images/PURSELB.png,,,,,,,,,,,,,,,,,,,,,,,,,,,,,,,,,,
,,,,,,,,,,,,,,,,,6117f6388428f7fc03e16eb2,25,2022-02-12_11h17.18.936,lexical_decision_task_DD,2021.2.3,Win32,60.07449237,,,,,,,,,,,,0.9123,1,,,,,,,,,,,,,,m,1,0.9123,,,,,,,,0.752604167,-0.104166667,0,0,0,,0,49,49,28,1,FALCON,HB,old,m,./images/FALCONHB.png,,,,,,,,,,,,,,,,,,,,,,,,,,,,,,,,,,
,,,,,,,,,,,,,,,,,6117f6388428f7fc03e16eb2,25,2022-02-12_11h17.18.936,lexical_decision_task_DD,2021.2.3,Win32,60.07449237,,,,,,,,,,,,1.3359,1,,,,,,,,,,,,,,m,1,1.3359,,,,,,,,0.752604167,-0.104166667,0,0,0,,0,50,50,32,1,BARREL,LB,old,m,./images/BARRELLB.png,,,,,,,,,,,,,,,,,,,,,,,,,,,,,,,,,,
,,,,,,,,,,,,,,,,,6117f6388428f7fc03e16eb2,25,2022-02-12_11h17.18.936,lexical_decision_task_DD,2021.2.3,Win32,60.07449237,,,,,,,,,,,,1.8555,1,,,,,,,,,,,,,,m,1,1.8555,,,,,,,,0.752604167,-0.104166667,0,0,0,,0,51,51,16,1,PENCE,HB,old,m,./images/PENCEHB.png,,,,,,,,,,,,,,,,,,,,,,,,,,,,,,,,,,
,,,,,,,,,,,,,,,,,6117f6388428f7fc03e16eb2,25,2022-02-12_11h17.18.936,lexical_decision_task_DD,2021.2.3,Win32,60.07449237,,,,,,,,,,,,0.9574,1,,,,,,,,,,,,,,m,1,0.9574,,,,,,,,0.752604167,-0.104166667,0,0,0,,0,52,52,79,1,CRUST,HB,old,m,./images/CRUSTHB.png,,,,,,,,,,,,,,,,,,,,,,,,,,,,,,,,,,
,,,,,,,,,,,,,,,,,6117f6388428f7fc03e16eb2,25,2022-02-12_11h17.18.936,lexical_decision_task_DD,2021.2.3,Win32,60.07449237,,,,,,,,,,,,0.9626,1,,,,,,,,,,,,,,z,1,0.9626,,,,,,,,0.752604167,-0.104166667,0,0,0,,0,53,53,110,1,CRUNK,LB,old,z,./images/CRUNKLB.png,,,,,,,,,,,,,,,,,,,,,,,,,,,,,,,,,,
,,,,,,,,,,,,,,,,,6117f6388428f7fc03e16eb2,25,2022-02-12_11h17.18.936,lexical_decision_task_DD,2021.2.3,Win32,60.07449237,,,,,,,,,,,,1.1188,1,,,,,,,,,,,,,,m,1,1.1188,,,,,,,,0.752604167,-0.104166667,0,0,0,,0,54,54,10,1,BELLY,HB,old,m,./images/BELLYHB.png,,,,,,,,,,,,,,,,,,,,,,,,,,,,,,,,,,
,,,,,,,,,,,,,,,,,6117f6388428f7fc03e16eb2,25,2022-02-12_11h17.18.936,lexical_decision_task_DD,2021.2.3,Win32,60.07449237,,,,,,,,,,,,0.6678,1,,,,,,,,,,,,,,m,1,0.6678,,,,,,,,0.752604167,-0.104166667,0,0,0,,0,55,55,23,1,WALRUS,LB,old,m,./images/WALRUSLB.png,,,,,,,,,,,,,,,,,,,,,,,,,,,,,,,,,,
,,,,,,,,,,,,,,,,,6117f6388428f7fc03e16eb2,25,2022-02-12_11h17.18.936,lexical_decision_task_DD,2021.2.3,Win32,60.07449237,,,,,,,,,,,,1.7009,1,,,,,,,,,,,,,,z,1,1.7009,,,,,,,,0.752604167,-0.104166667,0,0,0,,0,56,56,121,1,CEERS,HB,old,z,./images/CEERSHB.png,,,,,,,,,,,,,,,,,,,,,,,,,,,,,,,,,,
,,,,,,,,,,,,,,,,,6117f6388428f7fc03e16eb2,25,2022-02-12_11h17.18.936,lexical_decision_task_DD,2021.2.3,Win32,60.07449237,,,,,,,,,,,,0.9606,1,,,,,,,,,,,,,,m,1,0.9606,,,,,,,,0.752604167,-0.104166667,0,0,0,,0,57,57,34,1,CANYON,HB,old,m,./images/CANYONHB.png,,,,,,,,,,,,,,,,,,,,,,,,,,,,,,,,,,
,,,,,,,,,,,,,,,,,6117f6388428f7fc03e16eb2,25,2022-02-12_11h17.18.936,lexical_decision_task_DD,2021.2.3,Win32,60.07449237,,,,,,,,,,,,0.8767,1,,,,,,,,,,,,,,m,1,0.8767,,,,,,,,0.752604167,-0.104166667,0,0,0,,0,58,58,73,1,SNACK,HB,old,m,./images/SNACKHB.png,,,,,,,,,,,,,,,,,,,,,,,,,,,,,,,,,,
,,,,,,,,,,,,,,,,,6117f6388428f7fc03e16eb2,25,2022-02-12_11h17.18.936,lexical_decision_task_DD,2021.2.3,Win32,60.07449237,,,,,,,,,,,,0.6059,1,,,,,,,,,,,,,,m,1,0.6059,,,,,,,,0.752604167,-0.104166667,0,0,0,,0,59,59,6,1,SQUARE,C,old,m,./images/SQUARE.png,,,,,,,,,,,,,,,,,,,,,,,,,,,,,,,,,,
,,,,,,,,,,,,,,,,,6117f6388428f7fc03e16eb2,25,2022-02-12_11h17.18.936,lexical_decision_task_DD,2021.2.3,Win32,60.07449237,,,,,,,,,,,,0.7248,1,,,,,,,,,,,,,,m,1,0.7248,,,,,,,,0.752604167,-0.104166667,0,0,0,,0,60,60,54,1,TRIPOD,C,old,m,./images/TRIPOD.png,,,,,,,,,,,,,,,,,,,,,,,,,,,,,,,,,,
,,,,,,,,,,,,,,,,,6117f6388428f7fc03e16eb2,25,2022-02-12_11h17.18.936,lexical_decision_task_DD,2021.2.3,Win32,60.07449237,,,,,,,,,,,,0.5685,1,,,,,,,,,,,,,,m,1,0.5685,,,,,,,,0.752604167,-0.104166667,0,0,0,,0,61,61,63,1,MIRROR,C,old,m,./images/MIRROR.png,,,,,,,,,,,,,,,,,,,,,,,,,,,,,,,,,,
,,,,,,,,,,,,,,,,,6117f6388428f7fc03e16eb2,25,2022-02-12_11h17.18.936,lexical_decision_task_DD,2021.2.3,Win32,60.07449237,,,,,,,,,,,,1.2527,1,,,,,,,,,,,,,,z,1,1.2527,,,,,,,,0.752604167,-0.104166667,0,0,0,,0,62,62,106,1,CLUMS,HB,old,z,./images/CLUMSHB.png,,,,,,,,,,,,,,,,,,,,,,,,,,,,,,,,,,
,,,,,,,,,,,,,,,,,6117f6388428f7fc03e16eb2,25,2022-02-12_11h17.18.936,lexical_decision_task_DD,2021.2.3,Win32,60.07449237,,,,,,,,,,,,0.7654,1,,,,,,,,,,,,,,m,1,0.7654,,,,,,,,0.752604167,-0.104166667,0,0,0,,0,63,63,71,1,PIMPLE,LB,old,m,./images/PIMPLELB.png,,,,,,,,,,,,,,,,,,,,,,,,,,,,,,,,,,
,,,,,,,,,,,,,,,,,6117f6388428f7fc03e16eb2,25,2022-02-12_11h17.18.936,lexical_decision_task_DD,2021.2.3,Win32,60.07449237,,,,,,,,,,,,0.7961,1,,,,,,,,,,,,,,m,1,0.7961,,,,,,,,0.752604167,-0.104166667,0,0,0,,0,64,64,50,1,MALLET,LB,old,m,./images/MALLETLB.png,,,,,,,,,,,,,,,,,,,,,,,,,,,,,,,,,,
,,,,,,,,,,,,,,,,,6117f6388428f7fc03e16eb2,25,2022-02-12_11h17.18.936,lexical_decision_task_DD,2021.2.3,Win32,60.07449237,,,,,,,,,,,,1.19,1,,,,,,,,,,,,,,m,1,1.19,,,,,,,,0.752604167,-0.104166667,0,0,0,,0,65,65,82,1,SUNSET,HB,old,m,./images/SUNSETHB.png,,,,,,,,,,,,,,,,,,,,,,,,,,,,,,,,,,
,,,,,,,,,,,,,,,,,6117f6388428f7fc03e16eb2,25,2022-02-12_11h17.18.936,lexical_decision_task_DD,2021.2.3,Win32,60.07449237,,,,,,,,,,,,3.0932,1,,,,,,,,,,,,,,z,1,3.0932,,,,,,,,0.752604167,-0.104166667,0,0,0,,0,66,66,85,1,CHULK,HB,old,z,./images/CHULKHB.png,,,,,,,,,,,,,,,,,,,,,,,,,,,,,,,,,,
,,,,,,,,,,,,,,,,,6117f6388428f7fc03e16eb2,25,2022-02-12_11h17.18.936,lexical_decision_task_DD,2021.2.3,Win32,60.07449237,,,,,,,,,,,,0.7793,1,,,,,,,,,,,,,,z,1,0.7793,,,,,,,,0.752604167,-0.104166667,0,0,0,,0,67,67,108,1,GRUET,C,old,z,./images/GRUET.png,,,,,,,,,,,,,,,,,,,,,,,,,,,,,,,,,,
,,,,,,,,,,,,,,,,,6117f6388428f7fc03e16eb2,25,2022-02-12_11h17.18.936,lexical_decision_task_DD,2021.2.3,Win32,60.07449237,,,,,,,,,,,,0.7459,1,,,,,,,,,,,,,,m,1,0.7459,,,,,,,,0.752604167,-0.104166667,0,0,0,,0,68,68,0,1,TOMATO,C,old,m,./images/TOMATO.png,,,,,,,,,,,,,,,,,,,,,,,,,,,,,,,,,,
,,,,,,,,,,,,,,,,,6117f6388428f7fc03e16eb2,25,2022-02-12_11h17.18.936,lexical_decision_task_DD,2021.2.3,Win32,60.07449237,,,,,,,,,,,,0.6974,1,,,,,,,,,,,,,,z,1,0.6974,,,,,,,,0.752604167,-0.104166667,0,0,0,,0,69,69,116,1,BALGY,LB,old,z,./images/BALGYLB.png,,,,,,,,,,,,,,,,,,,,,,,,,,,,,,,,,,
,,,,,,,,,,,,,,,,,6117f6388428f7fc03e16eb2,25,2022-02-12_11h17.18.936,lexical_decision_task_DD,2021.2.3,Win32,60.07449237,,,,,,,,,,,,0.6885,1,,,,,,,,,,,,,,m,1,0.6885,,,,,,,,0.752604167,-0.104166667,0,0,0,,0,70,70,41,1,STRING,LB,old,m,./images/STRINGLB.png,,,,,,,,,,,,,,,,,,,,,,,,,,,,,,,,,,
,,,,,,,,,,,,,,,,,6117f6388428f7fc03e16eb2,25,2022-02-12_11h17.18.936,lexical_decision_task_DD,2021.2.3,Win32,60.07449237,,,,,,,,,,,,0.5552,1,,,,,,,,,,,,,,m,1,0.5552,,,,,,,,0.752604167,-0.104166667,0,0,0,,0,71,71,35,1,PEACH,LB,old,m,./images/PEACHLB.png,,,,,,,,,,,,,,,,,,,,,,,,,,,,,,,,,,
,,,,,,,,,,,,,,,,,6117f6388428f7fc03e16eb2,25,2022-02-12_11h17.18.936,lexical_decision_task_DD,2021.2.3,Win32,60.07449237,,,,,,,,,,,,0.7537,1,,,,,,,,,,,,,,z,1,0.7537,,,,,,,,0.752604167,-0.104166667,0,0,0,,0,72,72,158,1,EGECT,LB,old,z,./images/EGECTLB.png,,,,,,,,,,,,,,,,,,,,,,,,,,,,,,,,,,
,,,,,,,,,,,,,,,,,6117f6388428f7fc03e16eb2,25,2022-02-12_11h17.18.936,lexical_decision_task_DD,2021.2.3,Win32,60.07449237,,,,,,,,,,,,0.8203,1,,,,,,,,,,,,,,m,1,0.8203,,,,,,,,0.752604167,-0.104166667,0,0,0,,0,73,73,27,1,ATTIC,C,old,m,./images/ATTIC.png,,,,,,,,,,,,,,,,,,,,,,,,,,,,,,,,,,
,,,,,,,,,,,,,,,,,6117f6388428f7fc03e16eb2,25,2022-02-12_11h17.18.936,lexical_decision_task_DD,2021.2.3,Win32,60.07449237,,,,,,,,,,,,0.7349,1,,,,,,,,,,,,,,z,1,0.7349,,,,,,,,0.752604167,-0.104166667,0,0,0,,0,74,74,161,1,BLAPS,LB,old,z,./images/BLAPSLB.png,,,,,,,,,,,,,,,,,,,,,,,,,,,,,,,,,,
,,,,,,,,,,,,,,,,,6117f6388428f7fc03e16eb2,25,2022-02-12_11h17.18.936,lexical_decision_task_DD,2021.2.3,Win32,60.07449237,,,,,,,,,,,,0.6091,1,,,,,,,,,,,,,,m,1,0.6091,,,,,,,,0.752604167,-0.104166667,0,0,0,,0,75,75,2,1,BEARD,LB,old,m,./images/BEARDLB.png,,,,,,,,,,,,,,,,,,,,,,,,,,,,,,,,,,
,,,,,,,,,,,,,,,,,6117f6388428f7fc03e16eb2,25,2022-02-12_11h17.18.936,lexical_decision_task_DD,2021.2.3,Win32,60.07449237,,,,,,,,,,,,0.6941,1,,,,,,,,,,,,,,m,1,0.6941,,,,,,,,0.752604167,-0.104166667,0,0,0,,0,76,76,81,1,POODLE,C,old,m,./images/POODLE.png,,,,,,,,,,,,,,,,,,,,,,,,,,,,,,,,,,
,,,,,,,,,,,,,,,,,6117f6388428f7fc03e16eb2,25,2022-02-12_11h17.18.936,lexical_decision_task_DD,2021.2.3,Win32,60.07449237,,,,,,,,,,,,1.0306,1,,,,,,,,,,,,,,z,1,1.0306,,,,,,,,0.752604167,-0.104166667,0,0,0,,0,77,77,145,1,LAMEL,HB,old,z,./images/LAMELHB.png,,,,,,,,,,,,,,,,,,,,,,,,,,,,,,,,,,
,,,,,,,,,,,,,,,,,6117f6388428f7fc03e16eb2,25,2022-02-12_11h17.18.936,lexical_decision_task_DD,2021.2.3,Win32,60.07449237,,,,,,,,,,,,0.7342,1,,,,,,,,,,,,,,z,1,0.7342,,,,,,,,0.752604167,-0.104166667,0,0,0,,0,78,78,122,1,BLOOT,LB,old,z,./images/BLOOTLB.png,,,,,,,,,,,,,,,,,,,,,,,,,,,,,,,,,,
,,,,,,,,,,,,,,,,,6117f6388428f7fc03e16eb2,25,2022-02-12_11h17.18.936,lexical_decision_task_DD,2021.2.3,Win32,60.07449237,,,,,,,,,,,,0.8913,1,,,,,,,,,,,,,,z,1,0.8913,,,,,,,,0.752604167,-0.104166667,0,0,0,,0,79,79,131,1,NACES,LB,old,z,./images/NACESLB.png,,,,,,,,,,,,,,,,,,,,,,,,,,,,,,,,,,
,,,,,,,,,,,,,,,,,6117f6388428f7fc03e16eb2,25,2022-02-12_11h17.18.936,lexical_decision_task_DD,2021.2.3,Win32,60.07449237,,,,,,,,,,,,0.6197,1,,,,,,,,,,,,,,m,1,0.6197,,,,,,,,0.752604167,-0.104166667,0,0,0,,0,80,80,45,1,KITTEN,C,old,m,./images/KITTEN.png,,,,,,,,,,,,,,,,,,,,,,,,,,,,,,,,,,
,,,,,,,,,,,,,,,,,6117f6388428f7fc03e16eb2,25,2022-02-12_11h17.18.936,lexical_decision_task_DD,2021.2.3,Win32,60.07449237,,,,,,,,,,,,0.9516,1,,,,,,,,,,,,,,z,1,0.9516,,,,,,,,0.752604167,-0.104166667,0,0,0,,0,81,81,104,1,GITTY,LB,old,z,./images/GITTYLB.png,,,,,,,,,,,,,,,,,,,,,,,,,,,,,,,,,,
,,,,,,,,,,,,,,,,,6117f6388428f7fc03e16eb2,25,2022-02-12_11h17.18.936,lexical_decision_task_DD,2021.2.3,Win32,60.07449237,,,,,,,,,,,,0.9072,1,,,,,,,,,,,,,,m,1,0.9072,,,,,,,,0.752604167,-0.104166667,0,0,0,,0,82,82,47,1,BERRY,LB,old,m,./images/BERRYLB.png,,,,,,,,,,,,,,,,,,,,,,,,,,,,,,,,,,
,,,,,,,,,,,,,,,,,6117f6388428f7fc03e16eb2,25,2022-02-12_11h17.18.936,lexical_decision_task_DD,2021.2.3,Win32,60.07449237,,,,,,,,,,,,2.0851,1,,,,,,,,,,,,,,m,1,2.0851,,,,,,,,0.752604167,-0.104166667,0,0,0,space,0,83,83,7,1,PAINT,HB,old,m,./images/PAINTHB.png,1.0183,,,,,,,,,,,,,,,,,,,,,,,,,,,,,,,,,
,,,,,,,,,,,,,,,,,6117f6388428f7fc03e16eb2,25,2022-02-12_11h17.18.936,lexical_decision_task_DD,2021.2.3,Win32,60.07449237,,,,,,,,,,,,0.808,1,,,,,,,,,,,,,,z,1,0.808,,,,,,,,0.752604167,-0.104166667,0,0,0,,0,84,84,123,1,SEDGE,C,old,z,./images/SEDGE.png,,,,,,,,,,,,,,,,,,,,,,,,,,,,,,,,,,
,,,,,,,,,,,,,,,,,6117f6388428f7fc03e16eb2,25,2022-02-12_11h17.18.936,lexical_decision_task_DD,2021.2.3,Win32,60.07449237,,,,,,,,,,,,0.5768,1,,,,,,,,,,,,,,m,1,0.5768,,,,,,,,0.752604167,-0.104166667,0,0,0,,0,85,85,77,1,COUCH,LB,old,m,./images/COUCHLB.png,,,,,,,,,,,,,,,,,,,,,,,,,,,,,,,,,,
,,,,,,,,,,,,,,,,,6117f6388428f7fc03e16eb2,25,2022-02-12_11h17.18.936,lexical_decision_task_DD,2021.2.3,Win32,60.07449237,,,,,,,,,,,,0.8044,1,,,,,,,,,,,,,,z,1,0.8044,,,,,,,,0.752604167,-0.104166667,0,0,0,,0,86,86,99,1,BACKY,C,old,z,./images/BACKY.png,,,,,,,,,,,,,,,,,,,,,,,,,,,,,,,,,,
,,,,,,,,,,,,,,,,,6117f6388428f7fc03e16eb2,25,2022-02-12_11h17.18.936,lexical_decision_task_DD,2021.2.3,Win32,60.07449237,,,,,,,,,,,,0.6123,1,,,,,,,,,,,,,,z,1,0.6123,,,,,,,,0.752604167,-0.104166667,0,0,0,,0,87,87,143,1,MONGS,LB,old,z,./images/MONGSLB.png,,,,,,,,,,,,,,,,,,,,,,,,,,,,,,,,,,
,,,,,,,,,,,,,,,,,6117f6388428f7fc03e16eb2,25,2022-02-12_11h17.18.936,lexical_decision_task_DD,2021.2.3,Win32,60.07449237,,,,,,,,,,,,0.5201,1,,,,,,,,,,,,,,z,1,0.5201,,,,,,,,0.752604167,-0.104166667,0,0,0,,0,88,88,140,1,DOVET,LB,old,z,./images/DOVETLB.png,,,,,,,,,,,,,,,,,,,,,,,,,,,,,,,,,,
,,,,,,,,,,,,,,,,,6117f6388428f7fc03e16eb2,25,2022-02-12_11h17.18.936,lexical_decision_task_DD,2021.2.3,Win32,60.07449237,,,,,,,,,,,,0.579,1,,,,,,,,,,,,,,m,1,0.579,,,,,,,,0.752604167,-0.104166667,0,0,0,,0,89,89,65,1,FARMER,LB,old,m,./images/FARMERLB.png,,,,,,,,,,,,,,,,,,,,,,,,,,,,,,,,,,
,,,,,,,,,,,,,,,,,6117f6388428f7fc03e16eb2,25,2022-02-12_11h17.18.936,lexical_decision_task_DD,2021.2.3,Win32,60.07449237,,,,,,,,,,,,0.8004,1,,,,,,,,,,,,,,z,1,0.8004,,,,,,,,0.752604167,-0.104166667,0,0,0,,0,90,90,124,1,TUNCH,HB,old,z,./images/TUNCHHB.png,,,,,,,,,,,,,,,,,,,,,,,,,,,,,,,,,,
,,,,,,,,,,,,,,,,,6117f6388428f7fc03e16eb2,25,2022-02-12_11h17.18.936,lexical_decision_task_DD,2021.2.3,Win32,60.07449237,,,,,,,,,,,,1.178,1,,,,,,,,,,,,,,m,1,1.178,,,,,,,,0.752604167,-0.104166667,0,0,0,,0,91,91,25,1,WRIST,HB,old,m,./images/WRISTHB.png,,,,,,,,,,,,,,,,,,,,,,,,,,,,,,,,,,
,,,,,,,,,,,,,,,,,6117f6388428f7fc03e16eb2,25,2022-02-12_11h17.18.936,lexical_decision_task_DD,2021.2.3,Win32,60.07449237,,,,,,,,,,,,1.0167,1,,,,,,,,,,,,,,m,1,1.0167,,,,,,,,0.752604167,-0.104166667,0,0,0,,0,92,92,76,1,INFANT,HB,old,m,./images/INFANTHB.png,,,,,,,,,,,,,,,,,,,,,,,,,,,,,,,,,,
,,,,,,,,,,,,,,,,,6117f6388428f7fc03e16eb2,25,2022-02-12_11h17.18.936,lexical_decision_task_DD,2021.2.3,Win32,60.07449237,,,,,,,,,,,,1.4093,1,,,,,,,,,,,,,,z,1,1.4093,,,,,,,,0.752604167,-0.104166667,0,0,0,,0,93,93,118,1,BAVEL,HB,old,z,./images/BAVELHB.png,,,,,,,,,,,,,,,,,,,,,,,,,,,,,,,,,,
,,,,,,,,,,,,,,,,,6117f6388428f7fc03e16eb2,25,2022-02-12_11h17.18.936,lexical_decision_task_DD,2021.2.3,Win32,60.07449237,,,,,,,,,,,,0.6511,1,,,,,,,,,,,,,,m,1,0.6511,,,,,,,,0.752604167,-0.104166667,0,0,0,,0,94,94,48,1,SPORT,C,old,m,./images/SPORT.png,,,,,,,,,,,,,,,,,,,,,,,,,,,,,,,,,,
,,,,,,,,,,,,,,,,,6117f6388428f7fc03e16eb2,25,2022-02-12_11h17.18.936,lexical_decision_task_DD,2021.2.3,Win32,60.07449237,,,,,,,,,,,,0.6082,1,,,,,,,,,,,,,,z,1,0.6082,,,,,,,,0.752604167,-0.104166667,0,0,0,,0,95,95,84,1,HAXES,C,old,z,./images/HAXES.png,,,,,,,,,,,,,,,,,,,,,,,,,,,,,,,,,,
,,,,,,,,,,,,,,,,,6117f6388428f7fc03e16eb2,25,2022-02-12_11h17.18.936,lexical_decision_task_DD,2021.2.3,Win32,60.07449237,,,,,,,,,,,,1.6842,1,,,,,,,,,,,,,,z,1,1.6842,,,,,,,,0.752604167,-0.104166667,0,0,0,,0,96,96,136,1,WERVE,HB,old,z,./images/WERVEHB.png,,,,,,,,,,,,,,,,,,,,,,,,,,,,,,,,,,
,,,,,,,,,,,,,,,,,6117f6388428f7fc03e16eb2,25,2022-02-12_11h17.18.936,lexical_decision_task_DD,2021.2.3,Win32,60.07449237,,,,,,,,,,,,0.7044,1,,,,,,,,,,,,,,m,1,0.7044,,,,,,,,0.752604167,-0.104166667,0,0,0,,0,97,97,61,1,CANDLE,HB,old,m,./images/CANDLEHB.png,,,,,,,,,,,,,,,,,,,,,,,,,,,,,,,,,,
,,,,,,,,,,,,,,,,,6117f6388428f7fc03e16eb2,25,2022-02-12_11h17.18.936,lexical_decision_task_DD,2021.2.3,Win32,60.07449237,,,,,,,,,,,,0.7364,1,,,,,,,,,,,,,,z,1,0.7364,,,,,,,,0.752604167,-0.104166667,0,0,0,,0,98,98,86,1,AIFED,LB,old,z,./images/AIFEDLB.png,,,,,,,,,,,,,,,,,,,,,,,,,,,,,,,,,,
,,,,,,,,,,,,,,,,,6117f6388428f7fc03e16eb2,25,2022-02-12_11h17.18.936,lexical_decision_task_DD,2021.2.3,Win32,60.07449237,,,,,,,,,,,,1.3111,1,,,,,,,,,,,,,,m,1,1.3111,,,,,,,,0.752604167,-0.104166667,0,0,0,,0,99,99,4,1,MUSCLE,HB,old,m,./images/MUSCLEHB.png,,,,,,,,,,,,,,,,,,,,,,,,,,,,,,,,,,
,,,,,,,,,,,,,,,,,6117f6388428f7fc03e16eb2,25,2022-02-12_11h17.18.936,lexical_decision_task_DD,2021.2.3,Win32,60.07449237,,,,,,,,,,,,0.7508,1,,,,,,,,,,,,,,z,1,0.7508,,,,,,,,0.752604167,-0.104166667,0,0,0,,0,100,100,107,1,FASKS,LB,old,z,./images/FASKSLB.png,,,,,,,,,,,,,,,,,,,,,,,,,,,,,,,,,,
,,,,,,,,,,,,,,,,,6117f6388428f7fc03e16eb2,25,2022-02-12_11h17.18.936,lexical_decision_task_DD,2021.2.3,Win32,60.07449237,,,,,,,,,,,,0.6501,1,,,,,,,,,,,,,,m,1,0.6501,,,,,,,,0.752604167,-0.104166667,0,0,0,,0,101,101,38,1,LADDER,LB,old,m,./images/LADDERLB.png,,,,,,,,,,,,,,,,,,,,,,,,,,,,,,,,,,
,,,,,,,,,,,,,,,,,6117f6388428f7fc03e16eb2,25,2022-02-12_11h17.18.936,lexical_decision_task_DD,2021.2.3,Win32,60.07449237,,,,,,,,,,,,2.3172,1,,,,,,,,,,,,,,z,1,2.3172,,,,,,,,0.752604167,-0.104166667,0,0,0,,0,102,102,91,1,SHENS,HB,old,z,./images/SHENSHB.png,,,,,,,,,,,,,,,,,,,,,,,,,,,,,,,,,,
,,,,,,,,,,,,,,,,,6117f6388428f7fc03e16eb2,25,2022-02-12_11h17.18.936,lexical_decision_task_DD,2021.2.3,Win32,60.07449237,,,,,,,,,,,,0.9844,1,,,,,,,,,,,,,,z,1,0.9844,,,,,,,,0.752604167,-0.104166667,0,0,0,,0,103,103,152,1,FRAIN,LB,old,z,./images/FRAINLB.png,,,,,,,,,,,,,,,,,,,,,,,,,,,,,,,,,,
,,,,,,,,,,,,,,,,,6117f6388428f7fc03e16eb2,25,2022-02-12_11h17.18.936,lexical_decision_task_DD,2021.2.3,Win32,60.07449237,,,,,,,,,,,,0.8609,1,,,,,,,,,,,,,,z,1,0.8609,,,,,,,,0.752604167,-0.104166667,0,0,0,,0,104,104,87,1,TRING,C,old,z,./images/TRING.png,,,,,,,,,,,,,,,,,,,,,,,,,,,,,,,,,,
,,,,,,,,,,,,,,,,,6117f6388428f7fc03e16eb2,25,2022-02-12_11h17.18.936,lexical_decision_task_DD,2021.2.3,Win32,60.07449237,,,,,,,,,,,,0.827,1,,,,,,,,,,,,,,z,1,0.827,,,,,,,,0.752604167,-0.104166667,0,0,0,,0,105,105,160,1,VEETS,HB,old,z,./images/VEETSHB.png,,,,,,,,,,,,,,,,,,,,,,,,,,,,,,,,,,
,,,,,,,,,,,,,,,,,6117f6388428f7fc03e16eb2,25,2022-02-12_11h17.18.936,lexical_decision_task_DD,2021.2.3,Win32,60.07449237,,,,,,,,,,,,0.822,1,,,,,,,,,,,,,,z,1,0.822,,,,,,,,0.752604167,-0.104166667,0,0,0,,0,106,106,135,1,JOODY,C,old,z,./images/JOODY.png,,,,,,,,,,,,,,,,,,,,,,,,,,,,,,,,,,
,,,,,,,,,,,,,,,,,6117f6388428f7fc03e16eb2,25,2022-02-12_11h17.18.936,lexical_decision_task_DD,2021.2.3,Win32,60.07449237,,,,,,,,,,,,0.6476,1,,,,,,,,,,,,,,m,1,0.6476,,,,,,,,0.752604167,-0.104166667,0,0,0,,0,107,107,78,1,LITTER,C,old,m,./images/LITTER.png,,,,,,,,,,,,,,,,,,,,,,,,,,,,,,,,,,
,,,,,,,,,,,,,,,,,6117f6388428f7fc03e16eb2,25,2022-02-12_11h17.18.936,lexical_decision_task_DD,2021.2.3,Win32,60.07449237,,,,,,,,,,,,0.8385,1,,,,,,,,,,,,,,m,1,0.8385,,,,,,,,0.752604167,-0.104166667,0,0,0,,0,108,108,49,1,DRUMS,HB,old,m,./images/DRUMSHB.png,,,,,,,,,,,,,,,,,,,,,,,,,,,,,,,,,,
,,,,,,,,,,,,,,,,,6117f6388428f7fc03e16eb2,25,2022-02-12_11h17.18.936,lexical_decision_task_DD,2021.2.3,Win32,60.07449237,,,,,,,,,,,,2.8855,1,,,,,,,,,,,,,,z,1,2.8855,,,,,,,,0.752604167,-0.104166667,0,0,0,,0,109,109,142,1,PLASK,HB,old,z,./images/PLASKHB.png,,,,,,,,,,,,,,,,,,,,,,,,,,,,,,,,,,
,,,,,,,,,,,,,,,,,6117f6388428f7fc03e16eb2,25,2022-02-12_11h17.18.936,lexical_decision_task_DD,2021.2.3,Win32,60.07449237,,,,,,,,,,,,1.1226,1,,,,,,,,,,,,,,z,1,1.1226,,,,,,,,0.752604167,-0.104166667,0,0,0,,0,110,110,133,1,POWDY,HB,old,z,./images/POWDYHB.png,,,,,,,,,,,,,,,,,,,,,,,,,,,,,,,,,,
,,,,,,,,,,,,,,,,,6117f6388428f7fc03e16eb2,25,2022-02-12_11h17.18.936,lexical_decision_task_DD,2021.2.3,Win32,60.07449237,,,,,,,,,,,,1.374,1,,,,,,,,,,,,,,z,1,1.374,,,,,,,,0.752604167,-0.104166667,0,0,0,,0,111,111,101,1,GLEET,LB,old,z,./images/GLEETLB.png,,,,,,,,,,,,,,,,,,,,,,,,,,,,,,,,,,
,,,,,,,,,,,,,,,,,6117f6388428f7fc03e16eb2,25,2022-02-12_11h17.18.936,lexical_decision_task_DD,2021.2.3,Win32,60.07449237,,,,,,,,,,,,0.6508,1,,,,,,,,,,,,,,m,1,0.6508,,,,,,,,0.752604167,-0.104166667,0,0,0,,0,112,112,53,1,CARPET,LB,old,m,./images/CARPETLB.png,,,,,,,,,,,,,,,,,,,,,,,,,,,,,,,,,,
,,,,,,,,,,,,,,,,,6117f6388428f7fc03e16eb2,25,2022-02-12_11h17.18.936,lexical_decision_task_DD,2021.2.3,Win32,60.07449237,,,,,,,,,,,,0.6982,1,,,,,,,,,,,,,,z,1,0.6982,,,,,,,,0.752604167,-0.104166667,0,0,0,,0,113,113,120,1,RINED,C,old,z,./images/RINED.png,,,,,,,,,,,,,,,,,,,,,,,,,,,,,,,,,,
,,,,,,,,,,,,,,,,,6117f6388428f7fc03e16eb2,25,2022-02-12_11h17.18.936,lexical_decision_task_DD,2021.2.3,Win32,60.07449237,,,,,,,,,,,,0.6172,1,,,,,,,,,,,,,,m,1,0.6172,,,,,,,,0.752604167,-0.104166667,0,0,0,,0,114,114,3,1,FINGER,C,old,m,./images/FINGER.png,,,,,,,,,,,,,,,,,,,,,,,,,,,,,,,,,,
,,,,,,,,,,,,,,,,,6117f6388428f7fc03e16eb2,25,2022-02-12_11h17.18.936,lexical_decision_task_DD,2021.2.3,Win32,60.07449237,,,,,,,,,,,,0.6342,1,,,,,,,,,,,,,,m,1,0.6342,,,,,,,,0.752604167,-0.104166667,0,0,0,,0,115,115,68,1,TORCH,LB,old,m,./images/TORCHLB.png,,,,,,,,,,,,,,,,,,,,,,,,,,,,,,,,,,
,,,,,,,,,,,,,,,,,6117f6388428f7fc03e16eb2,25,2022-02-12_11h17.18.936,lexical_decision_task_DD,2021.2.3,Win32,60.07449237,,,,,,,,,,,,0.7211,1,,,,,,,,,,,,,,m,1,0.7211,,,,,,,,0.752604167,-0.104166667,0,0,0,,0,116,116,22,1,MELON,HB,old,m,./images/MELONHB.png,,,,,,,,,,,,,,,,,,,,,,,,,,,,,,,,,,
,,,,,,,,,,,,,,,,,6117f6388428f7fc03e16eb2,25,2022-02-12_11h17.18.936,lexical_decision_task_DD,2021.2.3,Win32,60.07449237,,,,,,,,,,,,2.289,1,,,,,,,,,,,,,,z,1,2.289,,,,,,,,0.752604167,-0.104166667,0,0,0,,0,117,117,127,1,NINDY,HB,old,z,./images/NINDYHB.png,,,,,,,,,,,,,,,,,,,,,,,,,,,,,,,,,,
,,,,,,,,,,,,,,,,,6117f6388428f7fc03e16eb2,25,2022-02-12_11h17.18.936,lexical_decision_task_DD,2021.2.3,Win32,60.07449237,,,,,,,,,,,,0.6455,1,,,,,,,,,,,,,,z,1,0.6455,,,,,,,,0.752604167,-0.104166667,0,0,0,,0,118,118,138,1,PLICE,C,old,z,./images/PLICE.png,,,,,,,,,,,,,,,,,,,,,,,,,,,,,,,,,,
,,,,,,,,,,,,,,,,,6117f6388428f7fc03e16eb2,25,2022-02-12_11h17.18.936,lexical_decision_task_DD,2021.2.3,Win32,60.07449237,,,,,,,,,,,,0.5334,1,,,,,,,,,,,,,,z,1,0.5334,,,,,,,,0.752604167,-0.104166667,0,0,0,,0,119,119,114,1,RIKES,C,old,z,./images/RIKES.png,,,,,,,,,,,,,,,,,,,,,,,,,,,,,,,,,,
,,,,,,,,,,,,,,,,,6117f6388428f7fc03e16eb2,25,2022-02-12_11h17.18.936,lexical_decision_task_DD,2021.2.3,Win32,60.07449237,,,,,,,,,,,,1.4525,1,,,,,,,,,,,,,,m,1,1.4525,,,,,,,,0.752604167,-0.104166667,0,0,0,,0,120,120,17,1,SKIING,LB,old,m,./images/SKIINGLB.png,,,,,,,,,,,,,,,,,,,,,,,,,,,,,,,,,,
,,,,,,,,,,,,,,,,,6117f6388428f7fc03e16eb2,25,2022-02-12_11h17.18.936,lexical_decision_task_DD,2021.2.3,Win32,60.07449237,,,,,,,,,,,,2.2006,1,,,,,,,,,,,,,,m,1,2.2006,,,,,,,,0.752604167,-0.104166667,0,0,0,,0,121,121,43,1,MOSQUE,HB,old,m,./images/MOSQUEHB.png,,,,,,,,,,,,,,,,,,,,,,,,,,,,,,,,,,
,,,,,,,,,,,,,,,,,6117f6388428f7fc03e16eb2,25,2022-02-12_11h17.18.936,lexical_decision_task_DD,2021.2.3,Win32,60.07449237,,,,,,,,,,,,2.3831,1,,,,,,,,,,,,,,z,1,2.3831,,,,,,,,0.752604167,-0.104166667,0,0,0,,0,122,122,97,1,CHIDS,HB,old,z,./images/CHIDSHB.png,,,,,,,,,,,,,,,,,,,,,,,,,,,,,,,,,,
,,,,,,,,,,,,,,,,,6117f6388428f7fc03e16eb2,25,2022-02-12_11h17.18.936,lexical_decision_task_DD,2021.2.3,Win32,60.07449237,,,,,,,,,,,,1.0572,0,,,,,,,,,,,,,,m,0,1.0572,,,,,,,,0.752604167,-0.104166667,0,0,0,,0,123,123,128,1,GRIFT,LB,old,z,./images/GRIFTLB.png,,,,,,,,,,,,,,,,,,,,,,,,,,,,,,,,,,
,,,,,,,,,,,,,,,,,6117f6388428f7fc03e16eb2,25,2022-02-12_11h17.18.936,lexical_decision_task_DD,2021.2.3,Win32,60.07449237,,,,,,,,,,,,1.0122,1,,,,,,,,,,,,,,m,1,1.0122,,,,,,,,0.752604167,-0.104166667,0,0,0,,0,124,124,58,1,BABOON,HB,old,m,./images/BABOONHB.png,,,,,,,,,,,,,,,,,,,,,,,,,,,,,,,,,,
,,,,,,,,,,,,,,,,,6117f6388428f7fc03e16eb2,25,2022-02-12_11h17.18.936,lexical_decision_task_DD,2021.2.3,Win32,60.07449237,,,,,,,,,,,,0.7743,1,,,,,,,,,,,,,,z,1,0.7743,,,,,,,,0.752604167,-0.104166667,0,0,0,space,0,125,125,102,1,DULLE,C,old,z,./images/DULLE.png,1.068,,,,,,,,,,,,,,,,,,,,,,,,,,,,,,,,,
,,,,,,,,,,,,,,,,,6117f6388428f7fc03e16eb2,25,2022-02-12_11h17.18.936,lexical_decision_task_DD,2021.2.3,Win32,60.07449237,,,,,,,,,,,,0.8212,1,,,,,,,,,,,,,,z,1,0.8212,,,,,,,,0.752604167,-0.104166667,0,0,0,,0,126,126,134,1,TROSS,LB,old,z,./images/TROSSLB.png,,,,,,,,,,,,,,,,,,,,,,,,,,,,,,,,,,
,,,,,,,,,,,,,,,,,6117f6388428f7fc03e16eb2,25,2022-02-12_11h17.18.936,lexical_decision_task_DD,2021.2.3,Win32,60.07449237,,,,,,,,,,,,0.8215,1,,,,,,,,,,,,,,m,1,0.8215,,,,,,,,0.752604167,-0.104166667,0,0,0,,0,127,127,11,1,BONNET,LB,old,m,./images/BONNETLB.png,,,,,,,,,,,,,,,,,,,,,,,,,,,,,,,,,,
,,,,,,,,,,,,,,,,,6117f6388428f7fc03e16eb2,25,2022-02-12_11h17.18.936,lexical_decision_task_DD,2021.2.3,Win32,60.07449237,,,,,,,,,,,,0.675,1,,,,,,,,,,,,,,m,1,0.675,,,,,,,,0.752604167,-0.104166667,0,0,0,,0,128,128,75,1,GRAIN,C,old,m,./images/GRAIN.png,,,,,,,,,,,,,,,,,,,,,,,,,,,,,,,,,,
,,,,,,,,,,,,,,,,,6117f6388428f7fc03e16eb2,25,2022-02-12_11h17.18.936,lexical_decision_task_DD,2021.2.3,Win32,60.07449237,,,,,,,,,,,,1.6602,1,,,,,,,,,,,,,,m,1,1.6602,,,,,,,,0.752604167,-0.104166667,0,0,0,,0,129,129,40,1,SWING,HB,old,m,./images/SWINGHB.png,,,,,,,,,,,,,,,,,,,,,,,,,,,,,,,,,,
,,,,,,,,,,,,,,,,,6117f6388428f7fc03e16eb2,25,2022-02-12_11h17.18.936,lexical_decision_task_DD,2021.2.3,Win32,60.07449237,,,,,,,,,,,,0.7517,1,,,,,,,,,,,,,,z,1,0.7517,,,,,,,,0.752604167,-0.104166667,0,0,0,,0,130,130,159,1,CUDDY,C,old,z,./images/CUDDY.png,,,,,,,,,,,,,,,,,,,,,,,,,,,,,,,,,,
,,,,,,,,,,,,,,,,,6117f6388428f7fc03e16eb2,25,2022-02-12_11h17.18.936,lexical_decision_task_DD,2021.2.3,Win32,60.07449237,,,,,,,,,,,,4.557,1,,,,,,,,,,,,,,z,1,4.557,,,,,,,,0.752604167,-0.104166667,0,0,0,,0,131,131,130,1,CRILL,HB,old,z,./images/CRILLHB.png,,,,,,,,,,,,,,,,,,,,,,,,,,,,,,,,,,
,,,,,,,,,,,,,,,,,6117f6388428f7fc03e16eb2,25,2022-02-12_11h17.18.936,lexical_decision_task_DD,2021.2.3,Win32,60.07449237,,,,,,,,,,,,0.7176,1,,,,,,,,,,,,,,m,1,0.7176,,,,,,,,0.752604167,-0.104166667,0,0,0,,0,132,132,59,1,BURIAL,LB,old,m,./images/BURIALLB.png,,,,,,,,,,,,,,,,,,,,,,,,,,,,,,,,,,
,,,,,,,,,,,,,,,,,6117f6388428f7fc03e16eb2,25,2022-02-12_11h17.18.936,lexical_decision_task_DD,2021.2.3,Win32,60.07449237,,,,,,,,,,,,1.2664,1,,,,,,,,,,,,,,z,1,1.2664,,,,,,,,0.752604167,-0.104166667,0,0,0,,0,133,133,163,1,GAMBA,HB,old,z,./images/GAMBAHB.png,,,,,,,,,,,,,,,,,,,,,,,,,,,,,,,,,,
,,,,,,,,,,,,,,,,,6117f6388428f7fc03e16eb2,25,2022-02-12_11h17.18.936,lexical_decision_task_DD,2021.2.3,Win32,60.07449237,,,,,,,,,,,,0.9704,1,,,,,,,,,,,,,,m,1,0.9704,,,,,,,,0.752604167,-0.104166667,0,0,0,,0,134,134,52,1,BANNER,HB,old,m,./images/BANNERHB.png,,,,,,,,,,,,,,,,,,,,,,,,,,,,,,,,,,
,,,,,,,,,,,,,,,,,6117f6388428f7fc03e16eb2,25,2022-02-12_11h17.18.936,lexical_decision_task_DD,2021.2.3,Win32,60.07449237,,,,,,,,,,,,0.8777,1,,,,,,,,,,,,,,m,1,0.8777,,,,,,,,0.752604167,-0.104166667,0,0,0,,0,135,135,18,1,JAGUAR,C,old,m,./images/JAGUAR.png,,,,,,,,,,,,,,,,,,,,,,,,,,,,,,,,,,
,,,,,,,,,,,,,,,,,6117f6388428f7fc03e16eb2,25,2022-02-12_11h17.18.936,lexical_decision_task_DD,2021.2.3,Win32,60.07449237,,,,,,,,,,,,2.3212,1,,,,,,,,,,,,,,z,1,2.3212,,,,,,,,0.752604167,-0.104166667,0,0,0,,0,136,136,157,1,INLER,HB,old,z,./images/INLERHB.png,,,,,,,,,,,,,,,,,,,,,,,,,,,,,,,,,,
,,,,,,,,,,,,,,,,,6117f6388428f7fc03e16eb2,25,2022-02-12_11h17.18.936,lexical_decision_task_DD,2021.2.3,Win32,60.07449237,,,,,,,,,,,,1.7215,1,,,,,,,,,,,,,,m,1,1.7215,,,,,,,,0.752604167,-0.104166667,0,0,0,,0,137,137,31,1,QUILL,HB,old,m,./images/QUILLHB.png,,,,,,,,,,,,,,,,,,,,,,,,,,,,,,,,,,
,,,,,,,,,,,,,,,,,6117f6388428f7fc03e16eb2,25,2022-02-12_11h17.18.936,lexical_decision_task_DD,2021.2.3,Win32,60.07449237,,,,,,,,,,,,1.0969,1,,,,,,,,,,,,,,z,1,1.0969,,,,,,,,0.752604167,-0.104166667,0,0,0,,0,138,138,88,1,GLUSH,HB,old,z,./images/GLUSHHB.png,,,,,,,,,,,,,,,,,,,,,,,,,,,,,,,,,,
,,,,,,,,,,,,,,,,,6117f6388428f7fc03e16eb2,25,2022-02-12_11h17.18.936,lexical_decision_task_DD,2021.2.3,Win32,60.07449237,,,,,,,,,,,,0.81,1,,,,,,,,,,,,,,m,1,0.81,,,,,,,,0.752604167,-0.104166667,0,0,0,,0,139,139,72,1,NOOSE,C,old,m,./images/NOOSE.png,,,,,,,,,,,,,,,,,,,,,,,,,,,,,,,,,,
,,,,,,,,,,,,,,,,,6117f6388428f7fc03e16eb2,25,2022-02-12_11h17.18.936,lexical_decision_task_DD,2021.2.3,Win32,60.07449237,,,,,,,,,,,,0.7204,1,,,,,,,,,,,,,,z,1,0.7204,,,,,,,,0.752604167,-0.104166667,0,0,0,,0,140,140,137,1,JOOST,LB,old,z,./images/JOOSTLB.png,,,,,,,,,,,,,,,,,,,,,,,,,,,,,,,,,,
,,,,,,,,,,,,,,,,,6117f6388428f7fc03e16eb2,25,2022-02-12_11h17.18.936,lexical_decision_task_DD,2021.2.3,Win32,60.07449237,,,,,,,,,,,,1.8211,1,,,,,,,,,,,,,,z,1,1.8211,,,,,,,,0.752604167,-0.104166667,0,0,0,,0,141,141,166,1,SHORY,HB,old,z,./images/SHORYHB.png,,,,,,,,,,,,,,,,,,,,,,,,,,,,,,,,,,
,,,,,,,,,,,,,,,,,6117f6388428f7fc03e16eb2,25,2022-02-12_11h17.18.936,lexical_decision_task_DD,2021.2.3,Win32,60.07449237,,,,,,,,,,,,0.7497,1,,,,,,,,,,,,,,z,1,0.7497,,,,,,,,0.752604167,-0.104166667,0,0,0,,0,142,142,119,1,PAFER,LB,old,z,./images/PAFERLB.png,,,,,,,,,,,,,,,,,,,,,,,,,,,,,,,,,,
,,,,,,,,,,,,,,,,,6117f6388428f7fc03e16eb2,25,2022-02-12_11h17.18.936,lexical_decision_task_DD,2021.2.3,Win32,60.07449237,,,,,,,,,,,,1.0109,1,,,,,,,,,,,,,,z,1,1.0109,,,,,,,,0.752604167,-0.104166667,0,0,0,,0,143,143,89,1,DRIEK,LB,old,z,./images/DRIEKLB.png,,,,,,,,,,,,,,,,,,,,,,,,,,,,,,,,,,
,,,,,,,,,,,,,,,,,6117f6388428f7fc03e16eb2,25,2022-02-12_11h17.18.936,lexical_decision_task_DD,2021.2.3,Win32,60.07449237,,,,,,,,,,,,1.0219,1,,,,,,,,,,,,,,z,1,1.0219,,,,,,,,0.752604167,-0.104166667,0,0,0,,0,144,144,144,1,NAIRY,C,old,z,./images/NAIRY.png,,,,,,,,,,,,,,,,,,,,,,,,,,,,,,,,,,
,,,,,,,,,,,,,,,,,6117f6388428f7fc03e16eb2,25,2022-02-12_11h17.18.936,lexical_decision_task_DD,2021.2.3,Win32,60.07449237,,,,,,,,,,,,1.572,1,,,,,,,,,,,,,,z,1,1.572,,,,,,,,0.752604167,-0.104166667,0,0,0,,0,145,145,154,1,THINT,HB,old,z,./images/THINTHB.png,,,,,,,,,,,,,,,,,,,,,,,,,,,,,,,,,,
,,,,,,,,,,,,,,,,,6117f6388428f7fc03e16eb2,25,2022-02-12_11h17.18.936,lexical_decision_task_DD,2021.2.3,Win32,60.07449237,,,,,,,,,,,,1.3671,1,,,,,,,,,,,,,,z,1,1.3671,,,,,,,,0.752604167,-0.104166667,0,0,0,,0,146,146,162,1,LEICH,C,old,z,./images/LEICH.png,,,,,,,,,,,,,,,,,,,,,,,,,,,,,,,,,,
,,,,,,,,,,,,,,,,,6117f6388428f7fc03e16eb2,25,2022-02-12_11h17.18.936,lexical_decision_task_DD,2021.2.3,Win32,60.07449237,,,,,,,,,,,,1.0385,1,,,,,,,,,,,,,,z,1,1.0385,,,,,,,,0.752604167,-0.104166667,0,0,0,,0,147,147,96,1,KEAMS,C,old,z,./images/KEAMS.png,,,,,,,,,,,,,,,,,,,,,,,,,,,,,,,,,,
,,,,,,,,,,,,,,,,,6117f6388428f7fc03e16eb2,25,2022-02-12_11h17.18.936,lexical_decision_task_DD,2021.2.3,Win32,60.07449237,,,,,,,,,,,,0.8275,1,,,,,,,,,,,,,,z,1,0.8275,,,,,,,,0.752604167,-0.104166667,0,0,0,,0,148,148,126,1,GUELS,C,old,z,./images/GUELS.png,,,,,,,,,,,,,,,,,,,,,,,,,,,,,,,,,,
,,,,,,,,,,,,,,,,,6117f6388428f7fc03e16eb2,25,2022-02-12_11h17.18.936,lexical_decision_task_DD,2021.2.3,Win32,60.07449237,,,,,,,,,,,,0.6838,1,,,,,,,,,,,,,,m,1,0.6838,,,,,,,,0.752604167,-0.104166667,0,0,0,,0,149,149,20,1,CRADLE,LB,old,m,./images/CRADLELB.png,,,,,,,,,,,,,,,,,,,,,,,,,,,,,,,,,,
,,,,,,,,,,,,,,,,,6117f6388428f7fc03e16eb2,25,2022-02-12_11h17.18.936,lexical_decision_task_DD,2021.2.3,Win32,60.07449237,,,,,,,,,,,,1.1268,1,,,,,,,,,,,,,,m,1,1.1268,,,,,,,,0.752604167,-0.104166667,0,0,0,,0,150,150,19,1,DOUGH,HB,old,m,./images/DOUGHHB.png,,,,,,,,,,,,,,,,,,,,,,,,,,,,,,,,,,
,,,,,,,,,,,,,,,,,6117f6388428f7fc03e16eb2,25,2022-02-12_11h17.18.936,lexical_decision_task_DD,2021.2.3,Win32,60.07449237,,,,,,,,,,,,0.7263,1,,,,,,,,,,,,,,m,1,0.7263,,,,,,,,0.752604167,-0.104166667,0,0,0,,0,151,151,12,1,SHORE,C,old,m,./images/SHORE.png,,,,,,,,,,,,,,,,,,,,,,,,,,,,,,,,,,
,,,,,,,,,,,,,,,,,6117f6388428f7fc03e16eb2,25,2022-02-12_11h17.18.936,lexical_decision_task_DD,2021.2.3,Win32,60.07449237,,,,,,,,,,,,0.667,1,,,,,,,,,,,,,,m,1,0.667,,,,,,,,0.752604167,-0.104166667,0,0,0,,0,152,152,30,1,STORM,C,old,m,./images/STORM.png,,,,,,,,,,,,,,,,,,,,,,,,,,,,,,,,,,
,,,,,,,,,,,,,,,,,6117f6388428f7fc03e16eb2,25,2022-02-12_11h17.18.936,lexical_decision_task_DD,2021.2.3,Win32,60.07449237,,,,,,,,,,,,1.1323,1,,,,,,,,,,,,,,z,1,1.1323,,,,,,,,0.752604167,-0.104166667,0,0,0,,0,153,153,112,1,MYING,HB,old,z,./images/MYINGHB.png,,,,,,,,,,,,,,,,,,,,,,,,,,,,,,,,,,
,,,,,,,,,,,,,,,,,6117f6388428f7fc03e16eb2,25,2022-02-12_11h17.18.936,lexical_decision_task_DD,2021.2.3,Win32,60.07449237,,,,,,,,,,,,0.9744,1,,,,,,,,,,,,,,z,1,0.9744,,,,,,,,0.752604167,-0.104166667,0,0,0,,0,154,154,103,1,FLORT,HB,old,z,./images/FLORTHB.png,,,,,,,,,,,,,,,,,,,,,,,,,,,,,,,,,,
,,,,,,,,,,,,,,,,,6117f6388428f7fc03e16eb2,25,2022-02-12_11h17.18.936,lexical_decision_task_DD,2021.2.3,Win32,60.07449237,,,,,,,,,,,,0.6358,1,,,,,,,,,,,,,,m,1,0.6358,,,,,,,,0.752604167,-0.104166667,0,0,0,,0,155,155,51,1,ONION,C,old,m,./images/ONION.png,,,,,,,,,,,,,,,,,,,,,,,,,,,,,,,,,,
,,,,,,,,,,,,,,,,,6117f6388428f7fc03e16eb2,25,2022-02-12_11h17.18.936,lexical_decision_task_DD,2021.2.3,Win32,60.07449237,,,,,,,,,,,,2.0496,1,,,,,,,,,,,,,,z,1,2.0496,,,,,,,,0.752604167,-0.104166667,0,0,0,,0,156,156,151,1,TINKY,HB,old,z,./images/TINKYHB.png,,,,,,,,,,,,,,,,,,,,,,,,,,,,,,,,,,
,,,,,,,,,,,,,,,,,6117f6388428f7fc03e16eb2,25,2022-02-12_11h17.18.936,lexical_decision_task_DD,2021.2.3,Win32,60.07449237,,,,,,,,,,,,0.7101,1,,,,,,,,,,,,,,m,1,0.7101,,,,,,,,0.752604167,-0.104166667,0,0,0,,0,157,157,60,1,TWINS,C,old,m,./images/TWINS.png,,,,,,,,,,,,,,,,,,,,,,,,,,,,,,,,,,
,,,,,,,,,,,,,,,,,6117f6388428f7fc03e16eb2,25,2022-02-12_11h17.18.936,lexical_decision_task_DD,2021.2.3,Win32,60.07449237,,,,,,,,,,,,0.5922,1,,,,,,,,,,,,,,z,1,0.5922,,,,,,,,0.752604167,-0.104166667,0,0,0,,0,158,158,90,1,NEAST,C,old,z,./images/NEAST.png,,,,,,,,,,,,,,,,,,,,,,,,,,,,,,,,,,
,,,,,,,,,,,,,,,,,6117f6388428f7fc03e16eb2,25,2022-02-12_11h17.18.936,lexical_decision_task_DD,2021.2.3,Win32,60.07449237,,,,,,,,,,,,1.5893,1,,,,,,,,,,,,,,z,1,1.5893,,,,,,,,0.752604167,-0.104166667,0,0,0,,0,159,159,100,1,DRIBS,HB,old,z,./images/DRIBSHB.png,,,,,,,,,,,,,,,,,,,,,,,,,,,,,,,,,,
,,,,,,,,,,,,,,,,,6117f6388428f7fc03e16eb2,25,2022-02-12_11h17.18.936,lexical_decision_task_DD,2021.2.3,Win32,60.07449237,,,,,,,,,,,,0.9557,1,,,,,,,,,,,,,,m,1,0.9557,,,,,,,,0.752604167,-0.104166667,0,0,0,,0,160,160,55,1,MUFFIN,HB,old,m,./images/MUFFINHB.png,,,,,,,,,,,,,,,,,,,,,,,,,,,,,,,,,,
,,,,,,,,,,,,,,,,,6117f6388428f7fc03e16eb2,25,2022-02-12_11h17.18.936,lexical_decision_task_DD,2021.2.3,Win32,60.07449237,,,,,,,,,,,,0.6289,1,,,,,,,,,,,,,,m,1,0.6289,,,,,,,,0.752604167,-0.104166667,0,0,0,,0,161,161,26,1,SMOKER,LB,old,m,./images/SMOKERLB.png,,,,,,,,,,,,,,,,,,,,,,,,,,,,,,,,,,
,,,,,,,,,,,,,,,,,6117f6388428f7fc03e16eb2,25,2022-02-12_11h17.18.936,lexical_decision_task_DD,2021.2.3,Win32,60.07449237,,,,,,,,,,,,0.6888,1,,,,,,,,,,,,,,m,1,0.6888,,,,,,,,0.752604167,-0.104166667,0,0,0,,0,162,162,80,1,WEASEL,LB,old,m,./images/WEASELLB.png,,,,,,,,,,,,,,,,,,,,,,,,,,,,,,,,,,
,,,,,,,,,,,,,,,,,6117f6388428f7fc03e16eb2,25,2022-02-12_11h17.18.936,lexical_decision_task_DD,2021.2.3,Win32,60.07449237,,,,,,,,,,,,0.5327,1,,,,,,,,,,,,,,z,1,0.5327,,,,,,,,0.752604167,-0.104166667,0,0,0,,0,163,163,141,1,PLEET,C,old,z,./images/PLEET.png,,,,,,,,,,,,,,,,,,,,,,,,,,,,,,,,,,
,,,,,,,,,,,,,,,,,6117f6388428f7fc03e16eb2,25,2022-02-12_11h17.18.936,lexical_decision_task_DD,2021.2.3,Win32,60.07449237,,,,,,,,,,,,1.2546,1,,,,,,,,,,,,,,m,1,1.2546,,,,,,,,0.752604167,-0.104166667,0,0,0,,0,164,164,70,1,URINE,HB,old,m,./images/URINEHB.png,,,,,,,,,,,,,,,,,,,,,,,,,,,,,,,,,,
,,,,,,,,,,,,,,,,,6117f6388428f7fc03e16eb2,25,2022-02-12_11h17.18.936,lexical_decision_task_DD,2021.2.3,Win32,60.07449237,,,,,,,,,,,,0.5905,1,,,,,,,,,,,,,,z,1,0.5905,,,,,,,,0.752604167,-0.104166667,0,0,0,,0,165,165,117,1,STEEG,C,old,z,./images/STEEG.png,,,,,,,,,,,,,,,,,,,,,,,,,,,,,,,,,,
,,,,,,,,,,,,,,,,,6117f6388428f7fc03e16eb2,25,2022-02-12_11h17.18.936,lexical_decision_task_DD,2021.2.3,Win32,60.07449237,,,,,,,,,,,,0.7311,1,,,,,,,,,,,,,,z,1,0.7311,,,,,,,,0.752604167,-0.104166667,0,0,0,,0,166,166,111,1,HOSSE,C,old,z,./images/HOSSE.png,,,,,,,,,,,,,,,,,,,,,,,,,,,,,,,,,,
,,,,,,,,,,,,,,,,,6117f6388428f7fc03e16eb2,25,2022-02-12_11h17.18.936,lexical_decision_task_DD,2021.2.3,Win32,60.07449237,,,,,,,,,,,,0.6386,1,,,,,,,,,,,,,,m,1,0.6386,,,,,,,,0.752604167,-0.104166667,0,0,0,,0,167,167,44,1,LIZARD,LB,old,m,./images/LIZARDLB.png,,,,,,,,,,,,,,,,,,,,,,,,,,,,,,,,,,
,,,,,,,,,,,,,,,,,6117f6388428f7fc03e16eb2,25,2022-02-12_11h17.18.936,lexical_decision_task_DD,2021.2.3,Win32,60.07449237,,,,,,,,,,,,,,,,,,,,,,,,,,,,,,,,,,,,,,,,,,,,,,,,,How likely will it be that you will recognize the words presented clearly on a scale of 0 (not likely) to 100 (most likely)?,,,,,-0.015625,-0.421875,1,0,0,jol_adv,5,6.1373,0,0,0,0,1,,,,,,,,,,,,,,,,,,,,
,,,,,,,,,,,,,,,,,6117f6388428f7fc03e16eb2,25,2022-02-12_11h17.18.936,lexical_decision_task_DD,2021.2.3,Win32,60.07449237,,,,,,,,,,,,,,,,,,,,,,,,,,,,,,,,,,,,,,,,,,,,,,,,,How likely will it be that you will recognize the words presented very blurred on a scale of 0 (not likely) to 100 (most likely)?,,,,,,,,,,,5,4.0373,0,1,1,2,1,,,,,,,,,,,,,,,,,,,,
,,,,,,,,,,,,,,,,,6117f6388428f7fc03e16eb2,25,2022-02-12_11h17.18.936,lexical_decision_task_DD,2021.2.3,Win32,60.07449237,,,,,,,,,,,,,,,,,,,,,,,,,,,,,,,,,,,,,,,,,,,,,,,,,How likely will it be that you will recognize the words presented slighly blurred on a scale of 0 (not likely) to 100 (most likely)?,,,,,,,,,,,5,2.1057,0,2,2,1,1,,,,,,,,,,,,,,,,,,,,
,0.075520833,-0.403645833,1,0,0,instr_done_button,,,,,,1,test,"In the next phase you will be presented with the words from the the first phase. Your job is to decide whether you remember seeing the word or not. If you remember seeing the word press ""old"" or type ""m"". If you do not remember seeing the word press ""new"" or type ""z"". Please press the space bar or click on continue to begin. ",,,6117f6388428f7fc03e16eb2,25,2022-02-12_11h17.18.936,lexical_decision_task_DD,2021.2.3,Win32,60.07449237,,,,,,,,,,,,,,,,,,,,,,,,,,,,,,,,,,,,,,,,,,,,,,,,,,,,,,,,,,,,,,,,,,,0,0,0,0,1,,,,,,,,,,,,,,,
space,0.888020833,-0.09765625,0,0,0,,,,,,,1,test,"In the next phase you will be presented with the words from the the first phase. Your job is to decide whether you remember seeing the word or not. If you remember seeing the word press ""old"" or type ""m"". If you do not remember seeing the word press ""new"" or type ""z"". Please press the space bar or click on continue to begin. ",,,6117f6388428f7fc03e16eb2,25,2022-02-12_11h17.18.936,lexical_decision_task_DD,2021.2.3,Win32,60.07449237,2.5023,,,,,,,,,,,,,,,,,,,,,,,,,,,,,,,,,,,,,,,,,,,,,,,,,,,,,,,,,,,,,,,,,,1,0,1,0,1,,,,,,,,,,,,,,,
space,0.888020833,-0.09765625,0,0,0,,,,,,,1,test,"In the next phase you will be presented with the words from the the first phase. Your job is to decide whether you remember seeing the word or not. If you remember seeing the word press ""old"" or type ""m"". If you do not remember seeing the word press ""new"" or type ""z"". Please press the space bar or click on continue to begin. ",,,6117f6388428f7fc03e16eb2,25,2022-02-12_11h17.18.936,lexical_decision_task_DD,2021.2.3,Win32,60.07449237,2.3098,,,,,,,,,,,,,,,,,,,,,,,,,,,,,,,,,,,,,,,,,,,,,,,,,,,,,,,,,,,,,,,,,,2,0,2,0,1,,,,,,,,,,,,,,,
space,0.888020833,-0.09765625,0,0,0,,,,,,,1,test,"In the next phase you will be presented with the words from the the first phase. Your job is to decide whether you remember seeing the word or not. If you remember seeing the word press ""old"" or type ""m"". If you do not remember seeing the word press ""new"" or type ""z"". Please press the space bar or click on continue to begin. ",,,6117f6388428f7fc03e16eb2,25,2022-02-12_11h17.18.936,lexical_decision_task_DD,2021.2.3,Win32,60.07449237,0.3611,,,,,,,,,,,,,,,,,,,,,,,,,,,,,,,,,,,,,,,,,,,,,,,,,,,,,,,,,,,,,,,,,,3,0,3,0,1,,,,,,,,,,,,,,,
space,0.888020833,-0.09765625,0,0,0,,,,,,,1,test,"In the next phase you will be presented with the words from the the first phase. Your job is to decide whether you remember seeing the word or not. If you remember seeing the word press ""old"" or type ""m"". If you do not remember seeing the word press ""new"" or type ""z"". Please press the space bar or click on continue to begin. ",,,6117f6388428f7fc03e16eb2,25,2022-02-12_11h17.18.936,lexical_decision_task_DD,2021.2.3,Win32,60.07449237,4.7162,,,,,,,,,,,,,,,,,,,,,,,,,,,,,,,,,,,,,,,,,,,,,,,,,,,,,,,,,,,,,,,,,,4,0,4,0,1,,,,,,,,,,,,,,,
,,,,,,,,,,,,,,,,,6117f6388428f7fc03e16eb2,25,2022-02-12_11h17.18.936,lexical_decision_task_DD,2021.2.3,Win32,60.07449237,,,,,,,,,,,,6.2717,1,,,,,,,,,,,,,,,,,,,,,,,,0.888020833,-0.09765625,0,0,0,,,,,,,WEASEL,LB,m,m,./images/WEASELLB.png,,,,,,,,,,,,,,,,,,,,m,1,6.2717,,,,,,,,0,0,0,80,1
,,,,,,,,,,,,,,,,,6117f6388428f7fc03e16eb2,25,2022-02-12_11h17.18.936,lexical_decision_task_DD,2021.2.3,Win32,60.07449237,,,,,,,,,,,,0.7466,1,,,,,,,,,,,,,,,,,,,,,,,,0.888020833,-0.09765625,0,0,0,,,,,,,CEMENT,LB,m,m,./images/CEMENTLB.png,,,,,,,,,,,,,,,,,,,,m,1,0.7466,,,,,,,,0,1,1,74,1
,,,,,,,,,,,,,,,,,6117f6388428f7fc03e16eb2,25,2022-02-12_11h17.18.936,lexical_decision_task_DD,2021.2.3,Win32,60.07449237,,,,,,,,,,,,0.6348,0,,,,,,,,,,,,,,,,,,,,,,,,0.888020833,-0.09765625,0,0,0,,,,,,,STATUE,C,z,m,./images/STATUE.png,,,,,,,,,,,,,,,,,,,,m,0,0.6348,,,,,,,,0,2,2,150,1
,,,,,,,,,,,,,,,,,6117f6388428f7fc03e16eb2,25,2022-02-12_11h17.18.936,lexical_decision_task_DD,2021.2.3,Win32,60.07449237,,,,,,,,,,,,1.1444,0,,,,,,,,,,,,,,,,,,,,,,,,0.888020833,-0.09765625,0,0,0,,,,,,,FERRY,C,z,m,./images/FERRY.png,,,,,,,,,,,,,,,,,,,,m,0,1.1444,,,,,,,,0,3,3,141,1
,,,,,,,,,,,,,,,,,6117f6388428f7fc03e16eb2,25,2022-02-12_11h17.18.936,lexical_decision_task_DD,2021.2.3,Win32,60.07449237,,,,,,,,,,,,1.9961,1,,,,,,,,,,,,,,,,,,,,,,,,0.888020833,-0.09765625,0,0,0,,,,,,,THROAT,C,m,m,./images/THROAT.png,,,,,,,,,,,,,,,,,,,,m,1,1.9961,,,,,,,,0,4,4,36,1
,,,,,,,,,,,,,,,,,6117f6388428f7fc03e16eb2,25,2022-02-12_11h17.18.936,lexical_decision_task_DD,2021.2.3,Win32,60.07449237,,,,,,,,,,,,0.6895,1,,,,,,,,,,,,,,,,,,,,,,,,0.888020833,-0.09765625,0,0,0,,,,,,,BIRTH,HB,m,m,./images/BIRTHHB.png,,,,,,,,,,,,,,,,,,,,m,1,0.6895,,,,,,,,0,5,5,37,1
,,,,,,,,,,,,,,,,,6117f6388428f7fc03e16eb2,25,2022-02-12_11h17.18.936,lexical_decision_task_DD,2021.2.3,Win32,60.07449237,,,,,,,,,,,,0.6469,1,,,,,,,,,,,,,,,,,,,,,,,,0.888020833,-0.09765625,0,0,0,,,,,,,TULIP,LB,m,m,./images/TULIPLB.png,,,,,,,,,,,,,,,,,,,,m,1,0.6469,,,,,,,,0,6,6,8,1
,,,,,,,,,,,,,,,,,6117f6388428f7fc03e16eb2,25,2022-02-12_11h17.18.936,lexical_decision_task_DD,2021.2.3,Win32,60.07449237,,,,,,,,,,,,0.9521,0,,,,,,,,,,,,,,,,,,,,,,,,0.888020833,-0.09765625,0,0,0,,,,,,,BISHOP,HB,z,m,./images/BISHOPHB.png,,,,,,,,,,,,,,,,,,,,m,0,0.9521,,,,,,,,0,7,7,133,1
,,,,,,,,,,,,,,,,,6117f6388428f7fc03e16eb2,25,2022-02-12_11h17.18.936,lexical_decision_task_DD,2021.2.3,Win32,60.07449237,,,,,,,,,,,,0.703,0,,,,,,,,,,,,,,,,,,,,,,,,0.888020833,-0.09765625,0,0,0,,,,,,,CHERRY,C,z,m,./images/CHERRY.png,,,,,,,,,,,,,,,,,,,,m,0,0.703,,,,,,,,0,8,8,138,1
,,,,,,,,,,,,,,,,,6117f6388428f7fc03e16eb2,25,2022-02-12_11h17.18.936,lexical_decision_task_DD,2021.2.3,Win32,60.07449237,,,,,,,,,,,,0.7675,1,,,,,,,,,,,,,,,,,,,,,,,,0.888020833,-0.09765625,0,0,0,,,,,,,LITTER,C,m,m,./images/LITTER.png,,,,,,,,,,,,,,,,,,,,m,1,0.7675,,,,,,,,0,9,9,78,1
,,,,,,,,,,,,,,,,,6117f6388428f7fc03e16eb2,25,2022-02-12_11h17.18.936,lexical_decision_task_DD,2021.2.3,Win32,60.07449237,,,,,,,,,,,,1.888,0,,,,,,,,,,,,,,,,,,,,,,,,0.888020833,-0.09765625,0,0,0,,,,,,,LAGOON,LB,z,m,./images/LAGOONLB.png,,,,,,,,,,,,,,,,,,,,m,0,1.888,,,,,,,,0,10,10,131,1
,,,,,,,,,,,,,,,,,6117f6388428f7fc03e16eb2,25,2022-02-12_11h17.18.936,lexical_decision_task_DD,2021.2.3,Win32,60.07449237,,,,,,,,,,,,0.9172,0,,,,,,,,,,,,,,,,,,,,,,,,0.888020833,-0.09765625,0,0,0,,,,,,,LIZARD,LB,m,m,./images/LIZARDLB.png,,,,,,,,,,,,,,,,,,,,z,0,0.9172,,,,,,,,0,11,11,44,1
,,,,,,,,,,,,,,,,,6117f6388428f7fc03e16eb2,25,2022-02-12_11h17.18.936,lexical_decision_task_DD,2021.2.3,Win32,60.07449237,,,,,,,,,,,,0.8344,1,,,,,,,,,,,,,,,,,,,,,,,,0.888020833,-0.09765625,0,0,0,,,,,,,RHINO,C,m,m,./images/RHINO.png,,,,,,,,,,,,,,,,,,,,m,1,0.8344,,,,,,,,0,12,12,9,1
,,,,,,,,,,,,,,,,,6117f6388428f7fc03e16eb2,25,2022-02-12_11h17.18.936,lexical_decision_task_DD,2021.2.3,Win32,60.07449237,,,,,,,,,,,,1.1185,1,,,,,,,,,,,,,,,,,,,,,,,,0.888020833,-0.09765625,0,0,0,,,,,,,MIRROR,C,m,m,./images/MIRROR.png,,,,,,,,,,,,,,,,,,,,m,1,1.1185,,,,,,,,0,13,13,63,1
,,,,,,,,,,,,,,,,,6117f6388428f7fc03e16eb2,25,2022-02-12_11h17.18.936,lexical_decision_task_DD,2021.2.3,Win32,60.07449237,,,,,,,,,,,,0.7091,1,,,,,,,,,,,,,,,,,,,,,,,,0.888020833,-0.09765625,0,0,0,,,,,,,MOOSE,C,m,m,./images/MOOSE.png,,,,,,,,,,,,,,,,,,,,m,1,0.7091,,,,,,,,0,14,14,57,1
,,,,,,,,,,,,,,,,,6117f6388428f7fc03e16eb2,25,2022-02-12_11h17.18.936,lexical_decision_task_DD,2021.2.3,Win32,60.07449237,,,,,,,,,,,,0.7843,0,,,,,,,,,,,,,,,,,,,,,,,,0.888020833,-0.09765625,0,0,0,,,,,,,BERRY,LB,m,m,./images/BERRYLB.png,,,,,,,,,,,,,,,,,,,,z,0,0.7843,,,,,,,,0,15,15,47,1
,,,,,,,,,,,,,,,,,6117f6388428f7fc03e16eb2,25,2022-02-12_11h17.18.936,lexical_decision_task_DD,2021.2.3,Win32,60.07449237,,,,,,,,,,,,1.2031,0,,,,,,,,,,,,,,,,,,,,,,,,0.888020833,-0.09765625,0,0,0,,,,,,,VALLEY,LB,z,m,./images/VALLEYLB.png,,,,,,,,,,,,,,,,,,,,m,0,1.2031,,,,,,,,0,16,16,152,1
,,,,,,,,,,,,,,,,,6117f6388428f7fc03e16eb2,25,2022-02-12_11h17.18.936,lexical_decision_task_DD,2021.2.3,Win32,60.07449237,,,,,,,,,,,,1.0006,1,,,,,,,,,,,,,,,,,,,,,,,,0.888020833,-0.09765625,0,0,0,,,,,,,GREASE,C,m,m,./images/GREASE.png,,,,,,,,,,,,,,,,,,,,m,1,1.0006,,,,,,,,0,17,17,15,1
,,,,,,,,,,,,,,,,,6117f6388428f7fc03e16eb2,25,2022-02-12_11h17.18.936,lexical_decision_task_DD,2021.2.3,Win32,60.07449237,,,,,,,,,,,,0.8176,1,,,,,,,,,,,,,,,,,,,,,,,,0.888020833,-0.09765625,0,0,0,,,,,,,PILOT,LB,z,m,./images/PILOTLB.png,,,,,,,,,,,,,,,,,,,,z,1,0.8176,,,,,,,,0,18,18,134,1
,,,,,,,,,,,,,,,,,6117f6388428f7fc03e16eb2,25,2022-02-12_11h17.18.936,lexical_decision_task_DD,2021.2.3,Win32,60.07449237,,,,,,,,,,,,1.2397,1,,,,,,,,,,,,,,,,,,,,,,,,0.888020833,-0.09765625,0,0,0,,,,,,,STRING,LB,m,m,./images/STRINGLB.png,,,,,,,,,,,,,,,,,,,,m,1,1.2397,,,,,,,,0,19,19,41,1
,,,,,,,,,,,,,,,,,6117f6388428f7fc03e16eb2,25,2022-02-12_11h17.18.936,lexical_decision_task_DD,2021.2.3,Win32,60.07449237,,,,,,,,,,,,0.6338,1,,,,,,,,,,,,,,,,,,,,,,,,0.888020833,-0.09765625,0,0,0,,,,,,,BABOON,HB,m,m,./images/BABOONHB.png,,,,,,,,,,,,,,,,,,,,m,1,0.6338,,,,,,,,0,20,20,58,1
,,,,,,,,,,,,,,,,,6117f6388428f7fc03e16eb2,25,2022-02-12_11h17.18.936,lexical_decision_task_DD,2021.2.3,Win32,60.07449237,,,,,,,,,,,,0.688,1,,,,,,,,,,,,,,,,,,,,,,,,0.888020833,-0.09765625,0,0,0,,,,,,,ALLEY,HB,z,m,./images/ALLEYHB.png,,,,,,,,,,,,,,,,,,,,z,1,0.688,,,,,,,,0,21,21,139,1
,,,,,,,,,,,,,,,,,6117f6388428f7fc03e16eb2,25,2022-02-12_11h17.18.936,lexical_decision_task_DD,2021.2.3,Win32,60.07449237,,,,,,,,,,,,0.9192,1,,,,,,,,,,,,,,,,,,,,,,,,0.888020833,-0.09765625,0,0,0,,,,,,,GRAPE,HB,z,m,./images/GRAPEHB.png,,,,,,,,,,,,,,,,,,,,z,1,0.9192,,,,,,,,0,22,22,100,1
,,,,,,,,,,,,,,,,,6117f6388428f7fc03e16eb2,25,2022-02-12_11h17.18.936,lexical_decision_task_DD,2021.2.3,Win32,60.07449237,,,,,,,,,,,,0.8295,1,,,,,,,,,,,,,,,,,,,,,,,,0.888020833,-0.09765625,0,0,0,,,,,,,ARTIST,HB,z,m,./images/ARTISTHB.png,,,,,,,,,,,,,,,,,,,,z,1,0.8295,,,,,,,,0,23,23,145,1
,,,,,,,,,,,,,,,,,6117f6388428f7fc03e16eb2,25,2022-02-12_11h17.18.936,lexical_decision_task_DD,2021.2.3,Win32,60.07449237,,,,,,,,,,,,0.7036,1,,,,,,,,,,,,,,,,,,,,,,,,0.888020833,-0.09765625,0,0,0,,,,,,,NOOSE,C,m,m,./images/NOOSE.png,,,,,,,,,,,,,,,,,,,,m,1,0.7036,,,,,,,,0,24,24,72,1
,,,,,,,,,,,,,,,,,6117f6388428f7fc03e16eb2,25,2022-02-12_11h17.18.936,lexical_decision_task_DD,2021.2.3,Win32,60.07449237,,,,,,,,,,,,0.9179,1,,,,,,,,,,,,,,,,,,,,,,,,0.888020833,-0.09765625,0,0,0,,,,,,,DANCER,C,z,m,./images/DANCER.png,,,,,,,,,,,,,,,,,,,,z,1,0.9179,,,,,,,,0,25,25,105,1
,,,,,,,,,,,,,,,,,6117f6388428f7fc03e16eb2,25,2022-02-12_11h17.18.936,lexical_decision_task_DD,2021.2.3,Win32,60.07449237,,,,,,,,,,,,0.8013,1,,,,,,,,,,,,,,,,,,,,,,,,0.888020833,-0.09765625,0,0,0,,,,,,,PIMPLE,LB,m,m,./images/PIMPLELB.png,,,,,,,,,,,,,,,,,,,,m,1,0.8013,,,,,,,,0,26,26,71,1
,,,,,,,,,,,,,,,,,6117f6388428f7fc03e16eb2,25,2022-02-12_11h17.18.936,lexical_decision_task_DD,2021.2.3,Win32,60.07449237,,,,,,,,,,,,0.7336,1,,,,,,,,,,,,,,,,,,,,,,,,0.888020833,-0.09765625,0,0,0,,,,,,,LADDER,LB,m,m,./images/LADDERLB.png,,,,,,,,,,,,,,,,,,,,m,1,0.7336,,,,,,,,0,27,27,38,1
,,,,,,,,,,,,,,,,,6117f6388428f7fc03e16eb2,25,2022-02-12_11h17.18.936,lexical_decision_task_DD,2021.2.3,Win32,60.07449237,,,,,,,,,,,,1.0665,1,,,,,,,,,,,,,,,,,,,,,,,,0.888020833,-0.09765625,0,0,0,,,,,,,WAGON,HB,z,m,./images/WAGONHB.png,,,,,,,,,,,,,,,,,,,,z,1,1.0665,,,,,,,,0,28,28,91,1
,,,,,,,,,,,,,,,,,6117f6388428f7fc03e16eb2,25,2022-02-12_11h17.18.936,lexical_decision_task_DD,2021.2.3,Win32,60.07449237,,,,,,,,,,,,0.7416,1,,,,,,,,,,,,,,,,,,,,,,,,0.888020833,-0.09765625,0,0,0,,,,,,,SUNSET,HB,m,m,./images/SUNSETHB.png,,,,,,,,,,,,,,,,,,,,m,1,0.7416,,,,,,,,0,29,29,82,1
,,,,,,,,,,,,,,,,,6117f6388428f7fc03e16eb2,25,2022-02-12_11h17.18.936,lexical_decision_task_DD,2021.2.3,Win32,60.07449237,,,,,,,,,,,,0.8956,1,,,,,,,,,,,,,,,,,,,,,,,,0.888020833,-0.09765625,0,0,0,,,,,,,BROOM,C,z,m,./images/BROOM.png,,,,,,,,,,,,,,,,,,,,z,1,0.8956,,,,,,,,0,30,30,162,1
,,,,,,,,,,,,,,,,,6117f6388428f7fc03e16eb2,25,2022-02-12_11h17.18.936,lexical_decision_task_DD,2021.2.3,Win32,60.07449237,,,,,,,,,,,,1.3446,1,,,,,,,,,,,,,,,,,,,,,,,,0.888020833,-0.09765625,0,0,0,,,,,,,GRANNY,LB,z,m,./images/GRANNYLB.png,,,,,,,,,,,,,,,,,,,,z,1,1.3446,,,,,,,,0,31,31,104,1
,,,,,,,,,,,,,,,,,6117f6388428f7fc03e16eb2,25,2022-02-12_11h17.18.936,lexical_decision_task_DD,2021.2.3,Win32,60.07449237,,,,,,,,,,,,1.2845,1,,,,,,,,,,,,,,,,,,,,,,,,0.888020833,-0.09765625,0,0,0,,,,,,,STREAM,LB,z,m,./images/STREAMLB.png,,,,,,,,,,,,,,,,,,,,z,1,1.2845,,,,,,,,0,32,32,125,1
,,,,,,,,,,,,,,,,,6117f6388428f7fc03e16eb2,25,2022-02-12_11h17.18.936,lexical_decision_task_DD,2021.2.3,Win32,60.07449237,,,,,,,,,,,,0.8291,1,,,,,,,,,,,,,,,,,,,,,,,,0.888020833,-0.09765625,0,0,0,,,,,,,MUSCLE,HB,m,m,./images/MUSCLEHB.png,,,,,,,,,,,,,,,,,,,,m,1,0.8291,,,,,,,,0,33,33,4,1
,,,,,,,,,,,,,,,,,6117f6388428f7fc03e16eb2,25,2022-02-12_11h17.18.936,lexical_decision_task_DD,2021.2.3,Win32,60.07449237,,,,,,,,,,,,0.6983,1,,,,,,,,,,,,,,,,,,,,,,,,0.888020833,-0.09765625,0,0,0,,,,,,,SHIELD,C,z,m,./images/SHIELD.png,,,,,,,,,,,,,,,,,,,,z,1,0.6983,,,,,,,,0,34,34,132,1
,,,,,,,,,,,,,,,,,6117f6388428f7fc03e16eb2,25,2022-02-12_11h17.18.936,lexical_decision_task_DD,2021.2.3,Win32,60.07449237,,,,,,,,,,,,1.0522,1,,,,,,,,,,,,,,,,,,,,,,,,0.888020833,-0.09765625,0,0,0,,,,,,,BUNNY,HB,z,m,./images/BUNNYHB.png,,,,,,,,,,,,,,,,,,,,z,1,1.0522,,,,,,,,0,35,35,97,1
,,,,,,,,,,,,,,,,,6117f6388428f7fc03e16eb2,25,2022-02-12_11h17.18.936,lexical_decision_task_DD,2021.2.3,Win32,60.07449237,,,,,,,,,,,,0.5165,1,,,,,,,,,,,,,,,,,,,,,,,,0.888020833,-0.09765625,0,0,0,,,,,,,FINGER,C,m,m,./images/FINGER.png,,,,,,,,,,,,,,,,,,,,m,1,0.5165,,,,,,,,0,36,36,3,1
,,,,,,,,,,,,,,,,,6117f6388428f7fc03e16eb2,25,2022-02-12_11h17.18.936,lexical_decision_task_DD,2021.2.3,Win32,60.07449237,,,,,,,,,,,,0.7962,1,,,,,,,,,,,,,,,,,,,,,,,,0.888020833,-0.09765625,0,0,0,,,,,,,SNAKE,HB,z,m,./images/SNAKEHB.png,,,,,,,,,,,,,,,,,,,,z,1,0.7962,,,,,,,,0,37,37,124,1
,,,,,,,,,,,,,,,,,6117f6388428f7fc03e16eb2,25,2022-02-12_11h17.18.936,lexical_decision_task_DD,2021.2.3,Win32,60.07449237,,,,,,,,,,,,0.6182,1,,,,,,,,,,,,,,,,,,,,,,,,0.888020833,-0.09765625,0,0,0,,,,,,,SMOKER,LB,m,m,./images/SMOKERLB.png,,,,,,,,,,,,,,,,,,,,m,1,0.6182,,,,,,,,0,38,38,26,1
,,,,,,,,,,,,,,,,,6117f6388428f7fc03e16eb2,25,2022-02-12_11h17.18.936,lexical_decision_task_DD,2021.2.3,Win32,60.07449237,,,,,,,,,,,,0.5975,1,,,,,,,,,,,,,,,,,,,,,,,,0.888020833,-0.09765625,0,0,0,,,,,,,FOLDER,C,m,m,./images/FOLDER.png,,,,,,,,,,,,,,,,,,,,m,1,0.5975,,,,,,,,0,39,39,42,1
,,,,,,,,,,,,,,,,,6117f6388428f7fc03e16eb2,25,2022-02-12_11h17.18.936,lexical_decision_task_DD,2021.2.3,Win32,60.07449237,,,,,,,,,,,,0.634,1,,,,,,,,,,,,,,,,,,,,,,,,0.888020833,-0.09765625,0,0,0,,,,,,,CLOWN,HB,z,m,./images/CLOWNHB.png,,,,,,,,,,,,,,,,,,,,z,1,0.634,,,,,,,,0,40,40,106,1
,,,,,,,,,,,,,,,,,6117f6388428f7fc03e16eb2,25,2022-02-12_11h17.18.936,lexical_decision_task_DD,2021.2.3,Win32,60.07449237,,,,,,,,,,,,2.2477,1,,,,,,,,,,,,,,,,,,,,,,,,0.888020833,-0.09765625,0,0,0,space,,,,,,CHALK,HB,z,m,./images/CHALKHB.png,0.783,,,,,,,,,,,,,,,,,,,z,1,2.2477,,,,,,,,0,41,41,109,1
,,,,,,,,,,,,,,,,,6117f6388428f7fc03e16eb2,25,2022-02-12_11h17.18.936,lexical_decision_task_DD,2021.2.3,Win32,60.07449237,,,,,,,,,,,,0.9316,1,,,,,,,,,,,,,,,,,,,,,,,,0.888020833,-0.09765625,0,0,0,,,,,,,TOWEL,HB,z,m,./images/TOWELHB.png,,,,,,,,,,,,,,,,,,,,z,1,0.9316,,,,,,,,0,42,42,85,1
,,,,,,,,,,,,,,,,,6117f6388428f7fc03e16eb2,25,2022-02-12_11h17.18.936,lexical_decision_task_DD,2021.2.3,Win32,60.07449237,,,,,,,,,,,,0.5823,0,,,,,,,,,,,,,,,,,,,,,,,,0.888020833,-0.09765625,0,0,0,,,,,,,GARDEN,HB,z,m,./images/GARDENHB.png,,,,,,,,,,,,,,,,,,,,m,0,0.5823,,,,,,,,0,43,43,94,1
,,,,,,,,,,,,,,,,,6117f6388428f7fc03e16eb2,25,2022-02-12_11h17.18.936,lexical_decision_task_DD,2021.2.3,Win32,60.07449237,,,,,,,,,,,,0.5736,1,,,,,,,,,,,,,,,,,,,,,,,,0.888020833,-0.09765625,0,0,0,,,,,,,JAGUAR,C,m,m,./images/JAGUAR.png,,,,,,,,,,,,,,,,,,,,m,1,0.5736,,,,,,,,0,44,44,18,1
,,,,,,,,,,,,,,,,,6117f6388428f7fc03e16eb2,25,2022-02-12_11h17.18.936,lexical_decision_task_DD,2021.2.3,Win32,60.07449237,,,,,,,,,,,,0.6659,1,,,,,,,,,,,,,,,,,,,,,,,,0.888020833,-0.09765625,0,0,0,,,,,,,SWING,HB,m,m,./images/SWINGHB.png,,,,,,,,,,,,,,,,,,,,m,1,0.6659,,,,,,,,0,45,45,40,1
,,,,,,,,,,,,,,,,,6117f6388428f7fc03e16eb2,25,2022-02-12_11h17.18.936,lexical_decision_task_DD,2021.2.3,Win32,60.07449237,,,,,,,,,,,,0.6692,1,,,,,,,,,,,,,,,,,,,,,,,,0.888020833,-0.09765625,0,0,0,,,,,,,MOSQUE,HB,m,m,./images/MOSQUEHB.png,,,,,,,,,,,,,,,,,,,,m,1,0.6692,,,,,,,,0,46,46,43,1
,,,,,,,,,,,,,,,,,6117f6388428f7fc03e16eb2,25,2022-02-12_11h17.18.936,lexical_decision_task_DD,2021.2.3,Win32,60.07449237,,,,,,,,,,,,2.2098,1,,,,,,,,,,,,,,,,,,,,,,,,0.888020833,-0.09765625,0,0,0,,,,,,,SQUARE,C,m,m,./images/SQUARE.png,,,,,,,,,,,,,,,,,,,,m,1,2.2098,,,,,,,,0,47,47,6,1
,,,,,,,,,,,,,,,,,6117f6388428f7fc03e16eb2,25,2022-02-12_11h17.18.936,lexical_decision_task_DD,2021.2.3,Win32,60.07449237,,,,,,,,,,,,0.6741,1,,,,,,,,,,,,,,,,,,,,,,,,0.888020833,-0.09765625,0,0,0,,,,,,,TWINS,C,m,m,./images/TWINS.png,,,,,,,,,,,,,,,,,,,,m,1,0.6741,,,,,,,,0,48,48,60,1
,,,,,,,,,,,,,,,,,6117f6388428f7fc03e16eb2,25,2022-02-12_11h17.18.936,lexical_decision_task_DD,2021.2.3,Win32,60.07449237,,,,,,,,,,,,0.9527,1,,,,,,,,,,,,,,,,,,,,,,,,0.888020833,-0.09765625,0,0,0,,,,,,,SHELF,C,m,m,./images/SHELF.png,,,,,,,,,,,,,,,,,,,,m,1,0.9527,,,,,,,,0,49,49,39,1
,,,,,,,,,,,,,,,,,6117f6388428f7fc03e16eb2,25,2022-02-12_11h17.18.936,lexical_decision_task_DD,2021.2.3,Win32,60.07449237,,,,,,,,,,,,1.215,1,,,,,,,,,,,,,,,,,,,,,,,,0.888020833,-0.09765625,0,0,0,,,,,,,ATTIC,C,m,m,./images/ATTIC.png,,,,,,,,,,,,,,,,,,,,m,1,1.215,,,,,,,,0,50,50,27,1
,,,,,,,,,,,,,,,,,6117f6388428f7fc03e16eb2,25,2022-02-12_11h17.18.936,lexical_decision_task_DD,2021.2.3,Win32,60.07449237,,,,,,,,,,,,0.6998,1,,,,,,,,,,,,,,,,,,,,,,,,0.888020833,-0.09765625,0,0,0,,,,,,,BARREL,LB,m,m,./images/BARRELLB.png,,,,,,,,,,,,,,,,,,,,m,1,0.6998,,,,,,,,0,51,51,32,1
,,,,,,,,,,,,,,,,,6117f6388428f7fc03e16eb2,25,2022-02-12_11h17.18.936,lexical_decision_task_DD,2021.2.3,Win32,60.07449237,,,,,,,,,,,,0.5988,1,,,,,,,,,,,,,,,,,,,,,,,,0.888020833,-0.09765625,0,0,0,,,,,,,CANDLE,HB,m,m,./images/CANDLEHB.png,,,,,,,,,,,,,,,,,,,,m,1,0.5988,,,,,,,,0,52,52,61,1
,,,,,,,,,,,,,,,,,6117f6388428f7fc03e16eb2,25,2022-02-12_11h17.18.936,lexical_decision_task_DD,2021.2.3,Win32,60.07449237,,,,,,,,,,,,1.5501,1,,,,,,,,,,,,,,,,,,,,,,,,0.888020833,-0.09765625,0,0,0,,,,,,,PAINT,HB,m,m,./images/PAINTHB.png,,,,,,,,,,,,,,,,,,,,m,1,1.5501,,,,,,,,0,53,53,7,1
,,,,,,,,,,,,,,,,,6117f6388428f7fc03e16eb2,25,2022-02-12_11h17.18.936,lexical_decision_task_DD,2021.2.3,Win32,60.07449237,,,,,,,,,,,,0.8469,1,,,,,,,,,,,,,,,,,,,,,,,,0.888020833,-0.09765625,0,0,0,,,,,,,TORCH,LB,m,m,./images/TORCHLB.png,,,,,,,,,,,,,,,,,,,,m,1,0.8469,,,,,,,,0,54,54,68,1
,,,,,,,,,,,,,,,,,6117f6388428f7fc03e16eb2,25,2022-02-12_11h17.18.936,lexical_decision_task_DD,2021.2.3,Win32,60.07449237,,,,,,,,,,,,1.0135,1,,,,,,,,,,,,,,,,,,,,,,,,0.888020833,-0.09765625,0,0,0,,,,,,,PARCEL,C,z,m,./images/PARCEL.png,,,,,,,,,,,,,,,,,,,,z,1,1.0135,,,,,,,,0,55,55,102,1
,,,,,,,,,,,,,,,,,6117f6388428f7fc03e16eb2,25,2022-02-12_11h17.18.936,lexical_decision_task_DD,2021.2.3,Win32,60.07449237,,,,,,,,,,,,0.6646,1,,,,,,,,,,,,,,,,,,,,,,,,0.888020833,-0.09765625,0,0,0,,,,,,,URINE,HB,m,m,./images/URINEHB.png,,,,,,,,,,,,,,,,,,,,m,1,0.6646,,,,,,,,0,56,56,70,1
,,,,,,,,,,,,,,,,,6117f6388428f7fc03e16eb2,25,2022-02-12_11h17.18.936,lexical_decision_task_DD,2021.2.3,Win32,60.07449237,,,,,,,,,,,,0.7472,1,,,,,,,,,,,,,,,,,,,,,,,,0.888020833,-0.09765625,0,0,0,,,,,,,GRAIN,C,m,m,./images/GRAIN.png,,,,,,,,,,,,,,,,,,,,m,1,0.7472,,,,,,,,0,57,57,75,1
,,,,,,,,,,,,,,,,,6117f6388428f7fc03e16eb2,25,2022-02-12_11h17.18.936,lexical_decision_task_DD,2021.2.3,Win32,60.07449237,,,,,,,,,,,,1.3001,1,,,,,,,,,,,,,,,,,,,,,,,,0.888020833,-0.09765625,0,0,0,,,,,,,POKER,HB,z,m,./images/POKERHB.png,,,,,,,,,,,,,,,,,,,,z,1,1.3001,,,,,,,,0,58,58,151,1
,,,,,,,,,,,,,,,,,6117f6388428f7fc03e16eb2,25,2022-02-12_11h17.18.936,lexical_decision_task_DD,2021.2.3,Win32,60.07449237,,,,,,,,,,,,0.7198,1,,,,,,,,,,,,,,,,,,,,,,,,0.888020833,-0.09765625,0,0,0,,,,,,,PEARL,HB,m,m,./images/PEARLHB.png,,,,,,,,,,,,,,,,,,,,m,1,0.7198,,,,,,,,0,59,59,46,1
,,,,,,,,,,,,,,,,,6117f6388428f7fc03e16eb2,25,2022-02-12_11h17.18.936,lexical_decision_task_DD,2021.2.3,Win32,60.07449237,,,,,,,,,,,,0.7238,1,,,,,,,,,,,,,,,,,,,,,,,,0.888020833,-0.09765625,0,0,0,,,,,,,BURIAL,LB,m,m,./images/BURIALLB.png,,,,,,,,,,,,,,,,,,,,m,1,0.7238,,,,,,,,0,60,60,59,1
,,,,,,,,,,,,,,,,,6117f6388428f7fc03e16eb2,25,2022-02-12_11h17.18.936,lexical_decision_task_DD,2021.2.3,Win32,60.07449237,,,,,,,,,,,,0.6623,1,,,,,,,,,,,,,,,,,,,,,,,,0.888020833,-0.09765625,0,0,0,,,,,,,WHISKY,LB,z,m,./images/WHISKYLB.png,,,,,,,,,,,,,,,,,,,,z,1,0.6623,,,,,,,,0,61,61,167,1
,,,,,,,,,,,,,,,,,6117f6388428f7fc03e16eb2,25,2022-02-12_11h17.18.936,lexical_decision_task_DD,2021.2.3,Win32,60.07449237,,,,,,,,,,,,0.813,1,,,,,,,,,,,,,,,,,,,,,,,,0.888020833,-0.09765625,0,0,0,,,,,,,DRUMS,HB,m,m,./images/DRUMSHB.png,,,,,,,,,,,,,,,,,,,,m,1,0.813,,,,,,,,0,62,62,49,1
,,,,,,,,,,,,,,,,,6117f6388428f7fc03e16eb2,25,2022-02-12_11h17.18.936,lexical_decision_task_DD,2021.2.3,Win32,60.07449237,,,,,,,,,,,,2.2423,1,,,,,,,,,,,,,,,,,,,,,,,,0.888020833,-0.09765625,0,0,0,,,,,,,RAZOR,HB,z,m,./images/RAZORHB.png,,,,,,,,,,,,,,,,,,,,z,1,2.2423,,,,,,,,0,63,63,118,1
,,,,,,,,,,,,,,,,,6117f6388428f7fc03e16eb2,25,2022-02-12_11h17.18.936,lexical_decision_task_DD,2021.2.3,Win32,60.07449237,,,,,,,,,,,,0.9847,1,,,,,,,,,,,,,,,,,,,,,,,,0.888020833,-0.09765625,0,0,0,,,,,,,LLAMA,LB,z,m,./images/LLAMALB.png,,,,,,,,,,,,,,,,,,,,z,1,0.9847,,,,,,,,0,64,64,119,1
,,,,,,,,,,,,,,,,,6117f6388428f7fc03e16eb2,25,2022-02-12_11h17.18.936,lexical_decision_task_DD,2021.2.3,Win32,60.07449237,,,,,,,,,,,,0.6511,0,,,,,,,,,,,,,,,,,,,,,,,,0.888020833,-0.09765625,0,0,0,,,,,,,COLLAR,C,z,m,./images/COLLAR.png,,,,,,,,,,,,,,,,,,,,m,0,0.6511,,,,,,,,0,65,65,99,1
,,,,,,,,,,,,,,,,,6117f6388428f7fc03e16eb2,25,2022-02-12_11h17.18.936,lexical_decision_task_DD,2021.2.3,Win32,60.07449237,,,,,,,,,,,,0.6614,1,,,,,,,,,,,,,,,,,,,,,,,,0.888020833,-0.09765625,0,0,0,,,,,,,DONKEY,HB,z,m,./images/DONKEYHB.png,,,,,,,,,,,,,,,,,,,,z,1,0.6614,,,,,,,,0,66,66,103,1
,,,,,,,,,,,,,,,,,6117f6388428f7fc03e16eb2,25,2022-02-12_11h17.18.936,lexical_decision_task_DD,2021.2.3,Win32,60.07449237,,,,,,,,,,,,0.7061,1,,,,,,,,,,,,,,,,,,,,,,,,0.888020833,-0.09765625,0,0,0,,,,,,,JUMPER,LB,z,m,./images/JUMPERLB.png,,,,,,,,,,,,,,,,,,,,z,1,0.7061,,,,,,,,0,67,67,158,1
,,,,,,,,,,,,,,,,,6117f6388428f7fc03e16eb2,25,2022-02-12_11h17.18.936,lexical_decision_task_DD,2021.2.3,Win32,60.07449237,,,,,,,,,,,,0.6074,1,,,,,,,,,,,,,,,,,,,,,,,,0.888020833,-0.09765625,0,0,0,,,,,,,SNACK,HB,m,m,./images/SNACKHB.png,,,,,,,,,,,,,,,,,,,,m,1,0.6074,,,,,,,,0,68,68,73,1
,,,,,,,,,,,,,,,,,6117f6388428f7fc03e16eb2,25,2022-02-12_11h17.18.936,lexical_decision_task_DD,2021.2.3,Win32,60.07449237,,,,,,,,,,,,0.8836,1,,,,,,,,,,,,,,,,,,,,,,,,0.888020833,-0.09765625,0,0,0,,,,,,,WHEEL,LB,z,m,./images/WHEELLB.png,,,,,,,,,,,,,,,,,,,,z,1,0.8836,,,,,,,,0,69,69,161,1
,,,,,,,,,,,,,,,,,6117f6388428f7fc03e16eb2,25,2022-02-12_11h17.18.936,lexical_decision_task_DD,2021.2.3,Win32,60.07449237,,,,,,,,,,,,0.6056,1,,,,,,,,,,,,,,,,,,,,,,,,0.888020833,-0.09765625,0,0,0,,,,,,,KIDNEY,C,m,m,./images/KIDNEY.png,,,,,,,,,,,,,,,,,,,,m,1,0.6056,,,,,,,,0,70,70,21,1
,,,,,,,,,,,,,,,,,6117f6388428f7fc03e16eb2,25,2022-02-12_11h17.18.936,lexical_decision_task_DD,2021.2.3,Win32,60.07449237,,,,,,,,,,,,0.6214,1,,,,,,,,,,,,,,,,,,,,,,,,0.888020833,-0.09765625,0,0,0,,,,,,,ONION,C,m,m,./images/ONION.png,,,,,,,,,,,,,,,,,,,,m,1,0.6214,,,,,,,,0,71,71,51,1
,,,,,,,,,,,,,,,,,6117f6388428f7fc03e16eb2,25,2022-02-12_11h17.18.936,lexical_decision_task_DD,2021.2.3,Win32,60.07449237,,,,,,,,,,,,1.013,1,,,,,,,,,,,,,,,,,,,,,,,,0.888020833,-0.09765625,0,0,0,,,,,,,ARROW,C,z,m,./images/ARROW.png,,,,,,,,,,,,,,,,,,,,z,1,1.013,,,,,,,,0,72,72,153,1
,,,,,,,,,,,,,,,,,6117f6388428f7fc03e16eb2,25,2022-02-12_11h17.18.936,lexical_decision_task_DD,2021.2.3,Win32,60.07449237,,,,,,,,,,,,1.0035,1,,,,,,,,,,,,,,,,,,,,,,,,0.888020833,-0.09765625,0,0,0,,,,,,,BRUSH,LB,z,m,./images/BRUSHLB.png,,,,,,,,,,,,,,,,,,,,z,1,1.0035,,,,,,,,0,73,73,143,1
,,,,,,,,,,,,,,,,,6117f6388428f7fc03e16eb2,25,2022-02-12_11h17.18.936,lexical_decision_task_DD,2021.2.3,Win32,60.07449237,,,,,,,,,,,,0.6495,1,,,,,,,,,,,,,,,,,,,,,,,,0.888020833,-0.09765625,0,0,0,,,,,,,SHORE,C,m,m,./images/SHORE.png,,,,,,,,,,,,,,,,,,,,m,1,0.6495,,,,,,,,0,74,74,12,1
,,,,,,,,,,,,,,,,,6117f6388428f7fc03e16eb2,25,2022-02-12_11h17.18.936,lexical_decision_task_DD,2021.2.3,Win32,60.07449237,,,,,,,,,,,,0.943,1,,,,,,,,,,,,,,,,,,,,,,,,0.888020833,-0.09765625,0,0,0,,,,,,,SAUCE,C,z,m,./images/SAUCE.png,,,,,,,,,,,,,,,,,,,,z,1,0.943,,,,,,,,0,75,75,135,1
,,,,,,,,,,,,,,,,,6117f6388428f7fc03e16eb2,25,2022-02-12_11h17.18.936,lexical_decision_task_DD,2021.2.3,Win32,60.07449237,,,,,,,,,,,,0.6371,1,,,,,,,,,,,,,,,,,,,,,,,,0.888020833,-0.09765625,0,0,0,,,,,,,BANANA,HB,z,m,./images/BANANAHB.png,,,,,,,,,,,,,,,,,,,,z,1,0.6371,,,,,,,,0,76,76,154,1
,,,,,,,,,,,,,,,,,6117f6388428f7fc03e16eb2,25,2022-02-12_11h17.18.936,lexical_decision_task_DD,2021.2.3,Win32,60.07449237,,,,,,,,,,,,0.616,1,,,,,,,,,,,,,,,,,,,,,,,,0.888020833,-0.09765625,0,0,0,,,,,,,COUCH,LB,m,m,./images/COUCHLB.png,,,,,,,,,,,,,,,,,,,,m,1,0.616,,,,,,,,0,77,77,77,1
,,,,,,,,,,,,,,,,,6117f6388428f7fc03e16eb2,25,2022-02-12_11h17.18.936,lexical_decision_task_DD,2021.2.3,Win32,60.07449237,,,,,,,,,,,,0.638,1,,,,,,,,,,,,,,,,,,,,,,,,0.888020833,-0.09765625,0,0,0,,,,,,,BELLY,HB,m,m,./images/BELLYHB.png,,,,,,,,,,,,,,,,,,,,m,1,0.638,,,,,,,,0,78,78,10,1
,,,,,,,,,,,,,,,,,6117f6388428f7fc03e16eb2,25,2022-02-12_11h17.18.936,lexical_decision_task_DD,2021.2.3,Win32,60.07449237,,,,,,,,,,,,0.7819,1,,,,,,,,,,,,,,,,,,,,,,,,0.888020833,-0.09765625,0,0,0,,,,,,,BOXER,HB,z,m,./images/BOXERHB.png,,,,,,,,,,,,,,,,,,,,z,1,0.7819,,,,,,,,0,79,79,88,1
,,,,,,,,,,,,,,,,,6117f6388428f7fc03e16eb2,25,2022-02-12_11h17.18.936,lexical_decision_task_DD,2021.2.3,Win32,60.07449237,,,,,,,,,,,,0.8703,1,,,,,,,,,,,,,,,,,,,,,,,,0.888020833,-0.09765625,0,0,0,,,,,,,DIVER,C,z,m,./images/DIVER.png,,,,,,,,,,,,,,,,,,,,z,1,0.8703,,,,,,,,0,80,80,93,1
,,,,,,,,,,,,,,,,,6117f6388428f7fc03e16eb2,25,2022-02-12_11h17.18.936,lexical_decision_task_DD,2021.2.3,Win32,60.07449237,,,,,,,,,,,,0.7177,1,,,,,,,,,,,,,,,,,,,,,,,,0.888020833,-0.09765625,0,0,0,,,,,,,STORM,C,m,m,./images/STORM.png,,,,,,,,,,,,,,,,,,,,m,1,0.7177,,,,,,,,0,81,81,30,1
,,,,,,,,,,,,,,,,,6117f6388428f7fc03e16eb2,25,2022-02-12_11h17.18.936,lexical_decision_task_DD,2021.2.3,Win32,60.07449237,,,,,,,,,,,,0.6845,1,,,,,,,,,,,,,,,,,,,,,,,,0.888020833,-0.09765625,0,0,0,,,,,,,CASINO,HB,z,m,./images/CASINOHB.png,,,,,,,,,,,,,,,,,,,,z,1,0.6845,,,,,,,,0,82,82,112,1
,,,,,,,,,,,,,,,,,6117f6388428f7fc03e16eb2,25,2022-02-12_11h17.18.936,lexical_decision_task_DD,2021.2.3,Win32,60.07449237,,,,,,,,,,,,0.6696,1,,,,,,,,,,,,,,,,,,,,,,,,0.888020833,-0.09765625,0,0,0,space,,,,,,SKIING,LB,m,m,./images/SKIINGLB.png,0.8343,,,,,,,,,,,,,,,,,,,m,1,0.6696,,,,,,,,0,83,83,17,1
,,,,,,,,,,,,,,,,,6117f6388428f7fc03e16eb2,25,2022-02-12_11h17.18.936,lexical_decision_task_DD,2021.2.3,Win32,60.07449237,,,,,,,,,,,,1.2691,1,,,,,,,,,,,,,,,,,,,,,,,,0.888020833,-0.09765625,0,0,0,,,,,,,FENCE,LB,z,m,./images/FENCELB.png,,,,,,,,,,,,,,,,,,,,z,1,1.2691,,,,,,,,0,84,84,98,1
,,,,,,,,,,,,,,,,,6117f6388428f7fc03e16eb2,25,2022-02-12_11h17.18.936,lexical_decision_task_DD,2021.2.3,Win32,60.07449237,,,,,,,,,,,,0.8016,1,,,,,,,,,,,,,,,,,,,,,,,,0.888020833,-0.09765625,0,0,0,,,,,,,MEDAL,LB,z,m,./images/MEDALLB.png,,,,,,,,,,,,,,,,,,,,z,1,0.8016,,,,,,,,0,85,85,95,1
,,,,,,,,,,,,,,,,,6117f6388428f7fc03e16eb2,25,2022-02-12_11h17.18.936,lexical_decision_task_DD,2021.2.3,Win32,60.07449237,,,,,,,,,,,,0.9211,1,,,,,,,,,,,,,,,,,,,,,,,,0.888020833,-0.09765625,0,0,0,,,,,,,CLOTH,LB,z,m,./images/CLOTHLB.png,,,,,,,,,,,,,,,,,,,,z,1,0.9211,,,,,,,,0,86,86,107,1
,,,,,,,,,,,,,,,,,6117f6388428f7fc03e16eb2,25,2022-02-12_11h17.18.936,lexical_decision_task_DD,2021.2.3,Win32,60.07449237,,,,,,,,,,,,0.6883,1,,,,,,,,,,,,,,,,,,,,,,,,0.888020833,-0.09765625,0,0,0,,,,,,,WALRUS,LB,m,m,./images/WALRUSLB.png,,,,,,,,,,,,,,,,,,,,m,1,0.6883,,,,,,,,0,87,87,23,1
,,,,,,,,,,,,,,,,,6117f6388428f7fc03e16eb2,25,2022-02-12_11h17.18.936,lexical_decision_task_DD,2021.2.3,Win32,60.07449237,,,,,,,,,,,,0.8403,1,,,,,,,,,,,,,,,,,,,,,,,,0.888020833,-0.09765625,0,0,0,,,,,,,JELLY,HB,m,m,./images/JELLYHB.png,,,,,,,,,,,,,,,,,,,,m,1,0.8403,,,,,,,,0,88,88,64,1
,,,,,,,,,,,,,,,,,6117f6388428f7fc03e16eb2,25,2022-02-12_11h17.18.936,lexical_decision_task_DD,2021.2.3,Win32,60.07449237,,,,,,,,,,,,0.6829,1,,,,,,,,,,,,,,,,,,,,,,,,0.888020833,-0.09765625,0,0,0,,,,,,,BLOKE,C,z,m,./images/BLOKE.png,,,,,,,,,,,,,,,,,,,,z,1,0.6829,,,,,,,,0,89,89,96,1
,,,,,,,,,,,,,,,,,6117f6388428f7fc03e16eb2,25,2022-02-12_11h17.18.936,lexical_decision_task_DD,2021.2.3,Win32,60.07449237,,,,,,,,,,,,0.5895,1,,,,,,,,,,,,,,,,,,,,,,,,0.888020833,-0.09765625,0,0,0,,,,,,,SPORT,C,m,m,./images/SPORT.png,,,,,,,,,,,,,,,,,,,,m,1,0.5895,,,,,,,,0,90,90,48,1
,,,,,,,,,,,,,,,,,6117f6388428f7fc03e16eb2,25,2022-02-12_11h17.18.936,lexical_decision_task_DD,2021.2.3,Win32,60.07449237,,,,,,,,,,,,0.6637,1,,,,,,,,,,,,,,,,,,,,,,,,0.888020833,-0.09765625,0,0,0,,,,,,,PURSE,LB,m,m,./images/PURSELB.png,,,,,,,,,,,,,,,,,,,,m,1,0.6637,,,,,,,,0,91,91,62,1
,,,,,,,,,,,,,,,,,6117f6388428f7fc03e16eb2,25,2022-02-12_11h17.18.936,lexical_decision_task_DD,2021.2.3,Win32,60.07449237,,,,,,,,,,,,0.667,1,,,,,,,,,,,,,,,,,,,,,,,,0.888020833,-0.09765625,0,0,0,,,,,,,POODLE,C,m,m,./images/POODLE.png,,,,,,,,,,,,,,,,,,,,m,1,0.667,,,,,,,,0,92,92,81,1
,,,,,,,,,,,,,,,,,6117f6388428f7fc03e16eb2,25,2022-02-12_11h17.18.936,lexical_decision_task_DD,2021.2.3,Win32,60.07449237,,,,,,,,,,,,0.6992,1,,,,,,,,,,,,,,,,,,,,,,,,0.888020833,-0.09765625,0,0,0,,,,,,,FLASK,C,z,m,./images/FLASK.png,,,,,,,,,,,,,,,,,,,,z,1,0.6992,,,,,,,,0,93,93,156,1
,,,,,,,,,,,,,,,,,6117f6388428f7fc03e16eb2,25,2022-02-12_11h17.18.936,lexical_decision_task_DD,2021.2.3,Win32,60.07449237,,,,,,,,,,,,0.7965,1,,,,,,,,,,,,,,,,,,,,,,,,0.888020833,-0.09765625,0,0,0,,,,,,,CLOUD,LB,z,m,./images/CLOUDLB.png,,,,,,,,,,,,,,,,,,,,z,1,0.7965,,,,,,,,0,94,94,110,1
,,,,,,,,,,,,,,,,,6117f6388428f7fc03e16eb2,25,2022-02-12_11h17.18.936,lexical_decision_task_DD,2021.2.3,Win32,60.07449237,,,,,,,,,,,,0.7692,1,,,,,,,,,,,,,,,,,,,,,,,,0.888020833,-0.09765625,0,0,0,,,,,,,DOUGH,HB,m,m,./images/DOUGHHB.png,,,,,,,,,,,,,,,,,,,,m,1,0.7692,,,,,,,,0,95,95,19,1
,,,,,,,,,,,,,,,,,6117f6388428f7fc03e16eb2,25,2022-02-12_11h17.18.936,lexical_decision_task_DD,2021.2.3,Win32,60.07449237,,,,,,,,,,,,0.634,0,,,,,,,,,,,,,,,,,,,,,,,,0.888020833,-0.09765625,0,0,0,,,,,,,BAKER,C,z,m,./images/BAKER.png,,,,,,,,,,,,,,,,,,,,m,0,0.634,,,,,,,,0,96,96,147,1
,,,,,,,,,,,,,,,,,6117f6388428f7fc03e16eb2,25,2022-02-12_11h17.18.936,lexical_decision_task_DD,2021.2.3,Win32,60.07449237,,,,,,,,,,,,0.7092,1,,,,,,,,,,,,,,,,,,,,,,,,0.888020833,-0.09765625,0,0,0,,,,,,,CANOE,HB,z,m,./images/CANOEHB.png,,,,,,,,,,,,,,,,,,,,z,1,0.7092,,,,,,,,0,97,97,142,1
,,,,,,,,,,,,,,,,,6117f6388428f7fc03e16eb2,25,2022-02-12_11h17.18.936,lexical_decision_task_DD,2021.2.3,Win32,60.07449237,,,,,,,,,,,,0.7808,1,,,,,,,,,,,,,,,,,,,,,,,,0.888020833,-0.09765625,0,0,0,,,,,,,FLESH,C,z,m,./images/FLESH.png,,,,,,,,,,,,,,,,,,,,z,1,0.7808,,,,,,,,0,98,98,108,1
,,,,,,,,,,,,,,,,,6117f6388428f7fc03e16eb2,25,2022-02-12_11h17.18.936,lexical_decision_task_DD,2021.2.3,Win32,60.07449237,,,,,,,,,,,,0.7218,1,,,,,,,,,,,,,,,,,,,,,,,,0.888020833,-0.09765625,0,0,0,,,,,,,PISTOL,LB,z,m,./images/PISTOLLB.png,,,,,,,,,,,,,,,,,,,,z,1,0.7218,,,,,,,,0,99,99,113,1
,,,,,,,,,,,,,,,,,6117f6388428f7fc03e16eb2,25,2022-02-12_11h17.18.936,lexical_decision_task_DD,2021.2.3,Win32,60.07449237,,,,,,,,,,,,0.7358,1,,,,,,,,,,,,,,,,,,,,,,,,0.888020833,-0.09765625,0,0,0,,,,,,,CURRY,C,z,m,./images/CURRY.png,,,,,,,,,,,,,,,,,,,,z,1,0.7358,,,,,,,,0,100,100,144,1
,,,,,,,,,,,,,,,,,6117f6388428f7fc03e16eb2,25,2022-02-12_11h17.18.936,lexical_decision_task_DD,2021.2.3,Win32,60.07449237,,,,,,,,,,,,0.5809,1,,,,,,,,,,,,,,,,,,,,,,,,0.888020833,-0.09765625,0,0,0,,,,,,,CARPET,LB,m,m,./images/CARPETLB.png,,,,,,,,,,,,,,,,,,,,m,1,0.5809,,,,,,,,0,101,101,53,1
,,,,,,,,,,,,,,,,,6117f6388428f7fc03e16eb2,25,2022-02-12_11h17.18.936,lexical_decision_task_DD,2021.2.3,Win32,60.07449237,,,,,,,,,,,,0.7678,1,,,,,,,,,,,,,,,,,,,,,,,,0.888020833,-0.09765625,0,0,0,,,,,,,STAIN,C,z,m,./images/STAIN.png,,,,,,,,,,,,,,,,,,,,z,1,0.7678,,,,,,,,0,102,102,90,1
,,,,,,,,,,,,,,,,,6117f6388428f7fc03e16eb2,25,2022-02-12_11h17.18.936,lexical_decision_task_DD,2021.2.3,Win32,60.07449237,,,,,,,,,,,,0.6714,1,,,,,,,,,,,,,,,,,,,,,,,,0.888020833,-0.09765625,0,0,0,,,,,,,ENGINE,LB,z,m,./images/ENGINELB.png,,,,,,,,,,,,,,,,,,,,z,1,0.6714,,,,,,,,0,103,103,122,1
,,,,,,,,,,,,,,,,,6117f6388428f7fc03e16eb2,25,2022-02-12_11h17.18.936,lexical_decision_task_DD,2021.2.3,Win32,60.07449237,,,,,,,,,,,,0.5698,1,,,,,,,,,,,,,,,,,,,,,,,,0.888020833,-0.09765625,0,0,0,,,,,,,COOKER,C,m,m,./images/COOKER.png,,,,,,,,,,,,,,,,,,,,m,1,0.5698,,,,,,,,0,104,104,69,1
,,,,,,,,,,,,,,,,,6117f6388428f7fc03e16eb2,25,2022-02-12_11h17.18.936,lexical_decision_task_DD,2021.2.3,Win32,60.07449237,,,,,,,,,,,,0.8141,1,,,,,,,,,,,,,,,,,,,,,,,,0.888020833,-0.09765625,0,0,0,,,,,,,BEARD,LB,m,m,./images/BEARDLB.png,,,,,,,,,,,,,,,,,,,,m,1,0.8141,,,,,,,,0,105,105,2,1
,,,,,,,,,,,,,,,,,6117f6388428f7fc03e16eb2,25,2022-02-12_11h17.18.936,lexical_decision_task_DD,2021.2.3,Win32,60.07449237,,,,,,,,,,,,0.6984,1,,,,,,,,,,,,,,,,,,,,,,,,0.888020833,-0.09765625,0,0,0,,,,,,,CRATER,C,z,m,./images/CRATER.png,,,,,,,,,,,,,,,,,,,,z,1,0.6984,,,,,,,,0,106,106,87,1
,,,,,,,,,,,,,,,,,6117f6388428f7fc03e16eb2,25,2022-02-12_11h17.18.936,lexical_decision_task_DD,2021.2.3,Win32,60.07449237,,,,,,,,,,,,0.6381,1,,,,,,,,,,,,,,,,,,,,,,,,0.888020833,-0.09765625,0,0,0,,,,,,,BUBBLE,LB,z,m,./images/BUBBLELB.png,,,,,,,,,,,,,,,,,,,,z,1,0.6381,,,,,,,,0,107,107,155,1
,,,,,,,,,,,,,,,,,6117f6388428f7fc03e16eb2,25,2022-02-12_11h17.18.936,lexical_decision_task_DD,2021.2.3,Win32,60.07449237,,,,,,,,,,,,0.7178,1,,,,,,,,,,,,,,,,,,,,,,,,0.888020833,-0.09765625,0,0,0,,,,,,,PENCE,HB,m,m,./images/PENCEHB.png,,,,,,,,,,,,,,,,,,,,m,1,0.7178,,,,,,,,0,108,108,16,1
,,,,,,,,,,,,,,,,,6117f6388428f7fc03e16eb2,25,2022-02-12_11h17.18.936,lexical_decision_task_DD,2021.2.3,Win32,60.07449237,,,,,,,,,,,,0.6598,1,,,,,,,,,,,,,,,,,,,,,,,,0.888020833,-0.09765625,0,0,0,,,,,,,INFANT,HB,m,m,./images/INFANTHB.png,,,,,,,,,,,,,,,,,,,,m,1,0.6598,,,,,,,,0,109,109,76,1
,,,,,,,,,,,,,,,,,6117f6388428f7fc03e16eb2,25,2022-02-12_11h17.18.936,lexical_decision_task_DD,2021.2.3,Win32,60.07449237,,,,,,,,,,,,0.7489,0,,,,,,,,,,,,,,,,,,,,,,,,0.888020833,-0.09765625,0,0,0,,,,,,,BAMBOO,LB,z,m,./images/BAMBOOLB.png,,,,,,,,,,,,,,,,,,,,m,0,0.7489,,,,,,,,0,110,110,89,1
,,,,,,,,,,,,,,,,,6117f6388428f7fc03e16eb2,25,2022-02-12_11h17.18.936,lexical_decision_task_DD,2021.2.3,Win32,60.07449237,,,,,,,,,,,,0.6923,1,,,,,,,,,,,,,,,,,,,,,,,,0.888020833,-0.09765625,0,0,0,,,,,,,MALLET,LB,m,m,./images/MALLETLB.png,,,,,,,,,,,,,,,,,,,,m,1,0.6923,,,,,,,,0,111,111,50,1
,,,,,,,,,,,,,,,,,6117f6388428f7fc03e16eb2,25,2022-02-12_11h17.18.936,lexical_decision_task_DD,2021.2.3,Win32,60.07449237,,,,,,,,,,,,0.6613,1,,,,,,,,,,,,,,,,,,,,,,,,0.888020833,-0.09765625,0,0,0,,,,,,,JUNGLE,LB,m,m,./images/JUNGLELB.png,,,,,,,,,,,,,,,,,,,,m,1,0.6613,,,,,,,,0,112,112,83,1
,,,,,,,,,,,,,,,,,6117f6388428f7fc03e16eb2,25,2022-02-12_11h17.18.936,lexical_decision_task_DD,2021.2.3,Win32,60.07449237,,,,,,,,,,,,0.6811,1,,,,,,,,,,,,,,,,,,,,,,,,0.888020833,-0.09765625,0,0,0,,,,,,,PEACH,LB,m,m,./images/PEACHLB.png,,,,,,,,,,,,,,,,,,,,m,1,0.6811,,,,,,,,0,113,113,35,1
,,,,,,,,,,,,,,,,,6117f6388428f7fc03e16eb2,25,2022-02-12_11h17.18.936,lexical_decision_task_DD,2021.2.3,Win32,60.07449237,,,,,,,,,,,,0.6865,1,,,,,,,,,,,,,,,,,,,,,,,,0.888020833,-0.09765625,0,0,0,,,,,,,KITTEN,C,m,m,./images/KITTEN.png,,,,,,,,,,,,,,,,,,,,m,1,0.6865,,,,,,,,0,114,114,45,1
,,,,,,,,,,,,,,,,,6117f6388428f7fc03e16eb2,25,2022-02-12_11h17.18.936,lexical_decision_task_DD,2021.2.3,Win32,60.07449237,,,,,,,,,,,,0.9687,1,,,,,,,,,,,,,,,,,,,,,,,,0.888020833,-0.09765625,0,0,0,,,,,,,PACKET,LB,m,m,./images/PACKETLB.png,,,,,,,,,,,,,,,,,,,,m,1,0.9687,,,,,,,,0,115,115,56,1
,,,,,,,,,,,,,,,,,6117f6388428f7fc03e16eb2,25,2022-02-12_11h17.18.936,lexical_decision_task_DD,2021.2.3,Win32,60.07449237,,,,,,,,,,,,0.6441,1,,,,,,,,,,,,,,,,,,,,,,,,0.888020833,-0.09765625,0,0,0,,,,,,,TOMATO,C,m,m,./images/TOMATO.png,,,,,,,,,,,,,,,,,,,,m,1,0.6441,,,,,,,,0,116,116,0,1
,,,,,,,,,,,,,,,,,6117f6388428f7fc03e16eb2,25,2022-02-12_11h17.18.936,lexical_decision_task_DD,2021.2.3,Win32,60.07449237,,,,,,,,,,,,0.6753,0,,,,,,,,,,,,,,,,,,,,,,,,0.888020833,-0.09765625,0,0,0,,,,,,,MUMMY,HB,z,m,./images/MUMMYHB.png,,,,,,,,,,,,,,,,,,,,m,0,0.6753,,,,,,,,0,117,117,130,1
,,,,,,,,,,,,,,,,,6117f6388428f7fc03e16eb2,25,2022-02-12_11h17.18.936,lexical_decision_task_DD,2021.2.3,Win32,60.07449237,,,,,,,,,,,,0.8219,1,,,,,,,,,,,,,,,,,,,,,,,,0.888020833,-0.09765625,0,0,0,,,,,,,BOILER,C,z,m,./images/BOILER.png,,,,,,,,,,,,,,,,,,,,z,1,0.8219,,,,,,,,0,118,118,120,1
,,,,,,,,,,,,,,,,,6117f6388428f7fc03e16eb2,25,2022-02-12_11h17.18.936,lexical_decision_task_DD,2021.2.3,Win32,60.07449237,,,,,,,,,,,,0.7154,1,,,,,,,,,,,,,,,,,,,,,,,,0.888020833,-0.09765625,0,0,0,,,,,,,TRIPOD,C,m,m,./images/TRIPOD.png,,,,,,,,,,,,,,,,,,,,m,1,0.7154,,,,,,,,0,119,119,54,1
,,,,,,,,,,,,,,,,,6117f6388428f7fc03e16eb2,25,2022-02-12_11h17.18.936,lexical_decision_task_DD,2021.2.3,Win32,60.07449237,,,,,,,,,,,,1.012,1,,,,,,,,,,,,,,,,,,,,,,,,0.888020833,-0.09765625,0,0,0,,,,,,,SPINE,LB,z,m,./images/SPINELB.png,,,,,,,,,,,,,,,,,,,,z,1,1.012,,,,,,,,0,120,120,149,1
,,,,,,,,,,,,,,,,,6117f6388428f7fc03e16eb2,25,2022-02-12_11h17.18.936,lexical_decision_task_DD,2021.2.3,Win32,60.07449237,,,,,,,,,,,,0.5857,1,,,,,,,,,,,,,,,,,,,,,,,,0.888020833,-0.09765625,0,0,0,,,,,,,SCREW,C,m,m,./images/SCREW.png,,,,,,,,,,,,,,,,,,,,m,1,0.5857,,,,,,,,0,121,121,24,1
,,,,,,,,,,,,,,,,,6117f6388428f7fc03e16eb2,25,2022-02-12_11h17.18.936,lexical_decision_task_DD,2021.2.3,Win32,60.07449237,,,,,,,,,,,,0.7972,1,,,,,,,,,,,,,,,,,,,,,,,,0.888020833,-0.09765625,0,0,0,,,,,,,DRILL,C,z,m,./images/DRILL.png,,,,,,,,,,,,,,,,,,,,z,1,0.7972,,,,,,,,0,122,122,165,1
,,,,,,,,,,,,,,,,,6117f6388428f7fc03e16eb2,25,2022-02-12_11h17.18.936,lexical_decision_task_DD,2021.2.3,Win32,60.07449237,,,,,,,,,,,,0.7707,1,,,,,,,,,,,,,,,,,,,,,,,,0.888020833,-0.09765625,0,0,0,,,,,,,MOTOR,HB,m,m,./images/MOTORHB.png,,,,,,,,,,,,,,,,,,,,m,1,0.7707,,,,,,,,0,123,123,13,1
,,,,,,,,,,,,,,,,,6117f6388428f7fc03e16eb2,25,2022-02-12_11h17.18.936,lexical_decision_task_DD,2021.2.3,Win32,60.07449237,,,,,,,,,,,,1.0849,1,,,,,,,,,,,,,,,,,,,,,,,,0.888020833,-0.09765625,0,0,0,,,,,,,CANDY,C,z,m,./images/CANDY.png,,,,,,,,,,,,,,,,,,,,z,1,1.0849,,,,,,,,0,124,124,123,1
,,,,,,,,,,,,,,,,,6117f6388428f7fc03e16eb2,25,2022-02-12_11h17.18.936,lexical_decision_task_DD,2021.2.3,Win32,60.07449237,,,,,,,,,,,,1.1682,1,,,,,,,,,,,,,,,,,,,,,,,,0.888020833,-0.09765625,0,0,0,space,,,,,,CRADLE,LB,m,m,./images/CRADLELB.png,0.6946,,,,,,,,,,,,,,,,,,,m,1,1.1682,,,,,,,,0,125,125,20,1
,,,,,,,,,,,,,,,,,6117f6388428f7fc03e16eb2,25,2022-02-12_11h17.18.936,lexical_decision_task_DD,2021.2.3,Win32,60.07449237,,,,,,,,,,,,1.1121,1,,,,,,,,,,,,,,,,,,,,,,,,0.888020833,-0.09765625,0,0,0,,,,,,,FARMER,LB,m,m,./images/FARMERLB.png,,,,,,,,,,,,,,,,,,,,m,1,1.1121,,,,,,,,0,126,126,65,1
,,,,,,,,,,,,,,,,,6117f6388428f7fc03e16eb2,25,2022-02-12_11h17.18.936,lexical_decision_task_DD,2021.2.3,Win32,60.07449237,,,,,,,,,,,,0.6738,1,,,,,,,,,,,,,,,,,,,,,,,,0.888020833,-0.09765625,0,0,0,,,,,,,SWEAT,C,m,m,./images/SWEAT.png,,,,,,,,,,,,,,,,,,,,m,1,0.6738,,,,,,,,0,127,127,66,1
,,,,,,,,,,,,,,,,,6117f6388428f7fc03e16eb2,25,2022-02-12_11h17.18.936,lexical_decision_task_DD,2021.2.3,Win32,60.07449237,,,,,,,,,,,,0.9806,1,,,,,,,,,,,,,,,,,,,,,,,,0.888020833,-0.09765625,0,0,0,,,,,,,STOOL,HB,z,m,./images/STOOLHB.png,,,,,,,,,,,,,,,,,,,,z,1,0.9806,,,,,,,,0,128,128,127,1
,,,,,,,,,,,,,,,,,6117f6388428f7fc03e16eb2,25,2022-02-12_11h17.18.936,lexical_decision_task_DD,2021.2.3,Win32,60.07449237,,,,,,,,,,,,0.7277,1,,,,,,,,,,,,,,,,,,,,,,,,0.888020833,-0.09765625,0,0,0,,,,,,,GLOVE,HB,z,m,./images/GLOVEHB.png,,,,,,,,,,,,,,,,,,,,z,1,0.7277,,,,,,,,0,129,129,157,1
,,,,,,,,,,,,,,,,,6117f6388428f7fc03e16eb2,25,2022-02-12_11h17.18.936,lexical_decision_task_DD,2021.2.3,Win32,60.07449237,,,,,,,,,,,,0.7988,1,,,,,,,,,,,,,,,,,,,,,,,,0.888020833,-0.09765625,0,0,0,,,,,,,TIGER,HB,z,m,./images/TIGERHB.png,,,,,,,,,,,,,,,,,,,,z,1,0.7988,,,,,,,,0,130,130,121,1
,,,,,,,,,,,,,,,,,6117f6388428f7fc03e16eb2,25,2022-02-12_11h17.18.936,lexical_decision_task_DD,2021.2.3,Win32,60.07449237,,,,,,,,,,,,0.7984,1,,,,,,,,,,,,,,,,,,,,,,,,0.888020833,-0.09765625,0,0,0,,,,,,,DESERT,HB,z,m,./images/DESERTHB.png,,,,,,,,,,,,,,,,,,,,z,1,0.7984,,,,,,,,0,131,131,136,1
,,,,,,,,,,,,,,,,,6117f6388428f7fc03e16eb2,25,2022-02-12_11h17.18.936,lexical_decision_task_DD,2021.2.3,Win32,60.07449237,,,,,,,,,,,,0.6129,1,,,,,,,,,,,,,,,,,,,,,,,,0.888020833,-0.09765625,0,0,0,,,,,,,MUFFIN,HB,m,m,./images/MUFFINHB.png,,,,,,,,,,,,,,,,,,,,m,1,0.6129,,,,,,,,0,132,132,55,1
,,,,,,,,,,,,,,,,,6117f6388428f7fc03e16eb2,25,2022-02-12_11h17.18.936,lexical_decision_task_DD,2021.2.3,Win32,60.07449237,,,,,,,,,,,,0.7017,1,,,,,,,,,,,,,,,,,,,,,,,,0.888020833,-0.09765625,0,0,0,,,,,,,BUTTER,C,z,m,./images/BUTTER.png,,,,,,,,,,,,,,,,,,,,z,1,0.7017,,,,,,,,0,133,133,111,1
,,,,,,,,,,,,,,,,,6117f6388428f7fc03e16eb2,25,2022-02-12_11h17.18.936,lexical_decision_task_DD,2021.2.3,Win32,60.07449237,,,,,,,,,,,,0.6477,1,,,,,,,,,,,,,,,,,,,,,,,,0.888020833,-0.09765625,0,0,0,,,,,,,QUILL,HB,m,m,./images/QUILLHB.png,,,,,,,,,,,,,,,,,,,,m,1,0.6477,,,,,,,,0,134,134,31,1
,,,,,,,,,,,,,,,,,6117f6388428f7fc03e16eb2,25,2022-02-12_11h17.18.936,lexical_decision_task_DD,2021.2.3,Win32,60.07449237,,,,,,,,,,,,1.078,1,,,,,,,,,,,,,,,,,,,,,,,,0.888020833,-0.09765625,0,0,0,,,,,,,BONNET,LB,m,m,./images/BONNETLB.png,,,,,,,,,,,,,,,,,,,,m,1,1.078,,,,,,,,0,135,135,11,1
