key_resp.keys,instr_done_touch.x,instr_done_touch.y,instr_done_touch.leftButton,instr_done_touch.midButton,instr_done_touch.rightButton,instr_done_touch.clicked_name,instruction_pages.thisRepN,instruction_pages.thisTrialN,instruction_pages.thisN,instruction_pages.thisIndex,instruction_pages.ran,pageN,phase,instruct_text,has_image,instruct_image,participant,age,date,expName,psychopyVersion,OS,frameRate,response.keys,response.corr,response.rt,touch_resp.x,touch_resp.y,touch_resp.leftButton,touch_resp.midButton,touch_resp.rightButton,touch_resp.time,touch_resp.clicked_name,rt,corr,practrials.thisRepN,practrials.thisTrialN,practrials.thisN,practrials.thisIndex,practrials.ran,TrialID,Target,corrAns,end_of_practice_trials_pages.thisRepN,end_of_practice_trials_pages.thisTrialN,end_of_practice_trials_pages.thisN,end_of_practice_trials_pages.thisIndex,end_of_practice_trials_pages.ran,key_resp_2.keys,key_resp_2.corr,key_resp_2.rt,targ_click.x,targ_click.y,targ_click.leftButton,targ_click.midButton,targ_click.rightButton,targ_click.time,targ_click.clicked_name,break_done_touch.x,break_done_touch.y,break_done_touch.leftButton,break_done_touch.midButton,break_done_touch.rightButton,break_done_keyboard.keys,maintrials.thisRepN,maintrials.thisTrialN,maintrials.thisN,maintrials.thisIndex,maintrials.ran,string,blur,study,lex,stim_path,break_done_keyboard.rt,mouse_2.x,mouse_2.y,mouse_2.leftButton,mouse_2.midButton,mouse_2.rightButton,mouse_2.clicked_name,slider.response,slider.rt,trials.thisRepN,trials.thisTrialN,trials.thisN,trials.thisIndex,trials.ran,key_resp.rt,test_instructions.thisRepN,test_instructions.thisTrialN,test_instructions.thisN,test_instructions.thisIndex,test_instructions.ran,key_resp_3.keys,key_resp_3.corr,key_resp_3.rt,test_click.x,test_click.y,test_click.leftButton,test_click.midButton,test_click.rightButton,test_click.time,test_click.clicked_name,test_phase.thisRepN,test_phase.thisTrialN,test_phase.thisN,test_phase.thisIndex,test_phase.ran,break_done_touch.clicked_name
,0.061111111,-0.425,1,0,0,instr_done_button,0,0,0,0,1,1,instructions,"INSTRUCTIONS
At the start of each trial, look at the plus sign  (+) in the center of the screen.  This tells you that a trial is about to begin and where to look. Second, the plus sign will disappear and a string of letters will appear. Your task is to determine if the string of letters is a word or not. If the item is a word press the M key (on keyboard)  or touch the word button (phone/tablet).  If the item is not a word,  press the  Z key (on keyboard)  or touch the nonword button (on phone/tablet). 
Press the space bar or touch  continue.",0,,613e59f68312d2083c8b193d,42,2022-02-12_16h08.01.485,lexical_decision_task_DD,2021.2.3,Win32,59.98440405,,,,,,,,,,,,,,,,,,,,,,,,,,,,,,,,,,,,,,,,,,,,,,,,,,,,,,,,,,,,,,,,,,,,,,,,,,,,,,,,,,,,,,,
,0.053703704,-0.423148148,1,0,0,instr_done_button,0,1,1,1,1,2,instructions,"If your device has a keyboard, press the 'Z' key for nonwords and the 'M' key for words.





Press the space bar or touch the button below to continue.",0,keyboard-example.gif,613e59f68312d2083c8b193d,42,2022-02-12_16h08.01.485,lexical_decision_task_DD,2021.2.3,Win32,59.98440405,,,,,,,,,,,,,,,,,,,,,,,,,,,,,,,,,,,,,,,,,,,,,,,,,,,,,,,,,,,,,,,,,,,,,,,,,,,,,,,,,,,,,,,
,0.051851852,-0.424074074,1,0,0,instr_done_button,0,2,2,2,1,3,instructions,"If you are using a touchscreen only device, use the buttons on the screen. Do not use the mouse.





Press the space bar or touch the button below to continue.",0,touchscreen-example.gif,613e59f68312d2083c8b193d,42,2022-02-12_16h08.01.485,lexical_decision_task_DD,2021.2.3,Win32,59.98440405,,,,,,,,,,,,,,,,,,,,,,,,,,,,,,,,,,,,,,,,,,,,,,,,,,,,,,,,,,,,,,,,,,,,,,,,,,,,,,,,,,,,,,,
,0.048148148,-0.422222222,1,0,0,instr_done_button,0,3,3,3,1,4,instructions,"It is very important that you respond as quickly and accurately as possible, as each letter string will only be on the screen for two seconds. If you do not respond within this time, the message 'Too slow!' will be displayed and the experiment will progress to the next letter string. The first 20 trials will be practice trials and you will receive feedback on your answers. 

Press the space bar or touch the button below to start the practice trials.",0,,613e59f68312d2083c8b193d,42,2022-02-12_16h08.01.485,lexical_decision_task_DD,2021.2.3,Win32,59.98440405,,,,,,,,,,,,,,,,,,,,,,,,,,,,,,,,,,,,,,,,,,,,,,,,,,,,,,,,,,,,,,,,,,,,,,,,,,,,,,,,,,,,,,,
,,,,,,,,,,,,,,,,,613e59f68312d2083c8b193d,42,2022-02-12_16h08.01.485,lexical_decision_task_DD,2021.2.3,Win32,59.98440405,z,1,1.5197,,,,,,,,1.5197,1,0,0,0,12,1,1001,SPRINY,z,,,,,,,,,,,,,,,,,,,,,,,,,,,,,,,,,,,,,,,,,,,,,,,,,,,,,,,,,,,,,,,,,,,
,,,,,,,,,,,,,,,,,613e59f68312d2083c8b193d,42,2022-02-12_16h08.01.485,lexical_decision_task_DD,2021.2.3,Win32,59.98440405,m,1,0.5761,,,,,,,,0.5761,1,0,1,1,5,1,1001,OBTAIN,m,,,,,,,,,,,,,,,,,,,,,,,,,,,,,,,,,,,,,,,,,,,,,,,,,,,,,,,,,,,,,,,,,,,
,,,,,,,,,,,,,,,,,613e59f68312d2083c8b193d,42,2022-02-12_16h08.01.485,lexical_decision_task_DD,2021.2.3,Win32,59.98440405,z,1,0.5858,,,,,,,,0.5858,1,0,2,2,13,1,1001,ROUPET,z,,,,,,,,,,,,,,,,,,,,,,,,,,,,,,,,,,,,,,,,,,,,,,,,,,,,,,,,,,,,,,,,,,,
,,,,,,,,,,,,,,,,,613e59f68312d2083c8b193d,42,2022-02-12_16h08.01.485,lexical_decision_task_DD,2021.2.3,Win32,59.98440405,z,1,0.6619,,,,,,,,0.6619,1,0,3,3,8,1,1001,ASLERT,z,,,,,,,,,,,,,,,,,,,,,,,,,,,,,,,,,,,,,,,,,,,,,,,,,,,,,,,,,,,,,,,,,,,
,,,,,,,,,,,,,,,,,613e59f68312d2083c8b193d,42,2022-02-12_16h08.01.485,lexical_decision_task_DD,2021.2.3,Win32,59.98440405,z,1,0.8578,,,,,,,,0.8578,1,0,4,4,9,1,1001,FARINY,z,,,,,,,,,,,,,,,,,,,,,,,,,,,,,,,,,,,,,,,,,,,,,,,,,,,,,,,,,,,,,,,,,,,
,,,,,,,,,,,,,,,,,613e59f68312d2083c8b193d,42,2022-02-12_16h08.01.485,lexical_decision_task_DD,2021.2.3,Win32,59.98440405,m,1,0.5247,,,,,,,,0.5247,1,0,5,5,6,1,1001,ZOMBIE,m,,,,,,,,,,,,,,,,,,,,,,,,,,,,,,,,,,,,,,,,,,,,,,,,,,,,,,,,,,,,,,,,,,,
,,,,,,,,,,,,,,,,,613e59f68312d2083c8b193d,42,2022-02-12_16h08.01.485,lexical_decision_task_DD,2021.2.3,Win32,59.98440405,m,1,0.4857,,,,,,,,0.4857,1,0,6,6,2,1,1001,ALMOND,m,,,,,,,,,,,,,,,,,,,,,,,,,,,,,,,,,,,,,,,,,,,,,,,,,,,,,,,,,,,,,,,,,,,
,,,,,,,,,,,,,,,,,613e59f68312d2083c8b193d,42,2022-02-12_16h08.01.485,lexical_decision_task_DD,2021.2.3,Win32,59.98440405,z,1,0.6156,,,,,,,,0.6156,1,0,7,7,10,1,1001,INLADE,z,,,,,,,,,,,,,,,,,,,,,,,,,,,,,,,,,,,,,,,,,,,,,,,,,,,,,,,,,,,,,,,,,,,
,,,,,,,,,,,,,,,,,613e59f68312d2083c8b193d,42,2022-02-12_16h08.01.485,lexical_decision_task_DD,2021.2.3,Win32,59.98440405,m,1,0.5735,,,,,,,,0.5735,1,0,8,8,3,1,1001,MATRIX,m,,,,,,,,,,,,,,,,,,,,,,,,,,,,,,,,,,,,,,,,,,,,,,,,,,,,,,,,,,,,,,,,,,,
,,,,,,,,,,,,,,,,,613e59f68312d2083c8b193d,42,2022-02-12_16h08.01.485,lexical_decision_task_DD,2021.2.3,Win32,59.98440405,m,1,0.7324,,,,,,,,0.7324,1,0,9,9,0,1,1001,UTOPIA,m,,,,,,,,,,,,,,,,,,,,,,,,,,,,,,,,,,,,,,,,,,,,,,,,,,,,,,,,,,,,,,,,,,,
,,,,,,,,,,,,,,,,,613e59f68312d2083c8b193d,42,2022-02-12_16h08.01.485,lexical_decision_task_DD,2021.2.3,Win32,59.98440405,m,1,0.4664,,,,,,,,0.4664,1,0,10,10,1,1,1001,ADJUST,m,,,,,,,,,,,,,,,,,,,,,,,,,,,,,,,,,,,,,,,,,,,,,,,,,,,,,,,,,,,,,,,,,,,
,,,,,,,,,,,,,,,,,613e59f68312d2083c8b193d,42,2022-02-12_16h08.01.485,lexical_decision_task_DD,2021.2.3,Win32,59.98440405,m,1,0.5207,,,,,,,,0.5207,1,0,11,11,4,1,1001,SQUEAK,m,,,,,,,,,,,,,,,,,,,,,,,,,,,,,,,,,,,,,,,,,,,,,,,,,,,,,,,,,,,,,,,,,,,
,,,,,,,,,,,,,,,,,613e59f68312d2083c8b193d,42,2022-02-12_16h08.01.485,lexical_decision_task_DD,2021.2.3,Win32,59.98440405,z,1,0.6628,,,,,,,,0.6628,1,0,12,12,14,1,1001,THRALE,z,,,,,,,,,,,,,,,,,,,,,,,,,,,,,,,,,,,,,,,,,,,,,,,,,,,,,,,,,,,,,,,,,,,
,,,,,,,,,,,,,,,,,613e59f68312d2083c8b193d,42,2022-02-12_16h08.01.485,lexical_decision_task_DD,2021.2.3,Win32,59.98440405,m,1,0.4788,,,,,,,,0.4788,1,0,13,13,7,1,1001,VOLUME,m,,,,,,,,,,,,,,,,,,,,,,,,,,,,,,,,,,,,,,,,,,,,,,,,,,,,,,,,,,,,,,,,,,,
,,,,,,,,,,,,,,,,,613e59f68312d2083c8b193d,42,2022-02-12_16h08.01.485,lexical_decision_task_DD,2021.2.3,Win32,59.98440405,z,1,0.7326,,,,,,,,0.7326,1,0,14,14,11,1,1001,RASHET,z,,,,,,,,,,,,,,,,,,,,,,,,,,,,,,,,,,,,,,,,,,,,,,,,,,,,,,,,,,,,,,,,,,,
,,,,,,,,,,,,,,,,,613e59f68312d2083c8b193d,42,2022-02-12_16h08.01.485,lexical_decision_task_DD,2021.2.3,Win32,59.98440405,z,1,0.6924,,,,,,,,0.6924,1,0,15,15,15,1,1001,WHAISE,z,,,,,,,,,,,,,,,,,,,,,,,,,,,,,,,,,,,,,,,,,,,,,,,,,,,,,,,,,,,,,,,,,,,
,0.048148148,-0.422222222,1,0,0,instr_done_button,,,,,,1,end_of_practice,"You have completed the practice trials. During the experimental trials, you will not receive feedback. 
Before you begin, please ensure that you are in a comfortable and quiet location and will not be disturbed for about 15 minutes, as we cannot use your data if you do not complete all the trials. 
 When you are ready to start the experimental trials, please press space or touch the button below.",,,613e59f68312d2083c8b193d,42,2022-02-12_16h08.01.485,lexical_decision_task_DD,2021.2.3,Win32,59.98440405,,,,,,,,,,,,,,,,,,,,,0,0,0,0,1,,,,,,,,,,,,,,,,,,,,,,,,,,,,,,,,,,,,,,,,,,,,,,,,,,,,,,,,,,,,,,
,,,,,,,,,,,,,,,,,613e59f68312d2083c8b193d,42,2022-02-12_16h08.01.485,lexical_decision_task_DD,2021.2.3,Win32,59.98440405,,,,,,,,,,,0.8498,1,,,,,,,,,,,,,,m,1,0.8498,,,,,,,,0.048148148,-0.422222222,0,0,0,,0,0,0,56,1,PACKET,LB,old,m,./images/PACKETLB.png,,,,,,,,,,,,,,,,,,,,,,,,,,,,,,,,,,,,
,,,,,,,,,,,,,,,,,613e59f68312d2083c8b193d,42,2022-02-12_16h08.01.485,lexical_decision_task_DD,2021.2.3,Win32,59.98440405,,,,,,,,,,,0.4658,1,,,,,,,,,,,,,,m,1,0.4658,,,,,,,,0.048148148,-0.422222222,0,0,0,,0,1,1,74,1,CEMENT,LB,old,m,./images/CEMENTLB.png,,,,,,,,,,,,,,,,,,,,,,,,,,,,,,,,,,,,
,,,,,,,,,,,,,,,,,613e59f68312d2083c8b193d,42,2022-02-12_16h08.01.485,lexical_decision_task_DD,2021.2.3,Win32,59.98440405,,,,,,,,,,,0.6134,1,,,,,,,,,,,,,,z,1,0.6134,,,,,,,,0.048148148,-0.422222222,0,0,0,,0,2,2,137,1,JOOST,LB,old,z,./images/JOOSTLB.png,,,,,,,,,,,,,,,,,,,,,,,,,,,,,,,,,,,,
,,,,,,,,,,,,,,,,,613e59f68312d2083c8b193d,42,2022-02-12_16h08.01.485,lexical_decision_task_DD,2021.2.3,Win32,59.98440405,,,,,,,,,,,0.6516,1,,,,,,,,,,,,,,z,1,0.6516,,,,,,,,0.048148148,-0.422222222,0,0,0,,0,3,3,118,1,BAVEL,HB,old,z,./images/BAVELHB.png,,,,,,,,,,,,,,,,,,,,,,,,,,,,,,,,,,,,
,,,,,,,,,,,,,,,,,613e59f68312d2083c8b193d,42,2022-02-12_16h08.01.485,lexical_decision_task_DD,2021.2.3,Win32,59.98440405,,,,,,,,,,,0.4116,0,,,,,,,,,,,,,,m,0,0.4116,,,,,,,,0.048148148,-0.422222222,0,0,0,,0,4,4,105,1,MOKER,C,old,z,./images/MOKER.png,,,,,,,,,,,,,,,,,,,,,,,,,,,,,,,,,,,,
,,,,,,,,,,,,,,,,,613e59f68312d2083c8b193d,42,2022-02-12_16h08.01.485,lexical_decision_task_DD,2021.2.3,Win32,59.98440405,,,,,,,,,,,0.6975,1,,,,,,,,,,,,,,z,1,0.6975,,,,,,,,0.048148148,-0.422222222,0,0,0,,0,5,5,136,1,WERVE,HB,old,z,./images/WERVEHB.png,,,,,,,,,,,,,,,,,,,,,,,,,,,,,,,,,,,,
,,,,,,,,,,,,,,,,,613e59f68312d2083c8b193d,42,2022-02-12_16h08.01.485,lexical_decision_task_DD,2021.2.3,Win32,59.98440405,,,,,,,,,,,0.8564,0,,,,,,,,,,,,,,m,0,0.8564,,,,,,,,0.048148148,-0.422222222,0,0,0,,0,6,6,85,1,CHULK,HB,old,z,./images/CHULKHB.png,,,,,,,,,,,,,,,,,,,,,,,,,,,,,,,,,,,,
,,,,,,,,,,,,,,,,,613e59f68312d2083c8b193d,42,2022-02-12_16h08.01.485,lexical_decision_task_DD,2021.2.3,Win32,59.98440405,,,,,,,,,,,0.7657,1,,,,,,,,,,,,,,z,1,0.7657,,,,,,,,0.048148148,-0.422222222,0,0,0,,0,7,7,106,1,CLUMS,HB,old,z,./images/CLUMSHB.png,,,,,,,,,,,,,,,,,,,,,,,,,,,,,,,,,,,,
,,,,,,,,,,,,,,,,,613e59f68312d2083c8b193d,42,2022-02-12_16h08.01.485,lexical_decision_task_DD,2021.2.3,Win32,59.98440405,,,,,,,,,,,0.4281,1,,,,,,,,,,,,,,m,1,0.4281,,,,,,,,0.048148148,-0.422222222,0,0,0,,0,8,8,42,1,FOLDER,C,old,m,./images/FOLDER.png,,,,,,,,,,,,,,,,,,,,,,,,,,,,,,,,,,,,
,,,,,,,,,,,,,,,,,613e59f68312d2083c8b193d,42,2022-02-12_16h08.01.485,lexical_decision_task_DD,2021.2.3,Win32,59.98440405,,,,,,,,,,,0.5552,1,,,,,,,,,,,,,,z,1,0.5552,,,,,,,,0.048148148,-0.422222222,0,0,0,,0,9,9,111,1,HOSSE,C,old,z,./images/HOSSE.png,,,,,,,,,,,,,,,,,,,,,,,,,,,,,,,,,,,,
,,,,,,,,,,,,,,,,,613e59f68312d2083c8b193d,42,2022-02-12_16h08.01.485,lexical_decision_task_DD,2021.2.3,Win32,59.98440405,,,,,,,,,,,0.5395,1,,,,,,,,,,,,,,z,1,0.5395,,,,,,,,0.048148148,-0.422222222,0,0,0,,0,10,10,140,1,DOVET,LB,old,z,./images/DOVETLB.png,,,,,,,,,,,,,,,,,,,,,,,,,,,,,,,,,,,,
,,,,,,,,,,,,,,,,,613e59f68312d2083c8b193d,42,2022-02-12_16h08.01.485,lexical_decision_task_DD,2021.2.3,Win32,59.98440405,,,,,,,,,,,0.5896,0,,,,,,,,,,,,,,m,0,0.5896,,,,,,,,0.048148148,-0.422222222,0,0,0,,0,11,11,143,1,MONGS,LB,old,z,./images/MONGSLB.png,,,,,,,,,,,,,,,,,,,,,,,,,,,,,,,,,,,,
,,,,,,,,,,,,,,,,,613e59f68312d2083c8b193d,42,2022-02-12_16h08.01.485,lexical_decision_task_DD,2021.2.3,Win32,59.98440405,,,,,,,,,,,0.5228,1,,,,,,,,,,,,,,m,1,0.5228,,,,,,,,0.048148148,-0.422222222,0,0,0,,0,12,12,39,1,SHELF,C,old,m,./images/SHELF.png,,,,,,,,,,,,,,,,,,,,,,,,,,,,,,,,,,,,
,,,,,,,,,,,,,,,,,613e59f68312d2083c8b193d,42,2022-02-12_16h08.01.485,lexical_decision_task_DD,2021.2.3,Win32,59.98440405,,,,,,,,,,,0.486,1,,,,,,,,,,,,,,m,1,0.486,,,,,,,,0.048148148,-0.422222222,0,0,0,,0,13,13,66,1,SWEAT,C,old,m,./images/SWEAT.png,,,,,,,,,,,,,,,,,,,,,,,,,,,,,,,,,,,,
,,,,,,,,,,,,,,,,,613e59f68312d2083c8b193d,42,2022-02-12_16h08.01.485,lexical_decision_task_DD,2021.2.3,Win32,59.98440405,,,,,,,,,,,0.6185,1,,,,,,,,,,,,,,z,1,0.6185,,,,,,,,0.048148148,-0.422222222,0,0,0,,0,14,14,91,1,SHENS,HB,old,z,./images/SHENSHB.png,,,,,,,,,,,,,,,,,,,,,,,,,,,,,,,,,,,,
,,,,,,,,,,,,,,,,,613e59f68312d2083c8b193d,42,2022-02-12_16h08.01.485,lexical_decision_task_DD,2021.2.3,Win32,59.98440405,,,,,,,,,,,0.3927,1,,,,,,,,,,,,,,m,1,0.3927,,,,,,,,0.048148148,-0.422222222,0,0,0,,0,15,15,57,1,MOOSE,C,old,m,./images/MOOSE.png,,,,,,,,,,,,,,,,,,,,,,,,,,,,,,,,,,,,
,,,,,,,,,,,,,,,,,613e59f68312d2083c8b193d,42,2022-02-12_16h08.01.485,lexical_decision_task_DD,2021.2.3,Win32,59.98440405,,,,,,,,,,,0.8147,1,,,,,,,,,,,,,,m,1,0.8147,,,,,,,,0.048148148,-0.422222222,0,0,0,,0,16,16,62,1,PURSE,LB,old,m,./images/PURSELB.png,,,,,,,,,,,,,,,,,,,,,,,,,,,,,,,,,,,,
,,,,,,,,,,,,,,,,,613e59f68312d2083c8b193d,42,2022-02-12_16h08.01.485,lexical_decision_task_DD,2021.2.3,Win32,59.98440405,,,,,,,,,,,0.5338,1,,,,,,,,,,,,,,z,1,0.5338,,,,,,,,0.048148148,-0.422222222,0,0,0,,0,17,17,132,1,SCIFF,C,old,z,./images/SCIFF.png,,,,,,,,,,,,,,,,,,,,,,,,,,,,,,,,,,,,
,,,,,,,,,,,,,,,,,613e59f68312d2083c8b193d,42,2022-02-12_16h08.01.485,lexical_decision_task_DD,2021.2.3,Win32,59.98440405,,,,,,,,,,,0.6643,1,,,,,,,,,,,,,,z,1,0.6643,,,,,,,,0.048148148,-0.422222222,0,0,0,,0,18,18,154,1,THINT,HB,old,z,./images/THINTHB.png,,,,,,,,,,,,,,,,,,,,,,,,,,,,,,,,,,,,
,,,,,,,,,,,,,,,,,613e59f68312d2083c8b193d,42,2022-02-12_16h08.01.485,lexical_decision_task_DD,2021.2.3,Win32,59.98440405,,,,,,,,,,,0.6719,1,,,,,,,,,,,,,,m,1,0.6719,,,,,,,,0.048148148,-0.422222222,0,0,0,,0,19,19,55,1,MUFFIN,HB,old,m,./images/MUFFINHB.png,,,,,,,,,,,,,,,,,,,,,,,,,,,,,,,,,,,,
,,,,,,,,,,,,,,,,,613e59f68312d2083c8b193d,42,2022-02-12_16h08.01.485,lexical_decision_task_DD,2021.2.3,Win32,59.98440405,,,,,,,,,,,0.6704,1,,,,,,,,,,,,,,m,1,0.6704,,,,,,,,0.048148148,-0.422222222,0,0,0,,0,20,20,28,1,FALCON,HB,old,m,./images/FALCONHB.png,,,,,,,,,,,,,,,,,,,,,,,,,,,,,,,,,,,,
,,,,,,,,,,,,,,,,,613e59f68312d2083c8b193d,42,2022-02-12_16h08.01.485,lexical_decision_task_DD,2021.2.3,Win32,59.98440405,,,,,,,,,,,0.6982,1,,,,,,,,,,,,,,z,1,0.6982,,,,,,,,0.048148148,-0.422222222,0,0,0,,0,21,21,155,1,CANGY,LB,old,z,./images/CANGYLB.png,,,,,,,,,,,,,,,,,,,,,,,,,,,,,,,,,,,,
,,,,,,,,,,,,,,,,,613e59f68312d2083c8b193d,42,2022-02-12_16h08.01.485,lexical_decision_task_DD,2021.2.3,Win32,59.98440405,,,,,,,,,,,0.9179,1,,,,,,,,,,,,,,z,1,0.9179,,,,,,,,0.048148148,-0.422222222,0,0,0,,0,22,22,163,1,GAMBA,HB,old,z,./images/GAMBAHB.png,,,,,,,,,,,,,,,,,,,,,,,,,,,,,,,,,,,,
,,,,,,,,,,,,,,,,,613e59f68312d2083c8b193d,42,2022-02-12_16h08.01.485,lexical_decision_task_DD,2021.2.3,Win32,59.98440405,,,,,,,,,,,0.7434,1,,,,,,,,,,,,,,z,1,0.7434,,,,,,,,0.048148148,-0.422222222,0,0,0,,0,23,23,103,1,FLORT,HB,old,z,./images/FLORTHB.png,,,,,,,,,,,,,,,,,,,,,,,,,,,,,,,,,,,,
,,,,,,,,,,,,,,,,,613e59f68312d2083c8b193d,42,2022-02-12_16h08.01.485,lexical_decision_task_DD,2021.2.3,Win32,59.98440405,,,,,,,,,,,0.656,1,,,,,,,,,,,,,,m,1,0.656,,,,,,,,0.048148148,-0.422222222,0,0,0,,0,24,24,54,1,TRIPOD,C,old,m,./images/TRIPOD.png,,,,,,,,,,,,,,,,,,,,,,,,,,,,,,,,,,,,
,,,,,,,,,,,,,,,,,613e59f68312d2083c8b193d,42,2022-02-12_16h08.01.485,lexical_decision_task_DD,2021.2.3,Win32,59.98440405,,,,,,,,,,,1.0401,1,,,,,,,,,,,,,,z,1,1.0401,,,,,,,,0.048148148,-0.422222222,0,0,0,,0,25,25,94,1,BLANS,HB,old,z,./images/BLANSHB.png,,,,,,,,,,,,,,,,,,,,,,,,,,,,,,,,,,,,
,,,,,,,,,,,,,,,,,613e59f68312d2083c8b193d,42,2022-02-12_16h08.01.485,lexical_decision_task_DD,2021.2.3,Win32,59.98440405,,,,,,,,,,,0.5465,1,,,,,,,,,,,,,,m,1,0.5465,,,,,,,,0.048148148,-0.422222222,0,0,0,,0,26,26,50,1,MALLET,LB,old,m,./images/MALLETLB.png,,,,,,,,,,,,,,,,,,,,,,,,,,,,,,,,,,,,
,,,,,,,,,,,,,,,,,613e59f68312d2083c8b193d,42,2022-02-12_16h08.01.485,lexical_decision_task_DD,2021.2.3,Win32,59.98440405,,,,,,,,,,,0.5908,1,,,,,,,,,,,,,,z,1,0.5908,,,,,,,,0.048148148,-0.422222222,0,0,0,,0,27,27,149,1,VEASE,LB,old,z,./images/VEASELB.png,,,,,,,,,,,,,,,,,,,,,,,,,,,,,,,,,,,,
,,,,,,,,,,,,,,,,,613e59f68312d2083c8b193d,42,2022-02-12_16h08.01.485,lexical_decision_task_DD,2021.2.3,Win32,59.98440405,,,,,,,,,,,0.7047,0,,,,,,,,,,,,,,z,0,0.7047,,,,,,,,0.048148148,-0.422222222,0,0,0,,0,28,28,22,1,MELON,HB,old,m,./images/MELONHB.png,,,,,,,,,,,,,,,,,,,,,,,,,,,,,,,,,,,,
,,,,,,,,,,,,,,,,,613e59f68312d2083c8b193d,42,2022-02-12_16h08.01.485,lexical_decision_task_DD,2021.2.3,Win32,59.98440405,,,,,,,,,,,0.4852,1,,,,,,,,,,,,,,m,1,0.4852,,,,,,,,0.048148148,-0.422222222,0,0,0,,0,29,29,12,1,SHORE,C,old,m,./images/SHORE.png,,,,,,,,,,,,,,,,,,,,,,,,,,,,,,,,,,,,
,,,,,,,,,,,,,,,,,613e59f68312d2083c8b193d,42,2022-02-12_16h08.01.485,lexical_decision_task_DD,2021.2.3,Win32,59.98440405,,,,,,,,,,,0.634,1,,,,,,,,,,,,,,m,1,0.634,,,,,,,,0.048148148,-0.422222222,0,0,0,,0,30,30,79,1,CRUST,HB,old,m,./images/CRUSTHB.png,,,,,,,,,,,,,,,,,,,,,,,,,,,,,,,,,,,,
,,,,,,,,,,,,,,,,,613e59f68312d2083c8b193d,42,2022-02-12_16h08.01.485,lexical_decision_task_DD,2021.2.3,Win32,59.98440405,,,,,,,,,,,0.5228,1,,,,,,,,,,,,,,m,1,0.5228,,,,,,,,0.048148148,-0.422222222,0,0,0,,0,31,31,51,1,ONION,C,old,m,./images/ONION.png,,,,,,,,,,,,,,,,,,,,,,,,,,,,,,,,,,,,
,,,,,,,,,,,,,,,,,613e59f68312d2083c8b193d,42,2022-02-12_16h08.01.485,lexical_decision_task_DD,2021.2.3,Win32,59.98440405,,,,,,,,,,,1.1197,1,,,,,,,,,,,,,,z,1,1.1197,,,,,,,,0.048148148,-0.422222222,0,0,0,,0,32,32,100,1,DRIBS,HB,old,z,./images/DRIBSHB.png,,,,,,,,,,,,,,,,,,,,,,,,,,,,,,,,,,,,
,,,,,,,,,,,,,,,,,613e59f68312d2083c8b193d,42,2022-02-12_16h08.01.485,lexical_decision_task_DD,2021.2.3,Win32,59.98440405,,,,,,,,,,,0.5904,1,,,,,,,,,,,,,,m,1,0.5904,,,,,,,,0.048148148,-0.422222222,0,0,0,,0,33,33,75,1,GRAIN,C,old,m,./images/GRAIN.png,,,,,,,,,,,,,,,,,,,,,,,,,,,,,,,,,,,,
,,,,,,,,,,,,,,,,,613e59f68312d2083c8b193d,42,2022-02-12_16h08.01.485,lexical_decision_task_DD,2021.2.3,Win32,59.98440405,,,,,,,,,,,0.6545,1,,,,,,,,,,,,,,m,1,0.6545,,,,,,,,0.048148148,-0.422222222,0,0,0,,0,34,34,20,1,CRADLE,LB,old,m,./images/CRADLELB.png,,,,,,,,,,,,,,,,,,,,,,,,,,,,,,,,,,,,
,,,,,,,,,,,,,,,,,613e59f68312d2083c8b193d,42,2022-02-12_16h08.01.485,lexical_decision_task_DD,2021.2.3,Win32,59.98440405,,,,,,,,,,,0.6193,1,,,,,,,,,,,,,,z,1,0.6193,,,,,,,,0.048148148,-0.422222222,0,0,0,,0,35,35,162,1,LEICH,C,old,z,./images/LEICH.png,,,,,,,,,,,,,,,,,,,,,,,,,,,,,,,,,,,,
,,,,,,,,,,,,,,,,,613e59f68312d2083c8b193d,42,2022-02-12_16h08.01.485,lexical_decision_task_DD,2021.2.3,Win32,59.98440405,,,,,,,,,,,0.4449,0,,,,,,,,,,,,,,m,0,0.4449,,,,,,,,0.048148148,-0.422222222,0,0,0,,0,36,36,99,1,BACKY,C,old,z,./images/BACKY.png,,,,,,,,,,,,,,,,,,,,,,,,,,,,,,,,,,,,
,,,,,,,,,,,,,,,,,613e59f68312d2083c8b193d,42,2022-02-12_16h08.01.485,lexical_decision_task_DD,2021.2.3,Win32,59.98440405,,,,,,,,,,,0.7147,0,,,,,,,,,,,,,,m,0,0.7147,,,,,,,,0.048148148,-0.422222222,0,0,0,,0,37,37,107,1,FASKS,LB,old,z,./images/FASKSLB.png,,,,,,,,,,,,,,,,,,,,,,,,,,,,,,,,,,,,
,,,,,,,,,,,,,,,,,613e59f68312d2083c8b193d,42,2022-02-12_16h08.01.485,lexical_decision_task_DD,2021.2.3,Win32,59.98440405,,,,,,,,,,,0.4551,1,,,,,,,,,,,,,,m,1,0.4551,,,,,,,,0.048148148,-0.422222222,0,0,0,,0,38,38,26,1,SMOKER,LB,old,m,./images/SMOKERLB.png,,,,,,,,,,,,,,,,,,,,,,,,,,,,,,,,,,,,
,,,,,,,,,,,,,,,,,613e59f68312d2083c8b193d,42,2022-02-12_16h08.01.485,lexical_decision_task_DD,2021.2.3,Win32,59.98440405,,,,,,,,,,,0.5794,1,,,,,,,,,,,,,,z,1,0.5794,,,,,,,,0.048148148,-0.422222222,0,0,0,,0,39,39,160,1,VEETS,HB,old,z,./images/VEETSHB.png,,,,,,,,,,,,,,,,,,,,,,,,,,,,,,,,,,,,
,,,,,,,,,,,,,,,,,613e59f68312d2083c8b193d,42,2022-02-12_16h08.01.485,lexical_decision_task_DD,2021.2.3,Win32,59.98440405,,,,,,,,,,,0.9317,0,,,,,,,,,,,,,,m,0,0.9317,,,,,,,,0.048148148,-0.422222222,0,0,0,,0,40,40,104,1,GITTY,LB,old,z,./images/GITTYLB.png,,,,,,,,,,,,,,,,,,,,,,,,,,,,,,,,,,,,
,,,,,,,,,,,,,,,,,613e59f68312d2083c8b193d,42,2022-02-12_16h08.01.485,lexical_decision_task_DD,2021.2.3,Win32,59.98440405,,,,,,,,,,,0.8446,0,,,,,,,,,,,,,,m,0,0.8446,,,,,,,,0.048148148,-0.422222222,0,0,0,space,0,41,41,142,1,PLASK,HB,old,z,./images/PLASKHB.png,2.1784,,,,,,,,,,,,,,,,,,,,,,,,,,,,,,,,,,,
,,,,,,,,,,,,,,,,,613e59f68312d2083c8b193d,42,2022-02-12_16h08.01.485,lexical_decision_task_DD,2021.2.3,Win32,59.98440405,,,,,,,,,,,0.6521,1,,,,,,,,,,,,,,z,1,0.6521,,,,,,,,0.048148148,-0.422222222,0,0,0,,0,42,42,101,1,GLEET,LB,old,z,./images/GLEETLB.png,,,,,,,,,,,,,,,,,,,,,,,,,,,,,,,,,,,,
,,,,,,,,,,,,,,,,,613e59f68312d2083c8b193d,42,2022-02-12_16h08.01.485,lexical_decision_task_DD,2021.2.3,Win32,59.98440405,,,,,,,,,,,0.4426,1,,,,,,,,,,,,,,m,1,0.4426,,,,,,,,0.048148148,-0.422222222,0,0,0,,0,43,43,78,1,LITTER,C,old,m,./images/LITTER.png,,,,,,,,,,,,,,,,,,,,,,,,,,,,,,,,,,,,
,,,,,,,,,,,,,,,,,613e59f68312d2083c8b193d,42,2022-02-12_16h08.01.485,lexical_decision_task_DD,2021.2.3,Win32,59.98440405,,,,,,,,,,,0.4763,1,,,,,,,,,,,,,,m,1,0.4763,,,,,,,,0.048148148,-0.422222222,0,0,0,,0,44,44,53,1,CARPET,LB,old,m,./images/CARPETLB.png,,,,,,,,,,,,,,,,,,,,,,,,,,,,,,,,,,,,
,,,,,,,,,,,,,,,,,613e59f68312d2083c8b193d,42,2022-02-12_16h08.01.485,lexical_decision_task_DD,2021.2.3,Win32,59.98440405,,,,,,,,,,,0.4202,1,,,,,,,,,,,,,,m,1,0.4202,,,,,,,,0.048148148,-0.422222222,0,0,0,,0,45,45,35,1,PEACH,LB,old,m,./images/PEACHLB.png,,,,,,,,,,,,,,,,,,,,,,,,,,,,,,,,,,,,
,,,,,,,,,,,,,,,,,613e59f68312d2083c8b193d,42,2022-02-12_16h08.01.485,lexical_decision_task_DD,2021.2.3,Win32,59.98440405,,,,,,,,,,,0.6106,1,,,,,,,,,,,,,,z,1,0.6106,,,,,,,,0.048148148,-0.422222222,0,0,0,,0,46,46,128,1,GRIFT,LB,old,z,./images/GRIFTLB.png,,,,,,,,,,,,,,,,,,,,,,,,,,,,,,,,,,,,
,,,,,,,,,,,,,,,,,613e59f68312d2083c8b193d,42,2022-02-12_16h08.01.485,lexical_decision_task_DD,2021.2.3,Win32,59.98440405,,,,,,,,,,,0.5811,1,,,,,,,,,,,,,,m,1,0.5811,,,,,,,,0.048148148,-0.422222222,0,0,0,,0,47,47,9,1,RHINO,C,old,m,./images/RHINO.png,,,,,,,,,,,,,,,,,,,,,,,,,,,,,,,,,,,,
,,,,,,,,,,,,,,,,,613e59f68312d2083c8b193d,42,2022-02-12_16h08.01.485,lexical_decision_task_DD,2021.2.3,Win32,59.98440405,,,,,,,,,,,0.4941,1,,,,,,,,,,,,,,m,1,0.4941,,,,,,,,0.048148148,-0.422222222,0,0,0,,0,48,48,65,1,FARMER,LB,old,m,./images/FARMERLB.png,,,,,,,,,,,,,,,,,,,,,,,,,,,,,,,,,,,,
,,,,,,,,,,,,,,,,,613e59f68312d2083c8b193d,42,2022-02-12_16h08.01.485,lexical_decision_task_DD,2021.2.3,Win32,59.98440405,,,,,,,,,,,0.6053,1,,,,,,,,,,,,,,m,1,0.6053,,,,,,,,0.048148148,-0.422222222,0,0,0,,0,49,49,64,1,JELLY,HB,old,m,./images/JELLYHB.png,,,,,,,,,,,,,,,,,,,,,,,,,,,,,,,,,,,,
,,,,,,,,,,,,,,,,,613e59f68312d2083c8b193d,42,2022-02-12_16h08.01.485,lexical_decision_task_DD,2021.2.3,Win32,59.98440405,,,,,,,,,,,0.6691,1,,,,,,,,,,,,,,z,1,0.6691,,,,,,,,0.048148148,-0.422222222,0,0,0,,0,50,50,145,1,LAMEL,HB,old,z,./images/LAMELHB.png,,,,,,,,,,,,,,,,,,,,,,,,,,,,,,,,,,,,
,,,,,,,,,,,,,,,,,613e59f68312d2083c8b193d,42,2022-02-12_16h08.01.485,lexical_decision_task_DD,2021.2.3,Win32,59.98440405,,,,,,,,,,,0.5291,1,,,,,,,,,,,,,,m,1,0.5291,,,,,,,,0.048148148,-0.422222222,0,0,0,,0,51,51,83,1,JUNGLE,LB,old,m,./images/JUNGLELB.png,,,,,,,,,,,,,,,,,,,,,,,,,,,,,,,,,,,,
,,,,,,,,,,,,,,,,,613e59f68312d2083c8b193d,42,2022-02-12_16h08.01.485,lexical_decision_task_DD,2021.2.3,Win32,59.98440405,,,,,,,,,,,0.593,1,,,,,,,,,,,,,,m,1,0.593,,,,,,,,0.048148148,-0.422222222,0,0,0,,0,52,52,46,1,PEARL,HB,old,m,./images/PEARLHB.png,,,,,,,,,,,,,,,,,,,,,,,,,,,,,,,,,,,,
,,,,,,,,,,,,,,,,,613e59f68312d2083c8b193d,42,2022-02-12_16h08.01.485,lexical_decision_task_DD,2021.2.3,Win32,59.98440405,,,,,,,,,,,0.6137,1,,,,,,,,,,,,,,z,1,0.6137,,,,,,,,0.048148148,-0.422222222,0,0,0,,0,53,53,116,1,BALGY,LB,old,z,./images/BALGYLB.png,,,,,,,,,,,,,,,,,,,,,,,,,,,,,,,,,,,,
,,,,,,,,,,,,,,,,,613e59f68312d2083c8b193d,42,2022-02-12_16h08.01.485,lexical_decision_task_DD,2021.2.3,Win32,59.98440405,,,,,,,,,,,0.5798,1,,,,,,,,,,,,,,z,1,0.5798,,,,,,,,0.048148148,-0.422222222,0,0,0,,0,54,54,95,1,HANTY,LB,old,z,./images/HANTYLB.png,,,,,,,,,,,,,,,,,,,,,,,,,,,,,,,,,,,,
,,,,,,,,,,,,,,,,,613e59f68312d2083c8b193d,42,2022-02-12_16h08.01.485,lexical_decision_task_DD,2021.2.3,Win32,59.98440405,,,,,,,,,,,0.4932,1,,,,,,,,,,,,,,m,1,0.4932,,,,,,,,0.048148148,-0.422222222,0,0,0,,0,55,55,44,1,LIZARD,LB,old,m,./images/LIZARDLB.png,,,,,,,,,,,,,,,,,,,,,,,,,,,,,,,,,,,,
,,,,,,,,,,,,,,,,,613e59f68312d2083c8b193d,42,2022-02-12_16h08.01.485,lexical_decision_task_DD,2021.2.3,Win32,59.98440405,,,,,,,,,,,0.6233,1,,,,,,,,,,,,,,m,1,0.6233,,,,,,,,0.048148148,-0.422222222,0,0,0,,0,56,56,32,1,BARREL,LB,old,m,./images/BARRELLB.png,,,,,,,,,,,,,,,,,,,,,,,,,,,,,,,,,,,,
,,,,,,,,,,,,,,,,,613e59f68312d2083c8b193d,42,2022-02-12_16h08.01.485,lexical_decision_task_DD,2021.2.3,Win32,59.98440405,,,,,,,,,,,0.757,0,,,,,,,,,,,,,,z,0,0.757,,,,,,,,0.048148148,-0.422222222,0,0,0,,0,57,57,67,1,SAILOR,HB,old,m,./images/SAILORHB.png,,,,,,,,,,,,,,,,,,,,,,,,,,,,,,,,,,,,
,,,,,,,,,,,,,,,,,613e59f68312d2083c8b193d,42,2022-02-12_16h08.01.485,lexical_decision_task_DD,2021.2.3,Win32,59.98440405,,,,,,,,,,,0.9534,1,,,,,,,,,,,,,,z,1,0.9534,,,,,,,,0.048148148,-0.422222222,0,0,0,,0,58,58,151,1,TINKY,HB,old,z,./images/TINKYHB.png,,,,,,,,,,,,,,,,,,,,,,,,,,,,,,,,,,,,
,,,,,,,,,,,,,,,,,613e59f68312d2083c8b193d,42,2022-02-12_16h08.01.485,lexical_decision_task_DD,2021.2.3,Win32,59.98440405,,,,,,,,,,,0.7134,1,,,,,,,,,,,,,,z,1,0.7134,,,,,,,,0.048148148,-0.422222222,0,0,0,,0,59,59,135,1,JOODY,C,old,z,./images/JOODY.png,,,,,,,,,,,,,,,,,,,,,,,,,,,,,,,,,,,,
,,,,,,,,,,,,,,,,,613e59f68312d2083c8b193d,42,2022-02-12_16h08.01.485,lexical_decision_task_DD,2021.2.3,Win32,59.98440405,,,,,,,,,,,0.7044,1,,,,,,,,,,,,,,z,1,0.7044,,,,,,,,0.048148148,-0.422222222,0,0,0,,0,60,60,150,1,NOOLS,C,old,z,./images/NOOLS.png,,,,,,,,,,,,,,,,,,,,,,,,,,,,,,,,,,,,
,,,,,,,,,,,,,,,,,613e59f68312d2083c8b193d,42,2022-02-12_16h08.01.485,lexical_decision_task_DD,2021.2.3,Win32,59.98440405,,,,,,,,,,,0.5346,1,,,,,,,,,,,,,,z,1,0.5346,,,,,,,,0.048148148,-0.422222222,0,0,0,,0,61,61,113,1,LINEW,LB,old,z,./images/LINEWLB.png,,,,,,,,,,,,,,,,,,,,,,,,,,,,,,,,,,,,
,,,,,,,,,,,,,,,,,613e59f68312d2083c8b193d,42,2022-02-12_16h08.01.485,lexical_decision_task_DD,2021.2.3,Win32,59.98440405,,,,,,,,,,,0.587,1,,,,,,,,,,,,,,m,1,0.587,,,,,,,,0.048148148,-0.422222222,0,0,0,,0,62,62,49,1,DRUMS,HB,old,m,./images/DRUMSHB.png,,,,,,,,,,,,,,,,,,,,,,,,,,,,,,,,,,,,
,,,,,,,,,,,,,,,,,613e59f68312d2083c8b193d,42,2022-02-12_16h08.01.485,lexical_decision_task_DD,2021.2.3,Win32,59.98440405,,,,,,,,,,,0.4024,1,,,,,,,,,,,,,,m,1,0.4024,,,,,,,,0.048148148,-0.422222222,0,0,0,,0,63,63,77,1,COUCH,LB,old,m,./images/COUCHLB.png,,,,,,,,,,,,,,,,,,,,,,,,,,,,,,,,,,,,
,,,,,,,,,,,,,,,,,613e59f68312d2083c8b193d,42,2022-02-12_16h08.01.485,lexical_decision_task_DD,2021.2.3,Win32,59.98440405,,,,,,,,,,,0.576,1,,,,,,,,,,,,,,z,1,0.576,,,,,,,,0.048148148,-0.422222222,0,0,0,,0,64,64,90,1,NEAST,C,old,z,./images/NEAST.png,,,,,,,,,,,,,,,,,,,,,,,,,,,,,,,,,,,,
,,,,,,,,,,,,,,,,,613e59f68312d2083c8b193d,42,2022-02-12_16h08.01.485,lexical_decision_task_DD,2021.2.3,Win32,59.98440405,,,,,,,,,,,0.6922,1,,,,,,,,,,,,,,z,1,0.6922,,,,,,,,0.048148148,-0.422222222,0,0,0,,0,65,65,88,1,GLUSH,HB,old,z,./images/GLUSHHB.png,,,,,,,,,,,,,,,,,,,,,,,,,,,,,,,,,,,,
,,,,,,,,,,,,,,,,,613e59f68312d2083c8b193d,42,2022-02-12_16h08.01.485,lexical_decision_task_DD,2021.2.3,Win32,59.98440405,,,,,,,,,,,0.6734,1,,,,,,,,,,,,,,z,1,0.6734,,,,,,,,0.048148148,-0.422222222,0,0,0,,0,66,66,115,1,MAWNS,HB,old,z,./images/MAWNSHB.png,,,,,,,,,,,,,,,,,,,,,,,,,,,,,,,,,,,,
,,,,,,,,,,,,,,,,,613e59f68312d2083c8b193d,42,2022-02-12_16h08.01.485,lexical_decision_task_DD,2021.2.3,Win32,59.98440405,,,,,,,,,,,0.6269,1,,,,,,,,,,,,,,z,1,0.6269,,,,,,,,0.048148148,-0.422222222,0,0,0,,0,67,67,124,1,TUNCH,HB,old,z,./images/TUNCHHB.png,,,,,,,,,,,,,,,,,,,,,,,,,,,,,,,,,,,,
,,,,,,,,,,,,,,,,,613e59f68312d2083c8b193d,42,2022-02-12_16h08.01.485,lexical_decision_task_DD,2021.2.3,Win32,59.98440405,,,,,,,,,,,0.4411,0,,,,,,,,,,,,,,m,0,0.4411,,,,,,,,0.048148148,-0.422222222,0,0,0,,0,68,68,141,1,PLEET,C,old,z,./images/PLEET.png,,,,,,,,,,,,,,,,,,,,,,,,,,,,,,,,,,,,
,,,,,,,,,,,,,,,,,613e59f68312d2083c8b193d,42,2022-02-12_16h08.01.485,lexical_decision_task_DD,2021.2.3,Win32,59.98440405,,,,,,,,,,,0.5694,0,,,,,,,,,,,,,,m,0,0.5694,,,,,,,,0.048148148,-0.422222222,0,0,0,,0,69,69,159,1,CUDDY,C,old,z,./images/CUDDY.png,,,,,,,,,,,,,,,,,,,,,,,,,,,,,,,,,,,,
,,,,,,,,,,,,,,,,,613e59f68312d2083c8b193d,42,2022-02-12_16h08.01.485,lexical_decision_task_DD,2021.2.3,Win32,59.98440405,,,,,,,,,,,0.7229,0,,,,,,,,,,,,,,z,0,0.7229,,,,,,,,0.048148148,-0.422222222,0,0,0,,0,70,70,31,1,QUILL,HB,old,m,./images/QUILLHB.png,,,,,,,,,,,,,,,,,,,,,,,,,,,,,,,,,,,,
,,,,,,,,,,,,,,,,,613e59f68312d2083c8b193d,42,2022-02-12_16h08.01.485,lexical_decision_task_DD,2021.2.3,Win32,59.98440405,,,,,,,,,,,0.6316,1,,,,,,,,,,,,,,z,1,0.6316,,,,,,,,0.048148148,-0.422222222,0,0,0,,0,71,71,121,1,CEERS,HB,old,z,./images/CEERSHB.png,,,,,,,,,,,,,,,,,,,,,,,,,,,,,,,,,,,,
,,,,,,,,,,,,,,,,,613e59f68312d2083c8b193d,42,2022-02-12_16h08.01.485,lexical_decision_task_DD,2021.2.3,Win32,59.98440405,,,,,,,,,,,0.614,1,,,,,,,,,,,,,,z,1,0.614,,,,,,,,0.048148148,-0.422222222,0,0,0,,0,72,72,102,1,DULLE,C,old,z,./images/DULLE.png,,,,,,,,,,,,,,,,,,,,,,,,,,,,,,,,,,,,
,,,,,,,,,,,,,,,,,613e59f68312d2083c8b193d,42,2022-02-12_16h08.01.485,lexical_decision_task_DD,2021.2.3,Win32,59.98440405,,,,,,,,,,,0.5194,1,,,,,,,,,,,,,,m,1,0.5194,,,,,,,,0.048148148,-0.422222222,0,0,0,,0,73,73,68,1,TORCH,LB,old,m,./images/TORCHLB.png,,,,,,,,,,,,,,,,,,,,,,,,,,,,,,,,,,,,
,,,,,,,,,,,,,,,,,613e59f68312d2083c8b193d,42,2022-02-12_16h08.01.485,lexical_decision_task_DD,2021.2.3,Win32,59.98440405,,,,,,,,,,,0.5308,1,,,,,,,,,,,,,,m,1,0.5308,,,,,,,,0.048148148,-0.422222222,0,0,0,,0,74,74,80,1,WEASEL,LB,old,m,./images/WEASELLB.png,,,,,,,,,,,,,,,,,,,,,,,,,,,,,,,,,,,,
,,,,,,,,,,,,,,,,,613e59f68312d2083c8b193d,42,2022-02-12_16h08.01.485,lexical_decision_task_DD,2021.2.3,Win32,59.98440405,,,,,,,,,,,0.5067,1,,,,,,,,,,,,,,m,1,0.5067,,,,,,,,0.048148148,-0.422222222,0,0,0,,0,75,75,27,1,ATTIC,C,old,m,./images/ATTIC.png,,,,,,,,,,,,,,,,,,,,,,,,,,,,,,,,,,,,
,,,,,,,,,,,,,,,,,613e59f68312d2083c8b193d,42,2022-02-12_16h08.01.485,lexical_decision_task_DD,2021.2.3,Win32,59.98440405,,,,,,,,,,,0.4916,0,,,,,,,,,,,,,,m,0,0.4916,,,,,,,,0.048148148,-0.422222222,0,0,0,,0,76,76,146,1,MOOST,LB,old,z,./images/MOOSTLB.png,,,,,,,,,,,,,,,,,,,,,,,,,,,,,,,,,,,,
,,,,,,,,,,,,,,,,,613e59f68312d2083c8b193d,42,2022-02-12_16h08.01.485,lexical_decision_task_DD,2021.2.3,Win32,59.98440405,,,,,,,,,,,0.9897,1,,,,,,,,,,,,,,z,1,0.9897,,,,,,,,0.048148148,-0.422222222,0,0,0,,0,77,77,125,1,MOOKY,LB,old,z,./images/MOOKYLB.png,,,,,,,,,,,,,,,,,,,,,,,,,,,,,,,,,,,,
,,,,,,,,,,,,,,,,,613e59f68312d2083c8b193d,42,2022-02-12_16h08.01.485,lexical_decision_task_DD,2021.2.3,Win32,59.98440405,,,,,,,,,,,0.5842,0,,,,,,,,,,,,,,m,0,0.5842,,,,,,,,0.048148148,-0.422222222,0,0,0,,0,78,78,120,1,RINED,C,old,z,./images/RINED.png,,,,,,,,,,,,,,,,,,,,,,,,,,,,,,,,,,,,
,,,,,,,,,,,,,,,,,613e59f68312d2083c8b193d,42,2022-02-12_16h08.01.485,lexical_decision_task_DD,2021.2.3,Win32,59.98440405,,,,,,,,,,,1.406,1,,,,,,,,,,,,,,m,1,1.406,,,,,,,,0.048148148,-0.422222222,0,0,0,,0,79,79,59,1,BURIAL,LB,old,m,./images/BURIALLB.png,,,,,,,,,,,,,,,,,,,,,,,,,,,,,,,,,,,,
,,,,,,,,,,,,,,,,,613e59f68312d2083c8b193d,42,2022-02-12_16h08.01.485,lexical_decision_task_DD,2021.2.3,Win32,59.98440405,,,,,,,,,,,0.8163,1,,,,,,,,,,,,,,z,1,0.8163,,,,,,,,0.048148148,-0.422222222,0,0,0,,0,80,80,110,1,CRUNK,LB,old,z,./images/CRUNKLB.png,,,,,,,,,,,,,,,,,,,,,,,,,,,,,,,,,,,,
,,,,,,,,,,,,,,,,,613e59f68312d2083c8b193d,42,2022-02-12_16h08.01.485,lexical_decision_task_DD,2021.2.3,Win32,59.98440405,,,,,,,,,,,0.5565,1,,,,,,,,,,,,,,m,1,0.5565,,,,,,,,0.048148148,-0.422222222,0,0,0,,0,81,81,45,1,KITTEN,C,old,m,./images/KITTEN.png,,,,,,,,,,,,,,,,,,,,,,,,,,,,,,,,,,,,
,,,,,,,,,,,,,,,,,613e59f68312d2083c8b193d,42,2022-02-12_16h08.01.485,lexical_decision_task_DD,2021.2.3,Win32,59.98440405,,,,,,,,,,,0.5975,1,,,,,,,,,,,,,,m,1,0.5975,,,,,,,,0.048148148,-0.422222222,0,0,0,,0,82,82,10,1,BELLY,HB,old,m,./images/BELLYHB.png,,,,,,,,,,,,,,,,,,,,,,,,,,,,,,,,,,,,
,,,,,,,,,,,,,,,,,613e59f68312d2083c8b193d,42,2022-02-12_16h08.01.485,lexical_decision_task_DD,2021.2.3,Win32,59.98440405,,,,,,,,,,,0.4983,1,,,,,,,,,,,,,,m,1,0.4983,,,,,,,,0.048148148,-0.422222222,0,0,0,space,0,83,83,81,1,POODLE,C,old,m,./images/POODLE.png,37.3357,,,,,,,,,,,,,,,,,,,,,,,,,,,,,,,,,,,
,,,,,,,,,,,,,,,,,613e59f68312d2083c8b193d,42,2022-02-12_16h08.01.485,lexical_decision_task_DD,2021.2.3,Win32,59.98440405,,,,,,,,,,,1.1284,1,,,,,,,,,,,,,,z,1,1.1284,,,,,,,,0.048148148,-0.422222222,0,0,0,,0,84,84,157,1,INLER,HB,old,z,./images/INLERHB.png,,,,,,,,,,,,,,,,,,,,,,,,,,,,,,,,,,,,
,,,,,,,,,,,,,,,,,613e59f68312d2083c8b193d,42,2022-02-12_16h08.01.485,lexical_decision_task_DD,2021.2.3,Win32,59.98440405,,,,,,,,,,,0.5547,1,,,,,,,,,,,,,,z,1,0.5547,,,,,,,,0.048148148,-0.422222222,0,0,0,,0,85,85,126,1,GUELS,C,old,z,./images/GUELS.png,,,,,,,,,,,,,,,,,,,,,,,,,,,,,,,,,,,,
,,,,,,,,,,,,,,,,,613e59f68312d2083c8b193d,42,2022-02-12_16h08.01.485,lexical_decision_task_DD,2021.2.3,Win32,59.98440405,,,,,,,,,,,0.5312,1,,,,,,,,,,,,,,z,1,0.5312,,,,,,,,0.048148148,-0.422222222,0,0,0,,0,86,86,92,1,PAIMS,LB,old,z,./images/PAIMSLB.png,,,,,,,,,,,,,,,,,,,,,,,,,,,,,,,,,,,,
,,,,,,,,,,,,,,,,,613e59f68312d2083c8b193d,42,2022-02-12_16h08.01.485,lexical_decision_task_DD,2021.2.3,Win32,59.98440405,,,,,,,,,,,0.6603,1,,,,,,,,,,,,,,z,1,0.6603,,,,,,,,0.048148148,-0.422222222,0,0,0,,0,87,87,93,1,SMONE,C,old,z,./images/SMONE.png,,,,,,,,,,,,,,,,,,,,,,,,,,,,,,,,,,,,
,,,,,,,,,,,,,,,,,613e59f68312d2083c8b193d,42,2022-02-12_16h08.01.485,lexical_decision_task_DD,2021.2.3,Win32,59.98440405,,,,,,,,,,,0.4854,1,,,,,,,,,,,,,,m,1,0.4854,,,,,,,,0.048148148,-0.422222222,0,0,0,,0,88,88,14,1,PICKLE,LB,old,m,./images/PICKLELB.png,,,,,,,,,,,,,,,,,,,,,,,,,,,,,,,,,,,,
,,,,,,,,,,,,,,,,,613e59f68312d2083c8b193d,42,2022-02-12_16h08.01.485,lexical_decision_task_DD,2021.2.3,Win32,59.98440405,,,,,,,,,,,0.5069,1,,,,,,,,,,,,,,z,1,0.5069,,,,,,,,0.048148148,-0.422222222,0,0,0,,0,89,89,156,1,HIXES,C,old,z,./images/HIXES.png,,,,,,,,,,,,,,,,,,,,,,,,,,,,,,,,,,,,
,,,,,,,,,,,,,,,,,613e59f68312d2083c8b193d,42,2022-02-12_16h08.01.485,lexical_decision_task_DD,2021.2.3,Win32,59.98440405,,,,,,,,,,,0.6677,1,,,,,,,,,,,,,,m,1,0.6677,,,,,,,,0.048148148,-0.422222222,0,0,0,,0,90,90,34,1,CANYON,HB,old,m,./images/CANYONHB.png,,,,,,,,,,,,,,,,,,,,,,,,,,,,,,,,,,,,
,,,,,,,,,,,,,,,,,613e59f68312d2083c8b193d,42,2022-02-12_16h08.01.485,lexical_decision_task_DD,2021.2.3,Win32,59.98440405,,,,,,,,,,,0.6087,1,,,,,,,,,,,,,,m,1,0.6087,,,,,,,,0.048148148,-0.422222222,0,0,0,,0,91,91,70,1,URINE,HB,old,m,./images/URINEHB.png,,,,,,,,,,,,,,,,,,,,,,,,,,,,,,,,,,,,
,,,,,,,,,,,,,,,,,613e59f68312d2083c8b193d,42,2022-02-12_16h08.01.485,lexical_decision_task_DD,2021.2.3,Win32,59.98440405,,,,,,,,,,,0.586,1,,,,,,,,,,,,,,z,1,0.586,,,,,,,,0.048148148,-0.422222222,0,0,0,,0,92,92,167,1,ZONET,LB,old,z,./images/ZONETLB.png,,,,,,,,,,,,,,,,,,,,,,,,,,,,,,,,,,,,
,,,,,,,,,,,,,,,,,613e59f68312d2083c8b193d,42,2022-02-12_16h08.01.485,lexical_decision_task_DD,2021.2.3,Win32,59.98440405,,,,,,,,,,,0.5089,1,,,,,,,,,,,,,,z,1,0.5089,,,,,,,,0.048148148,-0.422222222,0,0,0,,0,93,93,87,1,TRING,C,old,z,./images/TRING.png,,,,,,,,,,,,,,,,,,,,,,,,,,,,,,,,,,,,
,,,,,,,,,,,,,,,,,613e59f68312d2083c8b193d,42,2022-02-12_16h08.01.485,lexical_decision_task_DD,2021.2.3,Win32,59.98440405,,,,,,,,,,,0.496,1,,,,,,,,,,,,,,m,1,0.496,,,,,,,,0.048148148,-0.422222222,0,0,0,,0,94,94,71,1,PIMPLE,LB,old,m,./images/PIMPLELB.png,,,,,,,,,,,,,,,,,,,,,,,,,,,,,,,,,,,,
,,,,,,,,,,,,,,,,,613e59f68312d2083c8b193d,42,2022-02-12_16h08.01.485,lexical_decision_task_DD,2021.2.3,Win32,59.98440405,,,,,,,,,,,0.8174,1,,,,,,,,,,,,,,m,1,0.8174,,,,,,,,0.048148148,-0.422222222,0,0,0,,0,95,95,52,1,BANNER,HB,old,m,./images/BANNERHB.png,,,,,,,,,,,,,,,,,,,,,,,,,,,,,,,,,,,,
,,,,,,,,,,,,,,,,,613e59f68312d2083c8b193d,42,2022-02-12_16h08.01.485,lexical_decision_task_DD,2021.2.3,Win32,59.98440405,,,,,,,,,,,0.571,1,,,,,,,,,,,,,,z,1,0.571,,,,,,,,0.048148148,-0.422222222,0,0,0,,0,96,96,97,1,CHIDS,HB,old,z,./images/CHIDSHB.png,,,,,,,,,,,,,,,,,,,,,,,,,,,,,,,,,,,,
,,,,,,,,,,,,,,,,,613e59f68312d2083c8b193d,42,2022-02-12_16h08.01.485,lexical_decision_task_DD,2021.2.3,Win32,59.98440405,,,,,,,,,,,0.5662,1,,,,,,,,,,,,,,m,1,0.5662,,,,,,,,0.048148148,-0.422222222,0,0,0,,0,97,97,1,1,PLANK,HB,old,m,./images/PLANKHB.png,,,,,,,,,,,,,,,,,,,,,,,,,,,,,,,,,,,,
,,,,,,,,,,,,,,,,,613e59f68312d2083c8b193d,42,2022-02-12_16h08.01.485,lexical_decision_task_DD,2021.2.3,Win32,59.98440405,,,,,,,,,,,0.5708,1,,,,,,,,,,,,,,m,1,0.5708,,,,,,,,0.048148148,-0.422222222,0,0,0,,0,98,98,18,1,JAGUAR,C,old,m,./images/JAGUAR.png,,,,,,,,,,,,,,,,,,,,,,,,,,,,,,,,,,,,
,,,,,,,,,,,,,,,,,613e59f68312d2083c8b193d,42,2022-02-12_16h08.01.485,lexical_decision_task_DD,2021.2.3,Win32,59.98440405,,,,,,,,,,,0.7239,0,,,,,,,,,,,,,,z,0,0.7239,,,,,,,,0.048148148,-0.422222222,0,0,0,,0,99,99,40,1,SWING,HB,old,m,./images/SWINGHB.png,,,,,,,,,,,,,,,,,,,,,,,,,,,,,,,,,,,,
,,,,,,,,,,,,,,,,,613e59f68312d2083c8b193d,42,2022-02-12_16h08.01.485,lexical_decision_task_DD,2021.2.3,Win32,59.98440405,,,,,,,,,,,0.6265,1,,,,,,,,,,,,,,m,1,0.6265,,,,,,,,0.048148148,-0.422222222,0,0,0,,0,100,100,73,1,SNACK,HB,old,m,./images/SNACKHB.png,,,,,,,,,,,,,,,,,,,,,,,,,,,,,,,,,,,,
,,,,,,,,,,,,,,,,,613e59f68312d2083c8b193d,42,2022-02-12_16h08.01.485,lexical_decision_task_DD,2021.2.3,Win32,59.98440405,,,,,,,,,,,0.6512,1,,,,,,,,,,,,,,m,1,0.6512,,,,,,,,0.048148148,-0.422222222,0,0,0,,0,101,101,37,1,BIRTH,HB,old,m,./images/BIRTHHB.png,,,,,,,,,,,,,,,,,,,,,,,,,,,,,,,,,,,,
,,,,,,,,,,,,,,,,,613e59f68312d2083c8b193d,42,2022-02-12_16h08.01.485,lexical_decision_task_DD,2021.2.3,Win32,59.98440405,,,,,,,,,,,0.5041,1,,,,,,,,,,,,,,m,1,0.5041,,,,,,,,0.048148148,-0.422222222,0,0,0,,0,102,102,0,1,TOMATO,C,old,m,./images/TOMATO.png,,,,,,,,,,,,,,,,,,,,,,,,,,,,,,,,,,,,
,,,,,,,,,,,,,,,,,613e59f68312d2083c8b193d,42,2022-02-12_16h08.01.485,lexical_decision_task_DD,2021.2.3,Win32,59.98440405,,,,,,,,,,,0.5313,1,,,,,,,,,,,,,,z,1,0.5313,,,,,,,,0.048148148,-0.422222222,0,0,0,,0,103,103,86,1,AIFED,LB,old,z,./images/AIFEDLB.png,,,,,,,,,,,,,,,,,,,,,,,,,,,,,,,,,,,,
,,,,,,,,,,,,,,,,,613e59f68312d2083c8b193d,42,2022-02-12_16h08.01.485,lexical_decision_task_DD,2021.2.3,Win32,59.98440405,,,,,,,,,,,0.6369,1,,,,,,,,,,,,,,z,1,0.6369,,,,,,,,0.048148148,-0.422222222,0,0,0,,0,104,104,144,1,NAIRY,C,old,z,./images/NAIRY.png,,,,,,,,,,,,,,,,,,,,,,,,,,,,,,,,,,,,
,,,,,,,,,,,,,,,,,613e59f68312d2083c8b193d,42,2022-02-12_16h08.01.485,lexical_decision_task_DD,2021.2.3,Win32,59.98440405,,,,,,,,,,,0.5788,1,,,,,,,,,,,,,,m,1,0.5788,,,,,,,,0.048148148,-0.422222222,0,0,0,,0,105,105,38,1,LADDER,LB,old,m,./images/LADDERLB.png,,,,,,,,,,,,,,,,,,,,,,,,,,,,,,,,,,,,
,,,,,,,,,,,,,,,,,613e59f68312d2083c8b193d,42,2022-02-12_16h08.01.485,lexical_decision_task_DD,2021.2.3,Win32,59.98440405,,,,,,,,,,,0.5085,1,,,,,,,,,,,,,,m,1,0.5085,,,,,,,,0.048148148,-0.422222222,0,0,0,,0,106,106,3,1,FINGER,C,old,m,./images/FINGER.png,,,,,,,,,,,,,,,,,,,,,,,,,,,,,,,,,,,,
,,,,,,,,,,,,,,,,,613e59f68312d2083c8b193d,42,2022-02-12_16h08.01.485,lexical_decision_task_DD,2021.2.3,Win32,59.98440405,,,,,,,,,,,1.1699,0,,,,,,,,,,,,,,z,0,1.1699,,,,,,,,0.048148148,-0.422222222,0,0,0,,0,107,107,16,1,PENCE,HB,old,m,./images/PENCEHB.png,,,,,,,,,,,,,,,,,,,,,,,,,,,,,,,,,,,,
,,,,,,,,,,,,,,,,,613e59f68312d2083c8b193d,42,2022-02-12_16h08.01.485,lexical_decision_task_DD,2021.2.3,Win32,59.98440405,,,,,,,,,,,0.5856,1,,,,,,,,,,,,,,m,1,0.5856,,,,,,,,0.048148148,-0.422222222,0,0,0,,0,108,108,5,1,PASTA,LB,old,m,./images/PASTALB.png,,,,,,,,,,,,,,,,,,,,,,,,,,,,,,,,,,,,
,,,,,,,,,,,,,,,,,613e59f68312d2083c8b193d,42,2022-02-12_16h08.01.485,lexical_decision_task_DD,2021.2.3,Win32,59.98440405,,,,,,,,,,,0.8227,1,,,,,,,,,,,,,,z,1,0.8227,,,,,,,,0.048148148,-0.422222222,0,0,0,,0,109,109,109,1,BURGE,HB,old,z,./images/BURGEHB.png,,,,,,,,,,,,,,,,,,,,,,,,,,,,,,,,,,,,
,,,,,,,,,,,,,,,,,613e59f68312d2083c8b193d,42,2022-02-12_16h08.01.485,lexical_decision_task_DD,2021.2.3,Win32,59.98440405,,,,,,,,,,,0.7051,1,,,,,,,,,,,,,,m,1,0.7051,,,,,,,,0.048148148,-0.422222222,0,0,0,,0,110,110,11,1,BONNET,LB,old,m,./images/BONNETLB.png,,,,,,,,,,,,,,,,,,,,,,,,,,,,,,,,,,,,
,,,,,,,,,,,,,,,,,613e59f68312d2083c8b193d,42,2022-02-12_16h08.01.485,lexical_decision_task_DD,2021.2.3,Win32,59.98440405,,,,,,,,,,,0.5474,0,,,,,,,,,,,,,,z,0,0.5474,,,,,,,,0.048148148,-0.422222222,0,0,0,,0,111,111,23,1,WALRUS,LB,old,m,./images/WALRUSLB.png,,,,,,,,,,,,,,,,,,,,,,,,,,,,,,,,,,,,
,,,,,,,,,,,,,,,,,613e59f68312d2083c8b193d,42,2022-02-12_16h08.01.485,lexical_decision_task_DD,2021.2.3,Win32,59.98440405,,,,,,,,,,,0.6116,0,,,,,,,,,,,,,,z,0,0.6116,,,,,,,,0.048148148,-0.422222222,0,0,0,,0,112,112,76,1,INFANT,HB,old,m,./images/INFANTHB.png,,,,,,,,,,,,,,,,,,,,,,,,,,,,,,,,,,,,
,,,,,,,,,,,,,,,,,613e59f68312d2083c8b193d,42,2022-02-12_16h08.01.485,lexical_decision_task_DD,2021.2.3,Win32,59.98440405,,,,,,,,,,,0.6241,1,,,,,,,,,,,,,,z,1,0.6241,,,,,,,,0.048148148,-0.422222222,0,0,0,,0,113,113,165,1,TROWN,C,old,z,./images/TROWN.png,,,,,,,,,,,,,,,,,,,,,,,,,,,,,,,,,,,,
,,,,,,,,,,,,,,,,,613e59f68312d2083c8b193d,42,2022-02-12_16h08.01.485,lexical_decision_task_DD,2021.2.3,Win32,59.98440405,,,,,,,,,,,0.4847,1,,,,,,,,,,,,,,m,1,0.4847,,,,,,,,0.048148148,-0.422222222,0,0,0,,0,114,114,15,1,GREASE,C,old,m,./images/GREASE.png,,,,,,,,,,,,,,,,,,,,,,,,,,,,,,,,,,,,
,,,,,,,,,,,,,,,,,613e59f68312d2083c8b193d,42,2022-02-12_16h08.01.485,lexical_decision_task_DD,2021.2.3,Win32,59.98440405,,,,,,,,,,,0.7369,1,,,,,,,,,,,,,,z,1,0.7369,,,,,,,,0.048148148,-0.422222222,0,0,0,,0,115,115,123,1,SEDGE,C,old,z,./images/SEDGE.png,,,,,,,,,,,,,,,,,,,,,,,,,,,,,,,,,,,,
,,,,,,,,,,,,,,,,,613e59f68312d2083c8b193d,42,2022-02-12_16h08.01.485,lexical_decision_task_DD,2021.2.3,Win32,59.98440405,,,,,,,,,,,0.5399,1,,,,,,,,,,,,,,m,1,0.5399,,,,,,,,0.048148148,-0.422222222,0,0,0,,0,116,116,8,1,TULIP,LB,old,m,./images/TULIPLB.png,,,,,,,,,,,,,,,,,,,,,,,,,,,,,,,,,,,,
,,,,,,,,,,,,,,,,,613e59f68312d2083c8b193d,42,2022-02-12_16h08.01.485,lexical_decision_task_DD,2021.2.3,Win32,59.98440405,,,,,,,,,,,0.6819,1,,,,,,,,,,,,,,z,1,0.6819,,,,,,,,0.048148148,-0.422222222,0,0,0,,0,117,117,112,1,MYING,HB,old,z,./images/MYINGHB.png,,,,,,,,,,,,,,,,,,,,,,,,,,,,,,,,,,,,
,,,,,,,,,,,,,,,,,613e59f68312d2083c8b193d,42,2022-02-12_16h08.01.485,lexical_decision_task_DD,2021.2.3,Win32,59.98440405,,,,,,,,,,,0.5653,1,,,,,,,,,,,,,,m,1,0.5653,,,,,,,,0.048148148,-0.422222222,0,0,0,,0,118,118,17,1,SKIING,LB,old,m,./images/SKIINGLB.png,,,,,,,,,,,,,,,,,,,,,,,,,,,,,,,,,,,,
,,,,,,,,,,,,,,,,,613e59f68312d2083c8b193d,42,2022-02-12_16h08.01.485,lexical_decision_task_DD,2021.2.3,Win32,59.98440405,,,,,,,,,,,0.5394,1,,,,,,,,,,,,,,z,1,0.5394,,,,,,,,0.048148148,-0.422222222,0,0,0,,0,119,119,119,1,PAFER,LB,old,z,./images/PAFERLB.png,,,,,,,,,,,,,,,,,,,,,,,,,,,,,,,,,,,,
,,,,,,,,,,,,,,,,,613e59f68312d2083c8b193d,42,2022-02-12_16h08.01.485,lexical_decision_task_DD,2021.2.3,Win32,59.98440405,,,,,,,,,,,0.9049,1,,,,,,,,,,,,,,m,1,0.9049,,,,,,,,0.048148148,-0.422222222,0,0,0,,0,120,120,58,1,BABOON,HB,old,m,./images/BABOONHB.png,,,,,,,,,,,,,,,,,,,,,,,,,,,,,,,,,,,,
,,,,,,,,,,,,,,,,,613e59f68312d2083c8b193d,42,2022-02-12_16h08.01.485,lexical_decision_task_DD,2021.2.3,Win32,59.98440405,,,,,,,,,,,0.4643,1,,,,,,,,,,,,,,m,1,0.4643,,,,,,,,0.048148148,-0.422222222,0,0,0,,0,121,121,24,1,SCREW,C,old,m,./images/SCREW.png,,,,,,,,,,,,,,,,,,,,,,,,,,,,,,,,,,,,
,,,,,,,,,,,,,,,,,613e59f68312d2083c8b193d,42,2022-02-12_16h08.01.485,lexical_decision_task_DD,2021.2.3,Win32,59.98440405,,,,,,,,,,,0.5869,1,,,,,,,,,,,,,,z,1,0.5869,,,,,,,,0.048148148,-0.422222222,0,0,0,,0,122,122,131,1,NACES,LB,old,z,./images/NACESLB.png,,,,,,,,,,,,,,,,,,,,,,,,,,,,,,,,,,,,
,,,,,,,,,,,,,,,,,613e59f68312d2083c8b193d,42,2022-02-12_16h08.01.485,lexical_decision_task_DD,2021.2.3,Win32,59.98440405,,,,,,,,,,,0.5754,1,,,,,,,,,,,,,,m,1,0.5754,,,,,,,,0.048148148,-0.422222222,0,0,0,,0,123,123,61,1,CANDLE,HB,old,m,./images/CANDLEHB.png,,,,,,,,,,,,,,,,,,,,,,,,,,,,,,,,,,,,
,,,,,,,,,,,,,,,,,613e59f68312d2083c8b193d,42,2022-02-12_16h08.01.485,lexical_decision_task_DD,2021.2.3,Win32,59.98440405,,,,,,,,,,,0.5348,1,,,,,,,,,,,,,,m,1,0.5348,,,,,,,,0.048148148,-0.422222222,0,0,0,,0,124,124,36,1,THROAT,C,old,m,./images/THROAT.png,,,,,,,,,,,,,,,,,,,,,,,,,,,,,,,,,,,,
,,,,,,,,,,,,,,,,,613e59f68312d2083c8b193d,42,2022-02-12_16h08.01.485,lexical_decision_task_DD,2021.2.3,Win32,59.98440405,,,,,,,,,,,0.6231,1,,,,,,,,,,,,,,z,1,0.6231,,,,,,,,0.048148148,-0.422222222,0,0,0,space,0,125,125,152,1,FRAIN,LB,old,z,./images/FRAINLB.png,1.4813,,,,,,,,,,,,,,,,,,,,,,,,,,,,,,,,,,,
,,,,,,,,,,,,,,,,,613e59f68312d2083c8b193d,42,2022-02-12_16h08.01.485,lexical_decision_task_DD,2021.2.3,Win32,59.98440405,,,,,,,,,,,0.4313,1,,,,,,,,,,,,,,m,1,0.4313,,,,,,,,0.048148148,-0.422222222,0,0,0,,0,126,126,63,1,MIRROR,C,old,m,./images/MIRROR.png,,,,,,,,,,,,,,,,,,,,,,,,,,,,,,,,,,,,
,,,,,,,,,,,,,,,,,613e59f68312d2083c8b193d,42,2022-02-12_16h08.01.485,lexical_decision_task_DD,2021.2.3,Win32,59.98440405,,,,,,,,,,,0.7872,1,,,,,,,,,,,,,,z,1,0.7872,,,,,,,,0.048148148,-0.422222222,0,0,0,,0,127,127,147,1,ZOLES,C,old,z,./images/ZOLES.png,,,,,,,,,,,,,,,,,,,,,,,,,,,,,,,,,,,,
,,,,,,,,,,,,,,,,,613e59f68312d2083c8b193d,42,2022-02-12_16h08.01.485,lexical_decision_task_DD,2021.2.3,Win32,59.98440405,,,,,,,,,,,0.6413,1,,,,,,,,,,,,,,z,1,0.6413,,,,,,,,0.048148148,-0.422222222,0,0,0,,0,128,128,122,1,BLOOT,LB,old,z,./images/BLOOTLB.png,,,,,,,,,,,,,,,,,,,,,,,,,,,,,,,,,,,,
,,,,,,,,,,,,,,,,,613e59f68312d2083c8b193d,42,2022-02-12_16h08.01.485,lexical_decision_task_DD,2021.2.3,Win32,59.98440405,,,,,,,,,,,0.6484,1,,,,,,,,,,,,,,z,1,0.6484,,,,,,,,0.048148148,-0.422222222,0,0,0,,0,129,129,134,1,TROSS,LB,old,z,./images/TROSSLB.png,,,,,,,,,,,,,,,,,,,,,,,,,,,,,,,,,,,,
,,,,,,,,,,,,,,,,,613e59f68312d2083c8b193d,42,2022-02-12_16h08.01.485,lexical_decision_task_DD,2021.2.3,Win32,59.98440405,,,,,,,,,,,0.5852,1,,,,,,,,,,,,,,z,1,0.5852,,,,,,,,0.048148148,-0.422222222,0,0,0,,0,130,130,161,1,BLAPS,LB,old,z,./images/BLAPSLB.png,,,,,,,,,,,,,,,,,,,,,,,,,,,,,,,,,,,,
,,,,,,,,,,,,,,,,,613e59f68312d2083c8b193d,42,2022-02-12_16h08.01.485,lexical_decision_task_DD,2021.2.3,Win32,59.98440405,,,,,,,,,,,0.7998,1,,,,,,,,,,,,,,m,1,0.7998,,,,,,,,0.048148148,-0.422222222,0,0,0,,0,131,131,4,1,MUSCLE,HB,old,m,./images/MUSCLEHB.png,,,,,,,,,,,,,,,,,,,,,,,,,,,,,,,,,,,,
,,,,,,,,,,,,,,,,,613e59f68312d2083c8b193d,42,2022-02-12_16h08.01.485,lexical_decision_task_DD,2021.2.3,Win32,59.98440405,,,,,,,,,,,0.7433,1,,,,,,,,,,,,,,z,1,0.7433,,,,,,,,0.048148148,-0.422222222,0,0,0,,0,132,132,133,1,POWDY,HB,old,z,./images/POWDYHB.png,,,,,,,,,,,,,,,,,,,,,,,,,,,,,,,,,,,,
,,,,,,,,,,,,,,,,,613e59f68312d2083c8b193d,42,2022-02-12_16h08.01.485,lexical_decision_task_DD,2021.2.3,Win32,59.98440405,,,,,,,,,,,0.7492,1,,,,,,,,,,,,,,z,1,0.7492,,,,,,,,0.048148148,-0.422222222,0,0,0,,0,133,133,138,1,PLICE,C,old,z,./images/PLICE.png,,,,,,,,,,,,,,,,,,,,,,,,,,,,,,,,,,,,
,,,,,,,,,,,,,,,,,613e59f68312d2083c8b193d,42,2022-02-12_16h08.01.485,lexical_decision_task_DD,2021.2.3,Win32,59.98440405,,,,,,,,,,,0.6626,1,,,,,,,,,,,,,,z,1,0.6626,,,,,,,,0.048148148,-0.422222222,0,0,0,,0,134,134,130,1,CRILL,HB,old,z,./images/CRILLHB.png,,,,,,,,,,,,,,,,,,,,,,,,,,,,,,,,,,,,
,,,,,,,,,,,,,,,,,613e59f68312d2083c8b193d,42,2022-02-12_16h08.01.485,lexical_decision_task_DD,2021.2.3,Win32,59.98440405,,,,,,,,,,,0.5266,1,,,,,,,,,,,,,,z,1,0.5266,,,,,,,,0.048148148,-0.422222222,0,0,0,,0,135,135,108,1,GRUET,C,old,z,./images/GRUET.png,,,,,,,,,,,,,,,,,,,,,,,,,,,,,,,,,,,,
,,,,,,,,,,,,,,,,,613e59f68312d2083c8b193d,42,2022-02-12_16h08.01.485,lexical_decision_task_DD,2021.2.3,Win32,59.98440405,,,,,,,,,,,0.6278,1,,,,,,,,,,,,,,z,1,0.6278,,,,,,,,0.048148148,-0.422222222,0,0,0,,0,136,136,148,1,JOMS,HB,old,z,./images/JOMSHB.png,,,,,,,,,,,,,,,,,,,,,,,,,,,,,,,,,,,,
,,,,,,,,,,,,,,,,,613e59f68312d2083c8b193d,42,2022-02-12_16h08.01.485,lexical_decision_task_DD,2021.2.3,Win32,59.98440405,,,,,,,,,,,0.6177,1,,,,,,,,,,,,,,m,1,0.6177,,,,,,,,0.048148148,-0.422222222,0,0,0,,0,137,137,25,1,WRIST,HB,old,m,./images/WRISTHB.png,,,,,,,,,,,,,,,,,,,,,,,,,,,,,,,,,,,,
,,,,,,,,,,,,,,,,,613e59f68312d2083c8b193d,42,2022-02-12_16h08.01.485,lexical_decision_task_DD,2021.2.3,Win32,59.98440405,,,,,,,,,,,1.1254,1,,,,,,,,,,,,,,m,1,1.1254,,,,,,,,0.048148148,-0.422222222,0,0,0,,0,138,138,72,1,NOOSE,C,old,m,./images/NOOSE.png,,,,,,,,,,,,,,,,,,,,,,,,,,,,,,,,,,,,
,,,,,,,,,,,,,,,,,613e59f68312d2083c8b193d,42,2022-02-12_16h08.01.485,lexical_decision_task_DD,2021.2.3,Win32,59.98440405,,,,,,,,,,,0.5471,1,,,,,,,,,,,,,,z,1,0.5471,,,,,,,,0.048148148,-0.422222222,0,0,0,,0,139,139,89,1,DRIEK,LB,old,z,./images/DRIEKLB.png,,,,,,,,,,,,,,,,,,,,,,,,,,,,,,,,,,,,
,,,,,,,,,,,,,,,,,613e59f68312d2083c8b193d,42,2022-02-12_16h08.01.485,lexical_decision_task_DD,2021.2.3,Win32,59.98440405,,,,,,,,,,,0.709,0,,,,,,,,,,,,,,z,0,0.709,,,,,,,,0.048148148,-0.422222222,0,0,0,,0,140,140,19,1,DOUGH,HB,old,m,./images/DOUGHHB.png,,,,,,,,,,,,,,,,,,,,,,,,,,,,,,,,,,,,
,,,,,,,,,,,,,,,,,613e59f68312d2083c8b193d,42,2022-02-12_16h08.01.485,lexical_decision_task_DD,2021.2.3,Win32,59.98440405,,,,,,,,,,,0.7144,1,,,,,,,,,,,,,,z,1,0.7144,,,,,,,,0.048148148,-0.422222222,0,0,0,,0,141,141,127,1,NINDY,HB,old,z,./images/NINDYHB.png,,,,,,,,,,,,,,,,,,,,,,,,,,,,,,,,,,,,
,,,,,,,,,,,,,,,,,613e59f68312d2083c8b193d,42,2022-02-12_16h08.01.485,lexical_decision_task_DD,2021.2.3,Win32,59.98440405,,,,,,,,,,,0.6365,1,,,,,,,,,,,,,,z,1,0.6365,,,,,,,,0.048148148,-0.422222222,0,0,0,,0,142,142,98,1,BAMPS,LB,old,z,./images/BAMPSLB.png,,,,,,,,,,,,,,,,,,,,,,,,,,,,,,,,,,,,
,,,,,,,,,,,,,,,,,613e59f68312d2083c8b193d,42,2022-02-12_16h08.01.485,lexical_decision_task_DD,2021.2.3,Win32,59.98440405,,,,,,,,,,,0.5332,1,,,,,,,,,,,,,,m,1,0.5332,,,,,,,,0.048148148,-0.422222222,0,0,0,,0,143,143,29,1,CRUMB,LB,old,m,./images/CRUMBLB.png,,,,,,,,,,,,,,,,,,,,,,,,,,,,,,,,,,,,
,,,,,,,,,,,,,,,,,613e59f68312d2083c8b193d,42,2022-02-12_16h08.01.485,lexical_decision_task_DD,2021.2.3,Win32,59.98440405,,,,,,,,,,,0.5496,1,,,,,,,,,,,,,,z,1,0.5496,,,,,,,,0.048148148,-0.422222222,0,0,0,,0,144,144,117,1,STEEG,C,old,z,./images/STEEG.png,,,,,,,,,,,,,,,,,,,,,,,,,,,,,,,,,,,,
,,,,,,,,,,,,,,,,,613e59f68312d2083c8b193d,42,2022-02-12_16h08.01.485,lexical_decision_task_DD,2021.2.3,Win32,59.98440405,,,,,,,,,,,0.5443,1,,,,,,,,,,,,,,z,1,0.5443,,,,,,,,0.048148148,-0.422222222,0,0,0,,0,145,145,129,1,PRANS,C,old,z,./images/PRANS.png,,,,,,,,,,,,,,,,,,,,,,,,,,,,,,,,,,,,
,,,,,,,,,,,,,,,,,613e59f68312d2083c8b193d,42,2022-02-12_16h08.01.485,lexical_decision_task_DD,2021.2.3,Win32,59.98440405,,,,,,,,,,,1.0612,1,,,,,,,,,,,,,,z,1,1.0612,,,,,,,,0.048148148,-0.422222222,0,0,0,,0,146,146,166,1,SHORY,HB,old,z,./images/SHORYHB.png,,,,,,,,,,,,,,,,,,,,,,,,,,,,,,,,,,,,
,,,,,,,,,,,,,,,,,613e59f68312d2083c8b193d,42,2022-02-12_16h08.01.485,lexical_decision_task_DD,2021.2.3,Win32,59.98440405,,,,,,,,,,,0.5464,1,,,,,,,,,,,,,,z,1,0.5464,,,,,,,,0.048148148,-0.422222222,0,0,0,,0,147,147,164,1,SGREW,LB,old,z,./images/SGREWLB.png,,,,,,,,,,,,,,,,,,,,,,,,,,,,,,,,,,,,
,,,,,,,,,,,,,,,,,613e59f68312d2083c8b193d,42,2022-02-12_16h08.01.485,lexical_decision_task_DD,2021.2.3,Win32,59.98440405,,,,,,,,,,,0.7457,1,,,,,,,,,,,,,,m,1,0.7457,,,,,,,,0.048148148,-0.422222222,0,0,0,,0,148,148,43,1,MOSQUE,HB,old,m,./images/MOSQUEHB.png,,,,,,,,,,,,,,,,,,,,,,,,,,,,,,,,,,,,
,,,,,,,,,,,,,,,,,613e59f68312d2083c8b193d,42,2022-02-12_16h08.01.485,lexical_decision_task_DD,2021.2.3,Win32,59.98440405,,,,,,,,,,,0.5357,1,,,,,,,,,,,,,,z,1,0.5357,,,,,,,,0.048148148,-0.422222222,0,0,0,,0,149,149,158,1,EGECT,LB,old,z,./images/EGECTLB.png,,,,,,,,,,,,,,,,,,,,,,,,,,,,,,,,,,,,
,,,,,,,,,,,,,,,,,613e59f68312d2083c8b193d,42,2022-02-12_16h08.01.485,lexical_decision_task_DD,2021.2.3,Win32,59.98440405,,,,,,,,,,,0.5813,1,,,,,,,,,,,,,,m,1,0.5813,,,,,,,,0.048148148,-0.422222222,0,0,0,,0,150,150,2,1,BEARD,LB,old,m,./images/BEARDLB.png,,,,,,,,,,,,,,,,,,,,,,,,,,,,,,,,,,,,
,,,,,,,,,,,,,,,,,613e59f68312d2083c8b193d,42,2022-02-12_16h08.01.485,lexical_decision_task_DD,2021.2.3,Win32,59.98440405,,,,,,,,,,,0.5408,1,,,,,,,,,,,,,,z,1,0.5408,,,,,,,,0.048148148,-0.422222222,0,0,0,,0,151,151,96,1,KEAMS,C,old,z,./images/KEAMS.png,,,,,,,,,,,,,,,,,,,,,,,,,,,,,,,,,,,,
,,,,,,,,,,,,,,,,,613e59f68312d2083c8b193d,42,2022-02-12_16h08.01.485,lexical_decision_task_DD,2021.2.3,Win32,59.98440405,,,,,,,,,,,0.5802,1,,,,,,,,,,,,,,m,1,0.5802,,,,,,,,0.048148148,-0.422222222,0,0,0,,0,152,152,41,1,STRING,LB,old,m,./images/STRINGLB.png,,,,,,,,,,,,,,,,,,,,,,,,,,,,,,,,,,,,
,,,,,,,,,,,,,,,,,613e59f68312d2083c8b193d,42,2022-02-12_16h08.01.485,lexical_decision_task_DD,2021.2.3,Win32,59.98440405,,,,,,,,,,,0.5397,1,,,,,,,,,,,,,,z,1,0.5397,,,,,,,,0.048148148,-0.422222222,0,0,0,,0,153,153,114,1,RIKES,C,old,z,./images/RIKES.png,,,,,,,,,,,,,,,,,,,,,,,,,,,,,,,,,,,,
,,,,,,,,,,,,,,,,,613e59f68312d2083c8b193d,42,2022-02-12_16h08.01.485,lexical_decision_task_DD,2021.2.3,Win32,59.98440405,,,,,,,,,,,0.6293,1,,,,,,,,,,,,,,m,1,0.6293,,,,,,,,0.048148148,-0.422222222,0,0,0,,0,154,154,47,1,BERRY,LB,old,m,./images/BERRYLB.png,,,,,,,,,,,,,,,,,,,,,,,,,,,,,,,,,,,,
,,,,,,,,,,,,,,,,,613e59f68312d2083c8b193d,42,2022-02-12_16h08.01.485,lexical_decision_task_DD,2021.2.3,Win32,59.98440405,,,,,,,,,,,0.7217,1,,,,,,,,,,,,,,m,1,0.7217,,,,,,,,0.048148148,-0.422222222,0,0,0,,0,155,155,82,1,SUNSET,HB,old,m,./images/SUNSETHB.png,,,,,,,,,,,,,,,,,,,,,,,,,,,,,,,,,,,,
,,,,,,,,,,,,,,,,,613e59f68312d2083c8b193d,42,2022-02-12_16h08.01.485,lexical_decision_task_DD,2021.2.3,Win32,59.98440405,,,,,,,,,,,0.7615,1,,,,,,,,,,,,,,m,1,0.7615,,,,,,,,0.048148148,-0.422222222,0,0,0,,0,156,156,13,1,MOTOR,HB,old,m,./images/MOTORHB.png,,,,,,,,,,,,,,,,,,,,,,,,,,,,,,,,,,,,
,,,,,,,,,,,,,,,,,613e59f68312d2083c8b193d,42,2022-02-12_16h08.01.485,lexical_decision_task_DD,2021.2.3,Win32,59.98440405,,,,,,,,,,,0.4802,1,,,,,,,,,,,,,,m,1,0.4802,,,,,,,,0.048148148,-0.422222222,0,0,0,,0,157,157,69,1,COOKER,C,old,m,./images/COOKER.png,,,,,,,,,,,,,,,,,,,,,,,,,,,,,,,,,,,,
,,,,,,,,,,,,,,,,,613e59f68312d2083c8b193d,42,2022-02-12_16h08.01.485,lexical_decision_task_DD,2021.2.3,Win32,59.98440405,,,,,,,,,,,0.5668,1,,,,,,,,,,,,,,z,1,0.5668,,,,,,,,0.048148148,-0.422222222,0,0,0,,0,158,158,84,1,HAXES,C,old,z,./images/HAXES.png,,,,,,,,,,,,,,,,,,,,,,,,,,,,,,,,,,,,
,,,,,,,,,,,,,,,,,613e59f68312d2083c8b193d,42,2022-02-12_16h08.01.485,lexical_decision_task_DD,2021.2.3,Win32,59.98440405,,,,,,,,,,,0.4511,1,,,,,,,,,,,,,,m,1,0.4511,,,,,,,,0.048148148,-0.422222222,0,0,0,,0,159,159,30,1,STORM,C,old,m,./images/STORM.png,,,,,,,,,,,,,,,,,,,,,,,,,,,,,,,,,,,,
,,,,,,,,,,,,,,,,,613e59f68312d2083c8b193d,42,2022-02-12_16h08.01.485,lexical_decision_task_DD,2021.2.3,Win32,59.98440405,,,,,,,,,,,0.4629,1,,,,,,,,,,,,,,m,1,0.4629,,,,,,,,0.048148148,-0.422222222,0,0,0,,0,160,160,60,1,TWINS,C,old,m,./images/TWINS.png,,,,,,,,,,,,,,,,,,,,,,,,,,,,,,,,,,,,
,,,,,,,,,,,,,,,,,613e59f68312d2083c8b193d,42,2022-02-12_16h08.01.485,lexical_decision_task_DD,2021.2.3,Win32,59.98440405,,,,,,,,,,,0.4299,1,,,,,,,,,,,,,,m,1,0.4299,,,,,,,,0.048148148,-0.422222222,0,0,0,,0,161,161,6,1,SQUARE,C,old,m,./images/SQUARE.png,,,,,,,,,,,,,,,,,,,,,,,,,,,,,,,,,,,,
,,,,,,,,,,,,,,,,,613e59f68312d2083c8b193d,42,2022-02-12_16h08.01.485,lexical_decision_task_DD,2021.2.3,Win32,59.98440405,,,,,,,,,,,0.6305,1,,,,,,,,,,,,,,z,1,0.6305,,,,,,,,0.048148148,-0.422222222,0,0,0,,0,162,162,139,1,BLEAR,HB,old,z,./images/BLEARHB.png,,,,,,,,,,,,,,,,,,,,,,,,,,,,,,,,,,,,
,,,,,,,,,,,,,,,,,613e59f68312d2083c8b193d,42,2022-02-12_16h08.01.485,lexical_decision_task_DD,2021.2.3,Win32,59.98440405,,,,,,,,,,,0.5455,1,,,,,,,,,,,,,,m,1,0.5455,,,,,,,,0.048148148,-0.422222222,0,0,0,,0,163,163,21,1,KIDNEY,C,old,m,./images/KIDNEY.png,,,,,,,,,,,,,,,,,,,,,,,,,,,,,,,,,,,,
,,,,,,,,,,,,,,,,,613e59f68312d2083c8b193d,42,2022-02-12_16h08.01.485,lexical_decision_task_DD,2021.2.3,Win32,59.98440405,,,,,,,,,,,0.635,1,,,,,,,,,,,,,,z,1,0.635,,,,,,,,0.048148148,-0.422222222,0,0,0,,0,164,164,153,1,CLUPS,C,old,z,./images/CLUPS.png,,,,,,,,,,,,,,,,,,,,,,,,,,,,,,,,,,,,
,,,,,,,,,,,,,,,,,613e59f68312d2083c8b193d,42,2022-02-12_16h08.01.485,lexical_decision_task_DD,2021.2.3,Win32,59.98440405,,,,,,,,,,,0.5872,1,,,,,,,,,,,,,,m,1,0.5872,,,,,,,,0.048148148,-0.422222222,0,0,0,,0,165,165,7,1,PAINT,HB,old,m,./images/PAINTHB.png,,,,,,,,,,,,,,,,,,,,,,,,,,,,,,,,,,,,
,,,,,,,,,,,,,,,,,613e59f68312d2083c8b193d,42,2022-02-12_16h08.01.485,lexical_decision_task_DD,2021.2.3,Win32,59.98440405,,,,,,,,,,,0.4518,1,,,,,,,,,,,,,,m,1,0.4518,,,,,,,,0.048148148,-0.422222222,0,0,0,,0,166,166,48,1,SPORT,C,old,m,./images/SPORT.png,,,,,,,,,,,,,,,,,,,,,,,,,,,,,,,,,,,,
,,,,,,,,,,,,,,,,,613e59f68312d2083c8b193d,42,2022-02-12_16h08.01.485,lexical_decision_task_DD,2021.2.3,Win32,59.98440405,,,,,,,,,,,0.5774,1,,,,,,,,,,,,,,m,1,0.5774,,,,,,,,0.048148148,-0.422222222,0,0,0,,0,167,167,33,1,MAGGOT,C,old,m,./images/MAGGOT.png,,,,,,,,,,,,,,,,,,,,,,,,,,,,,,,,,,,,
,,,,,,,,,,,,,,,,,613e59f68312d2083c8b193d,42,2022-02-12_16h08.01.485,lexical_decision_task_DD,2021.2.3,Win32,59.98440405,,,,,,,,,,,,,,,,,,,,,,,,,,,,,,,,,,,,,,,,,,,,,,,,How likely will it be that you will recognize the words presented clearly on a scale of 0 (not likely) to 100 (most likely)?,,,,,0.013888889,-0.421296296,1,0,0,jol_adv,6,3.5728,0,0,0,0,1,,,,,,,,,,,,,,,,,,,,,,
,,,,,,,,,,,,,,,,,613e59f68312d2083c8b193d,42,2022-02-12_16h08.01.485,lexical_decision_task_DD,2021.2.3,Win32,59.98440405,,,,,,,,,,,,,,,,,,,,,,,,,,,,,,,,,,,,,,,,,,,,,,,,How likely will it be that you will recognize the words presented very blurred on a scale of 0 (not likely) to 100 (most likely)?,,,,,,,,,,,6,3.353,0,1,1,2,1,,,,,,,,,,,,,,,,,,,,,,
,,,,,,,,,,,,,,,,,613e59f68312d2083c8b193d,42,2022-02-12_16h08.01.485,lexical_decision_task_DD,2021.2.3,Win32,59.98440405,,,,,,,,,,,,,,,,,,,,,,,,,,,,,,,,,,,,,,,,,,,,,,,,How likely will it be that you will recognize the words presented slighly blurred on a scale of 0 (not likely) to 100 (most likely)?,,,,,,,,,,,6,1.7856,0,2,2,1,1,,,,,,,,,,,,,,,,,,,,,,
space,0.467592593,-0.199074074,0,0,0,,,,,,,1,test,"In the next phase you will be presented with the words from the the first phase. Your job is to decide whether you remember seeing the word or not. If you remember seeing the word press ""old"" or type ""m"". If you do not remember seeing the word press ""new"" or type ""z"". Please press the space bar or click on continue to begin. ",,,613e59f68312d2083c8b193d,42,2022-02-12_16h08.01.485,lexical_decision_task_DD,2021.2.3,Win32,59.98440405,,,,,,,,,,,,,,,,,,,,,,,,,,,,,,,,,,,,,,,,,,,,,,,,,,,,,,,,,,,,,,,,,,28.215,0,0,0,0,1,,,,,,,,,,,,,,,,
,0.092592593,-0.378703704,1,0,0,instr_done_button,,,,,,1,test,"In the next phase you will be presented with the words from the the first phase. Your job is to decide whether you remember seeing the word or not. If you remember seeing the word press ""old"" or type ""m"". If you do not remember seeing the word press ""new"" or type ""z"". Please press the space bar or click on continue to begin. ",,,613e59f68312d2083c8b193d,42,2022-02-12_16h08.01.485,lexical_decision_task_DD,2021.2.3,Win32,59.98440405,,,,,,,,,,,,,,,,,,,,,,,,,,,,,,,,,,,,,,,,,,,,,,,,,,,,,,,,,,,,,,,,,,,1,0,1,0,1,,,,,,,,,,,,,,,,
,0.082407407,-0.384259259,1,0,0,instr_done_button,,,,,,1,test,"In the next phase you will be presented with the words from the the first phase. Your job is to decide whether you remember seeing the word or not. If you remember seeing the word press ""old"" or type ""m"". If you do not remember seeing the word press ""new"" or type ""z"". Please press the space bar or click on continue to begin. ",,,613e59f68312d2083c8b193d,42,2022-02-12_16h08.01.485,lexical_decision_task_DD,2021.2.3,Win32,59.98440405,,,,,,,,,,,,,,,,,,,,,,,,,,,,,,,,,,,,,,,,,,,,,,,,,,,,,,,,,,,,,,,,,,,2,0,2,0,1,,,,,,,,,,,,,,,,
,0.049074074,-0.403703704,1,0,0,instr_done_button,,,,,,1,test,"In the next phase you will be presented with the words from the the first phase. Your job is to decide whether you remember seeing the word or not. If you remember seeing the word press ""old"" or type ""m"". If you do not remember seeing the word press ""new"" or type ""z"". Please press the space bar or click on continue to begin. ",,,613e59f68312d2083c8b193d,42,2022-02-12_16h08.01.485,lexical_decision_task_DD,2021.2.3,Win32,59.98440405,,,,,,,,,,,,,,,,,,,,,,,,,,,,,,,,,,,,,,,,,,,,,,,,,,,,,,,,,,,,,,,,,,,3,0,3,0,1,,,,,,,,,,,,,,,,
,0.009259259,-0.396296296,1,0,0,instr_done_button,,,,,,1,test,"In the next phase you will be presented with the words from the the first phase. Your job is to decide whether you remember seeing the word or not. If you remember seeing the word press ""old"" or type ""m"". If you do not remember seeing the word press ""new"" or type ""z"". Please press the space bar or click on continue to begin. ",,,613e59f68312d2083c8b193d,42,2022-02-12_16h08.01.485,lexical_decision_task_DD,2021.2.3,Win32,59.98440405,,,,,,,,,,,,,,,,,,,,,,,,,,,,,,,,,,,,,,,,,,,,,,,,,,,,,,,,,,,,,,,,,,,4,0,4,0,1,,,,,,,,,,,,,,,,
,,,,,,,,,,,,,,,,,613e59f68312d2083c8b193d,42,2022-02-12_16h08.01.485,lexical_decision_task_DD,2021.2.3,Win32,59.98440405,,,,,,,,,,,3.3203,1,,,,,,,,,,,,,,,,,,,,,,,,0.019444444,-0.299074074,0,0,0,,,,,,,PIMPLE,LB,m,m,./images/PIMPLELB.png,,,,,,,,,,,,,,,,,,,,,m,1,3.3203,,,,,,,,0,0,0,71,1,
,,,,,,,,,,,,,,,,,613e59f68312d2083c8b193d,42,2022-02-12_16h08.01.485,lexical_decision_task_DD,2021.2.3,Win32,59.98440405,,,,,,,,,,,0.453,1,,,,,,,,,,,,,,,,,,,,,,,,0.019444444,-0.299074074,0,0,0,,,,,,,GRANNY,LB,z,m,./images/GRANNYLB.png,,,,,,,,,,,,,,,,,,,,,z,1,0.453,,,,,,,,0,1,1,104,1,
,,,,,,,,,,,,,,,,,613e59f68312d2083c8b193d,42,2022-02-12_16h08.01.485,lexical_decision_task_DD,2021.2.3,Win32,59.98440405,,,,,,,,,,,0.2896,1,,,,,,,,,,,,,,,,,,,,,,,,0.019444444,-0.299074074,0,0,0,,,,,,,CLIFF,LB,z,m,./images/CLIFFLB.png,,,,,,,,,,,,,,,,,,,,,z,1,0.2896,,,,,,,,0,2,2,92,1,
,,,,,,,,,,,,,,,,,613e59f68312d2083c8b193d,42,2022-02-12_16h08.01.485,lexical_decision_task_DD,2021.2.3,Win32,59.98440405,,,,,,,,,,,0.5305,0,,,,,,,,,,,,,,,,,,,,,,,,0.019444444,-0.299074074,0,0,0,,,,,,,POKER,HB,z,m,./images/POKERHB.png,,,,,,,,,,,,,,,,,,,,,m,0,0.5305,,,,,,,,0,3,3,151,1,
,,,,,,,,,,,,,,,,,613e59f68312d2083c8b193d,42,2022-02-12_16h08.01.485,lexical_decision_task_DD,2021.2.3,Win32,59.98440405,,,,,,,,,,,0.7142,1,,,,,,,,,,,,,,,,,,,,,,,,0.019444444,-0.299074074,0,0,0,,,,,,,CURRY,C,z,m,./images/CURRY.png,,,,,,,,,,,,,,,,,,,,,z,1,0.7142,,,,,,,,0,4,4,144,1,
,,,,,,,,,,,,,,,,,613e59f68312d2083c8b193d,42,2022-02-12_16h08.01.485,lexical_decision_task_DD,2021.2.3,Win32,59.98440405,,,,,,,,,,,1.3717,1,,,,,,,,,,,,,,,,,,,,,,,,0.019444444,-0.299074074,0,0,0,,,,,,,MIRROR,C,m,m,./images/MIRROR.png,,,,,,,,,,,,,,,,,,,,,m,1,1.3717,,,,,,,,0,5,5,63,1,
,,,,,,,,,,,,,,,,,613e59f68312d2083c8b193d,42,2022-02-12_16h08.01.485,lexical_decision_task_DD,2021.2.3,Win32,59.98440405,,,,,,,,,,,0.7212,0,,,,,,,,,,,,,,,,,,,,,,,,0.019444444,-0.299074074,0,0,0,,,,,,,BRIDE,HB,z,m,./images/BRIDEHB.png,,,,,,,,,,,,,,,,,,,,,m,0,0.7212,,,,,,,,0,6,6,148,1,
,,,,,,,,,,,,,,,,,613e59f68312d2083c8b193d,42,2022-02-12_16h08.01.485,lexical_decision_task_DD,2021.2.3,Win32,59.98440405,,,,,,,,,,,0.272,1,,,,,,,,,,,,,,,,,,,,,,,,0.019444444,-0.299074074,0,0,0,,,,,,,BIRTH,HB,m,m,./images/BIRTHHB.png,,,,,,,,,,,,,,,,,,,,,m,1,0.272,,,,,,,,0,7,7,37,1,
,,,,,,,,,,,,,,,,,613e59f68312d2083c8b193d,42,2022-02-12_16h08.01.485,lexical_decision_task_DD,2021.2.3,Win32,59.98440405,,,,,,,,,,,0.1801,1,,,,,,,,,,,,,,,,,,,,,,,,0.019444444,-0.299074074,0,0,0,,,,,,,CRADLE,LB,m,m,./images/CRADLELB.png,,,,,,,,,,,,,,,,,,,,,m,1,0.1801,,,,,,,,0,8,8,20,1,
,,,,,,,,,,,,,,,,,613e59f68312d2083c8b193d,42,2022-02-12_16h08.01.485,lexical_decision_task_DD,2021.2.3,Win32,59.98440405,,,,,,,,,,,0.1388,0,,,,,,,,,,,,,,,,,,,,,,,,0.019444444,-0.299074074,0,0,0,,,,,,,FLASK,C,z,m,./images/FLASK.png,,,,,,,,,,,,,,,,,,,,,m,0,0.1388,,,,,,,,0,9,9,156,1,
,,,,,,,,,,,,,,,,,613e59f68312d2083c8b193d,42,2022-02-12_16h08.01.485,lexical_decision_task_DD,2021.2.3,Win32,59.98440405,,,,,,,,,,,0.1305,0,,,,,,,,,,,,,,,,,,,,,,,,0.019444444,-0.299074074,0,0,0,,,,,,,TIGER,HB,z,m,./images/TIGERHB.png,,,,,,,,,,,,,,,,,,,,,m,0,0.1305,,,,,,,,0,10,10,121,1,
,,,,,,,,,,,,,,,,,613e59f68312d2083c8b193d,42,2022-02-12_16h08.01.485,lexical_decision_task_DD,2021.2.3,Win32,59.98440405,,,,,,,,,,,0.3169,0,,,,,,,,,,,,,,,,,,,,,,,,0.019444444,-0.299074074,0,0,0,,,,,,,CASINO,HB,z,m,./images/CASINOHB.png,,,,,,,,,,,,,,,,,,,,,m,0,0.3169,,,,,,,,0,11,11,112,1,
,,,,,,,,,,,,,,,,,613e59f68312d2083c8b193d,42,2022-02-12_16h08.01.485,lexical_decision_task_DD,2021.2.3,Win32,59.98440405,,,,,,,,,,,0.3006,0,,,,,,,,,,,,,,,,,,,,,,,,0.019444444,-0.299074074,0,0,0,,,,,,,MEDAL,LB,z,m,./images/MEDALLB.png,,,,,,,,,,,,,,,,,,,,,m,0,0.3006,,,,,,,,0,12,12,95,1,
,,,,,,,,,,,,,,,,,613e59f68312d2083c8b193d,42,2022-02-12_16h08.01.485,lexical_decision_task_DD,2021.2.3,Win32,59.98440405,,,,,,,,,,,1.5186,0,,,,,,,,,,,,,,,,,,,,,,,,0.019444444,-0.299074074,0,0,0,,,,,,,RULER,HB,z,m,./images/RULERHB.png,,,,,,,,,,,,,,,,,,,,,m,0,1.5186,,,,,,,,0,13,13,163,1,
,,,,,,,,,,,,,,,,,613e59f68312d2083c8b193d,42,2022-02-12_16h08.01.485,lexical_decision_task_DD,2021.2.3,Win32,59.98440405,,,,,,,,,,,0.5258,1,,,,,,,,,,,,,,,,,,,,,,,,0.019444444,-0.299074074,0,0,0,,,,,,,FARMER,LB,m,m,./images/FARMERLB.png,,,,,,,,,,,,,,,,,,,,,m,1,0.5258,,,,,,,,0,14,14,65,1,
,,,,,,,,,,,,,,,,,613e59f68312d2083c8b193d,42,2022-02-12_16h08.01.485,lexical_decision_task_DD,2021.2.3,Win32,59.98440405,,,,,,,,,,,0.2611,0,,,,,,,,,,,,,,,,,,,,,,,,0.019444444,-0.299074074,0,0,0,,,,,,,CLOUD,LB,z,m,./images/CLOUDLB.png,,,,,,,,,,,,,,,,,,,,,m,0,0.2611,,,,,,,,0,15,15,110,1,
,,,,,,,,,,,,,,,,,613e59f68312d2083c8b193d,42,2022-02-12_16h08.01.485,lexical_decision_task_DD,2021.2.3,Win32,59.98440405,,,,,,,,,,,0.2509,1,,,,,,,,,,,,,,,,,,,,,,,,0.019444444,-0.299074074,0,0,0,,,,,,,BURIAL,LB,m,m,./images/BURIALLB.png,,,,,,,,,,,,,,,,,,,,,m,1,0.2509,,,,,,,,0,16,16,59,1,
,,,,,,,,,,,,,,,,,613e59f68312d2083c8b193d,42,2022-02-12_16h08.01.485,lexical_decision_task_DD,2021.2.3,Win32,59.98440405,,,,,,,,,,,0.2682,1,,,,,,,,,,,,,,,,,,,,,,,,0.019444444,-0.299074074,0,0,0,,,,,,,MOTOR,HB,m,m,./images/MOTORHB.png,,,,,,,,,,,,,,,,,,,,,m,1,0.2682,,,,,,,,0,17,17,13,1,
,,,,,,,,,,,,,,,,,613e59f68312d2083c8b193d,42,2022-02-12_16h08.01.485,lexical_decision_task_DD,2021.2.3,Win32,59.98440405,,,,,,,,,,,0.4621,1,,,,,,,,,,,,,,,,,,,,,,,,0.019444444,-0.299074074,0,0,0,,,,,,,CANYON,HB,m,m,./images/CANYONHB.png,,,,,,,,,,,,,,,,,,,,,m,1,0.4621,,,,,,,,0,18,18,34,1,
,,,,,,,,,,,,,,,,,613e59f68312d2083c8b193d,42,2022-02-12_16h08.01.485,lexical_decision_task_DD,2021.2.3,Win32,59.98440405,,,,,,,,,,,0.2515,1,,,,,,,,,,,,,,,,,,,,,,,,0.019444444,-0.299074074,0,0,0,,,,,,,PEARL,HB,m,m,./images/PEARLHB.png,,,,,,,,,,,,,,,,,,,,,m,1,0.2515,,,,,,,,0,19,19,46,1,
,,,,,,,,,,,,,,,,,613e59f68312d2083c8b193d,42,2022-02-12_16h08.01.485,lexical_decision_task_DD,2021.2.3,Win32,59.98440405,,,,,,,,,,,0.1395,1,,,,,,,,,,,,,,,,,,,,,,,,0.019444444,-0.299074074,0,0,0,,,,,,,URINE,HB,m,m,./images/URINEHB.png,,,,,,,,,,,,,,,,,,,,,m,1,0.1395,,,,,,,,0,20,20,70,1,
,,,,,,,,,,,,,,,,,613e59f68312d2083c8b193d,42,2022-02-12_16h08.01.485,lexical_decision_task_DD,2021.2.3,Win32,59.98440405,,,,,,,,,,,0.1,1,,,,,,,,,,,,,,,,,,,,,,,,0.019444444,-0.299074074,0,0,0,,,,,,,TWINS,C,m,m,./images/TWINS.png,,,,,,,,,,,,,,,,,,,,,m,1,0.1,,,,,,,,0,21,21,60,1,
,,,,,,,,,,,,,,,,,613e59f68312d2083c8b193d,42,2022-02-12_16h08.01.485,lexical_decision_task_DD,2021.2.3,Win32,59.98440405,,,,,,,,,,,0.0617,1,,,,,,,,,,,,,,,,,,,,,,,,0.019444444,-0.299074074,0,0,0,,,,,,,BEARD,LB,m,m,./images/BEARDLB.png,,,,,,,,,,,,,,,,,,,,,m,1,0.0617,,,,,,,,0,22,22,2,1,
,,,,,,,,,,,,,,,,,613e59f68312d2083c8b193d,42,2022-02-12_16h08.01.485,lexical_decision_task_DD,2021.2.3,Win32,59.98440405,,,,,,,,,,,0.0886,1,,,,,,,,,,,,,,,,,,,,,,,,0.019444444,-0.299074074,0,0,0,,,,,,,MAGGOT,C,m,m,./images/MAGGOT.png,,,,,,,,,,,,,,,,,,,,,m,1,0.0886,,,,,,,,0,23,23,33,1,
,,,,,,,,,,,,,,,,,613e59f68312d2083c8b193d,42,2022-02-12_16h08.01.485,lexical_decision_task_DD,2021.2.3,Win32,59.98440405,,,,,,,,,,,0.0193,0,,,,,,,,,,,,,,,,,,,,,,,,0.019444444,-0.299074074,0,0,0,,,,,,,BROOM,C,z,m,./images/BROOM.png,,,,,,,,,,,,,,,,,,,,,m,0,0.0193,,,,,,,,0,24,24,162,1,
,,,,,,,,,,,,,,,,,613e59f68312d2083c8b193d,42,2022-02-12_16h08.01.485,lexical_decision_task_DD,2021.2.3,Win32,59.98440405,,,,,,,,,,,0.05,0,,,,,,,,,,,,,,,,,,,,,,,,0.019444444,-0.299074074,0,0,0,,,,,,,WAGON,HB,z,m,./images/WAGONHB.png,,,,,,,,,,,,,,,,,,,,,m,0,0.05,,,,,,,,0,25,25,91,1,
,,,,,,,,,,,,,,,,,613e59f68312d2083c8b193d,42,2022-02-12_16h08.01.485,lexical_decision_task_DD,2021.2.3,Win32,59.98440405,,,,,,,,,,,0.4343,0,,,,,,,,,,,,,,,,,,,,,,,,0.019444444,-0.299074074,0,0,0,,,,,,,WALNUT,C,z,m,./images/WALNUT.png,,,,,,,,,,,,,,,,,,,,,m,0,0.4343,,,,,,,,0,26,26,84,1,
,,,,,,,,,,,,,,,,,613e59f68312d2083c8b193d,42,2022-02-12_16h08.01.485,lexical_decision_task_DD,2021.2.3,Win32,59.98440405,,,,,,,,,,,0.2792,0,,,,,,,,,,,,,,,,,,,,,,,,0.019444444,-0.299074074,0,0,0,,,,,,,SAUNA,C,z,m,./images/SAUNA.png,,,,,,,,,,,,,,,,,,,,,m,0,0.2792,,,,,,,,0,27,27,117,1,
,,,,,,,,,,,,,,,,,613e59f68312d2083c8b193d,42,2022-02-12_16h08.01.485,lexical_decision_task_DD,2021.2.3,Win32,59.98440405,,,,,,,,,,,0.5085,0,,,,,,,,,,,,,,,,,,,,,,,,0.019444444,-0.299074074,0,0,0,,,,,,,HAMMER,C,z,m,./images/HAMMER.png,,,,,,,,,,,,,,,,,,,,,m,0,0.5085,,,,,,,,0,28,28,159,1,
,,,,,,,,,,,,,,,,,613e59f68312d2083c8b193d,42,2022-02-12_16h08.01.485,lexical_decision_task_DD,2021.2.3,Win32,59.98440405,,,,,,,,,,,0.6111,1,,,,,,,,,,,,,,,,,,,,,,,,0.019444444,-0.299074074,0,0,0,,,,,,,TOMATO,C,m,m,./images/TOMATO.png,,,,,,,,,,,,,,,,,,,,,m,1,0.6111,,,,,,,,0,29,29,0,1,
,,,,,,,,,,,,,,,,,613e59f68312d2083c8b193d,42,2022-02-12_16h08.01.485,lexical_decision_task_DD,2021.2.3,Win32,59.98440405,,,,,,,,,,,1.1443,0,,,,,,,,,,,,,,,,,,,,,,,,0.019444444,-0.299074074,0,0,0,,,,,,,SLOPE,C,z,m,./images/SLOPE.png,,,,,,,,,,,,,,,,,,,,,m,0,1.1443,,,,,,,,0,30,30,114,1,
,,,,,,,,,,,,,,,,,613e59f68312d2083c8b193d,42,2022-02-12_16h08.01.485,lexical_decision_task_DD,2021.2.3,Win32,59.98440405,,,,,,,,,,,0.7601,1,,,,,,,,,,,,,,,,,,,,,,,,0.019444444,-0.299074074,0,0,0,,,,,,,BABOON,HB,m,m,./images/BABOONHB.png,,,,,,,,,,,,,,,,,,,,,m,1,0.7601,,,,,,,,0,31,31,58,1,
,,,,,,,,,,,,,,,,,613e59f68312d2083c8b193d,42,2022-02-12_16h08.01.485,lexical_decision_task_DD,2021.2.3,Win32,59.98440405,,,,,,,,,,,0.4372,1,,,,,,,,,,,,,,,,,,,,,,,,0.019444444,-0.299074074,0,0,0,,,,,,,DRUMS,HB,m,m,./images/DRUMSHB.png,,,,,,,,,,,,,,,,,,,,,m,1,0.4372,,,,,,,,0,32,32,49,1,
,,,,,,,,,,,,,,,,,613e59f68312d2083c8b193d,42,2022-02-12_16h08.01.485,lexical_decision_task_DD,2021.2.3,Win32,59.98440405,,,,,,,,,,,0.9478,1,,,,,,,,,,,,,,,,,,,,,,,,0.019444444,-0.299074074,0,0,0,,,,,,,MAMMAL,LB,z,m,./images/MAMMALLB.png,,,,,,,,,,,,,,,,,,,,,z,1,0.9478,,,,,,,,0,33,33,146,1,
,,,,,,,,,,,,,,,,,613e59f68312d2083c8b193d,42,2022-02-12_16h08.01.485,lexical_decision_task_DD,2021.2.3,Win32,59.98440405,,,,,,,,,,,0.7126,0,,,,,,,,,,,,,,,,,,,,,,,,0.019444444,-0.299074074,0,0,0,,,,,,,JUMPER,LB,z,m,./images/JUMPERLB.png,,,,,,,,,,,,,,,,,,,,,m,0,0.7126,,,,,,,,0,34,34,158,1,
,,,,,,,,,,,,,,,,,613e59f68312d2083c8b193d,42,2022-02-12_16h08.01.485,lexical_decision_task_DD,2021.2.3,Win32,59.98440405,,,,,,,,,,,0.2022,0,,,,,,,,,,,,,,,,,,,,,,,,0.019444444,-0.299074074,0,0,0,,,,,,,CANOE,HB,z,m,./images/CANOEHB.png,,,,,,,,,,,,,,,,,,,,,m,0,0.2022,,,,,,,,0,35,35,142,1,
,,,,,,,,,,,,,,,,,613e59f68312d2083c8b193d,42,2022-02-12_16h08.01.485,lexical_decision_task_DD,2021.2.3,Win32,59.98440405,,,,,,,,,,,0.1912,0,,,,,,,,,,,,,,,,,,,,,,,,0.019444444,-0.299074074,0,0,0,,,,,,,WHEEL,LB,z,m,./images/WHEELLB.png,,,,,,,,,,,,,,,,,,,,,m,0,0.1912,,,,,,,,0,36,36,161,1,
,,,,,,,,,,,,,,,,,613e59f68312d2083c8b193d,42,2022-02-12_16h08.01.485,lexical_decision_task_DD,2021.2.3,Win32,59.98440405,,,,,,,,,,,0.1978,1,,,,,,,,,,,,,,,,,,,,,,,,0.019444444,-0.299074074,0,0,0,,,,,,,COUCH,LB,m,m,./images/COUCHLB.png,,,,,,,,,,,,,,,,,,,,,m,1,0.1978,,,,,,,,0,37,37,77,1,
,,,,,,,,,,,,,,,,,613e59f68312d2083c8b193d,42,2022-02-12_16h08.01.485,lexical_decision_task_DD,2021.2.3,Win32,59.98440405,,,,,,,,,,,0.2345,1,,,,,,,,,,,,,,,,,,,,,,,,0.019444444,-0.299074074,0,0,0,,,,,,,SCREW,C,m,m,./images/SCREW.png,,,,,,,,,,,,,,,,,,,,,m,1,0.2345,,,,,,,,0,38,38,24,1,
,,,,,,,,,,,,,,,,,613e59f68312d2083c8b193d,42,2022-02-12_16h08.01.485,lexical_decision_task_DD,2021.2.3,Win32,59.98440405,,,,,,,,,,,0.2701,0,,,,,,,,,,,,,,,,,,,,,,,,0.019444444,-0.299074074,0,0,0,,,,,,,LLAMA,LB,z,m,./images/LLAMALB.png,,,,,,,,,,,,,,,,,,,,,m,0,0.2701,,,,,,,,0,39,39,119,1,
,,,,,,,,,,,,,,,,,613e59f68312d2083c8b193d,42,2022-02-12_16h08.01.485,lexical_decision_task_DD,2021.2.3,Win32,59.98440405,,,,,,,,,,,0.2673,0,,,,,,,,,,,,,,,,,,,,,,,,0.019444444,-0.299074074,0,0,0,,,,,,,PEBBLE,HB,z,m,./images/PEBBLEHB.png,,,,,,,,,,,,,,,,,,,,,m,0,0.2673,,,,,,,,0,40,40,166,1,
,,,,,,,,,,,,,,,,,613e59f68312d2083c8b193d,42,2022-02-12_16h08.01.485,lexical_decision_task_DD,2021.2.3,Win32,59.98440405,,,,,,,,,,,0.1169,0,,,,,,,,,,,,,,,,,,,,,,,,0.080555556,-0.406481481,1,0,0,,,,,,,GRAPE,HB,z,m,./images/GRAPEHB.png,,,,,,,,,,,,,,,,,,,,,m,0,0.1169,,,,,,,,0,41,41,100,1,break_done_button
,,,,,,,,,,,,,,,,,613e59f68312d2083c8b193d,42,2022-02-12_16h08.01.485,lexical_decision_task_DD,2021.2.3,Win32,59.98440405,,,,,,,,,,,1.1198,0,,,,,,,,,,,,,,,,,,,,,,,,0.080555556,-0.406481481,0,0,0,,,,,,,DESERT,HB,z,m,./images/DESERTHB.png,,,,,,,,,,,,,,,,,,,,,m,0,1.1198,,,,,,,,0,42,42,136,1,
,,,,,,,,,,,,,,,,,613e59f68312d2083c8b193d,42,2022-02-12_16h08.01.485,lexical_decision_task_DD,2021.2.3,Win32,59.98440405,,,,,,,,,,,0.9439,0,,,,,,,,,,,,,,,,,,,,,,,,0.080555556,-0.406481481,0,0,0,,,,,,,BUNNY,HB,z,m,./images/BUNNYHB.png,,,,,,,,,,,,,,,,,,,,,m,0,0.9439,,,,,,,,0,43,43,97,1,
,,,,,,,,,,,,,,,,,613e59f68312d2083c8b193d,42,2022-02-12_16h08.01.485,lexical_decision_task_DD,2021.2.3,Win32,59.98440405,,,,,,,,,,,0.2784,0,,,,,,,,,,,,,,,,,,,,,,,,0.080555556,-0.406481481,0,0,0,,,,,,,DANCER,C,z,m,./images/DANCER.png,,,,,,,,,,,,,,,,,,,,,m,0,0.2784,,,,,,,,0,44,44,105,1,
,,,,,,,,,,,,,,,,,613e59f68312d2083c8b193d,42,2022-02-12_16h08.01.485,lexical_decision_task_DD,2021.2.3,Win32,59.98440405,,,,,,,,,,,0.1679,1,,,,,,,,,,,,,,,,,,,,,,,,0.080555556,-0.406481481,0,0,0,,,,,,,FALCON,HB,m,m,./images/FALCONHB.png,,,,,,,,,,,,,,,,,,,,,m,1,0.1679,,,,,,,,0,45,45,28,1,
,,,,,,,,,,,,,,,,,613e59f68312d2083c8b193d,42,2022-02-12_16h08.01.485,lexical_decision_task_DD,2021.2.3,Win32,59.98440405,,,,,,,,,,,0.0507,1,,,,,,,,,,,,,,,,,,,,,,,,0.080555556,-0.406481481,0,0,0,,,,,,,PACKET,LB,m,m,./images/PACKETLB.png,,,,,,,,,,,,,,,,,,,,,m,1,0.0507,,,,,,,,0,46,46,56,1,
,,,,,,,,,,,,,,,,,613e59f68312d2083c8b193d,42,2022-02-12_16h08.01.485,lexical_decision_task_DD,2021.2.3,Win32,59.98440405,,,,,,,,,,,0.3666,1,,,,,,,,,,,,,,,,,,,,,,,,0.080555556,-0.406481481,0,0,0,,,,,,,SHELF,C,m,m,./images/SHELF.png,,,,,,,,,,,,,,,,,,,,,m,1,0.3666,,,,,,,,0,47,47,39,1,
,,,,,,,,,,,,,,,,,613e59f68312d2083c8b193d,42,2022-02-12_16h08.01.485,lexical_decision_task_DD,2021.2.3,Win32,59.98440405,,,,,,,,,,,0.41,0,,,,,,,,,,,,,,,,,,,,,,,,0.080555556,-0.406481481,0,0,0,,,,,,,PARCEL,C,z,m,./images/PARCEL.png,,,,,,,,,,,,,,,,,,,,,m,0,0.41,,,,,,,,0,48,48,102,1,
,,,,,,,,,,,,,,,,,613e59f68312d2083c8b193d,42,2022-02-12_16h08.01.485,lexical_decision_task_DD,2021.2.3,Win32,59.98440405,,,,,,,,,,,0.4234,1,,,,,,,,,,,,,,,,,,,,,,,,0.080555556,-0.406481481,0,0,0,,,,,,,CRUST,HB,m,m,./images/CRUSTHB.png,,,,,,,,,,,,,,,,,,,,,m,1,0.4234,,,,,,,,0,49,49,79,1,
,,,,,,,,,,,,,,,,,613e59f68312d2083c8b193d,42,2022-02-12_16h08.01.485,lexical_decision_task_DD,2021.2.3,Win32,59.98440405,,,,,,,,,,,0.5019,1,,,,,,,,,,,,,,,,,,,,,,,,0.080555556,-0.406481481,0,0,0,,,,,,,PEACH,LB,m,m,./images/PEACHLB.png,,,,,,,,,,,,,,,,,,,,,m,1,0.5019,,,,,,,,0,50,50,35,1,
,,,,,,,,,,,,,,,,,613e59f68312d2083c8b193d,42,2022-02-12_16h08.01.485,lexical_decision_task_DD,2021.2.3,Win32,59.98440405,,,,,,,,,,,0.4121,1,,,,,,,,,,,,,,,,,,,,,,,,0.080555556,-0.406481481,0,0,0,,,,,,,CRUMB,LB,m,m,./images/CRUMBLB.png,,,,,,,,,,,,,,,,,,,,,m,1,0.4121,,,,,,,,0,51,51,29,1,
,,,,,,,,,,,,,,,,,613e59f68312d2083c8b193d,42,2022-02-12_16h08.01.485,lexical_decision_task_DD,2021.2.3,Win32,59.98440405,,,,,,,,,,,0.6675,1,,,,,,,,,,,,,,,,,,,,,,,,0.080555556,-0.406481481,0,0,0,,,,,,,TULIP,LB,m,m,./images/TULIPLB.png,,,,,,,,,,,,,,,,,,,,,m,1,0.6675,,,,,,,,0,52,52,8,1,
,,,,,,,,,,,,,,,,,613e59f68312d2083c8b193d,42,2022-02-12_16h08.01.485,lexical_decision_task_DD,2021.2.3,Win32,59.98440405,,,,,,,,,,,0.4773,0,,,,,,,,,,,,,,,,,,,,,,,,0.080555556,-0.406481481,0,0,0,,,,,,,STOVE,LB,z,m,./images/STOVELB.png,,,,,,,,,,,,,,,,,,,,,m,0,0.4773,,,,,,,,0,53,53,86,1,
,,,,,,,,,,,,,,,,,613e59f68312d2083c8b193d,42,2022-02-12_16h08.01.485,lexical_decision_task_DD,2021.2.3,Win32,59.98440405,,,,,,,,,,,0.998,1,,,,,,,,,,,,,,,,,,,,,,,,0.080555556,-0.406481481,0,0,0,,,,,,,GRAIN,C,m,m,./images/GRAIN.png,,,,,,,,,,,,,,,,,,,,,m,1,0.998,,,,,,,,0,54,54,75,1,
,,,,,,,,,,,,,,,,,613e59f68312d2083c8b193d,42,2022-02-12_16h08.01.485,lexical_decision_task_DD,2021.2.3,Win32,59.98440405,,,,,,,,,,,0.7016,1,,,,,,,,,,,,,,,,,,,,,,,,0.080555556,-0.406481481,0,0,0,,,,,,,BERRY,LB,m,m,./images/BERRYLB.png,,,,,,,,,,,,,,,,,,,,,m,1,0.7016,,,,,,,,0,55,55,47,1,
,,,,,,,,,,,,,,,,,613e59f68312d2083c8b193d,42,2022-02-12_16h08.01.485,lexical_decision_task_DD,2021.2.3,Win32,59.98440405,,,,,,,,,,,0.4271,1,,,,,,,,,,,,,,,,,,,,,,,,0.080555556,-0.406481481,0,0,0,,,,,,,SNACK,HB,m,m,./images/SNACKHB.png,,,,,,,,,,,,,,,,,,,,,m,1,0.4271,,,,,,,,0,56,56,73,1,
,,,,,,,,,,,,,,,,,613e59f68312d2083c8b193d,42,2022-02-12_16h08.01.485,lexical_decision_task_DD,2021.2.3,Win32,59.98440405,,,,,,,,,,,0.3761,0,,,,,,,,,,,,,,,,,,,,,,,,0.080555556,-0.406481481,0,0,0,,,,,,,ARTIST,HB,z,m,./images/ARTISTHB.png,,,,,,,,,,,,,,,,,,,,,m,0,0.3761,,,,,,,,0,57,57,145,1,
,,,,,,,,,,,,,,,,,613e59f68312d2083c8b193d,42,2022-02-12_16h08.01.485,lexical_decision_task_DD,2021.2.3,Win32,59.98440405,,,,,,,,,,,0.3265,0,,,,,,,,,,,,,,,,,,,,,,,,0.080555556,-0.406481481,0,0,0,,,,,,,BASKET,LB,z,m,./images/BASKETLB.png,,,,,,,,,,,,,,,,,,,,,m,0,0.3265,,,,,,,,0,58,58,128,1,
,,,,,,,,,,,,,,,,,613e59f68312d2083c8b193d,42,2022-02-12_16h08.01.485,lexical_decision_task_DD,2021.2.3,Win32,59.98440405,,,,,,,,,,,0.3429,0,,,,,,,,,,,,,,,,,,,,,,,,0.080555556,-0.406481481,0,0,0,,,,,,,BAMBOO,LB,z,m,./images/BAMBOOLB.png,,,,,,,,,,,,,,,,,,,,,m,0,0.3429,,,,,,,,0,59,59,89,1,
,,,,,,,,,,,,,,,,,613e59f68312d2083c8b193d,42,2022-02-12_16h08.01.485,lexical_decision_task_DD,2021.2.3,Win32,59.98440405,,,,,,,,,,,0.3749,0,,,,,,,,,,,,,,,,,,,,,,,,0.080555556,-0.406481481,0,0,0,,,,,,,GLOVE,HB,z,m,./images/GLOVEHB.png,,,,,,,,,,,,,,,,,,,,,m,0,0.3749,,,,,,,,0,60,60,157,1,
,,,,,,,,,,,,,,,,,613e59f68312d2083c8b193d,42,2022-02-12_16h08.01.485,lexical_decision_task_DD,2021.2.3,Win32,59.98440405,,,,,,,,,,,0.3414,0,,,,,,,,,,,,,,,,,,,,,,,,0.080555556,-0.406481481,0,0,0,,,,,,,COLLAR,C,z,m,./images/COLLAR.png,,,,,,,,,,,,,,,,,,,,,m,0,0.3414,,,,,,,,0,61,61,99,1,
,,,,,,,,,,,,,,,,,613e59f68312d2083c8b193d,42,2022-02-12_16h08.01.485,lexical_decision_task_DD,2021.2.3,Win32,59.98440405,,,,,,,,,,,0.4174,0,,,,,,,,,,,,,,,,,,,,,,,,0.080555556,-0.406481481,0,0,0,,,,,,,SAUCE,C,z,m,./images/SAUCE.png,,,,,,,,,,,,,,,,,,,,,m,0,0.4174,,,,,,,,0,62,62,135,1,
,,,,,,,,,,,,,,,,,613e59f68312d2083c8b193d,42,2022-02-12_16h08.01.485,lexical_decision_task_DD,2021.2.3,Win32,59.98440405,,,,,,,,,,,0.4498,1,,,,,,,,,,,,,,,,,,,,,,,,0.080555556,-0.406481481,0,0,0,,,,,,,MOOSE,C,m,m,./images/MOOSE.png,,,,,,,,,,,,,,,,,,,,,m,1,0.4498,,,,,,,,0,63,63,57,1,
,,,,,,,,,,,,,,,,,613e59f68312d2083c8b193d,42,2022-02-12_16h08.01.485,lexical_decision_task_DD,2021.2.3,Win32,59.98440405,,,,,,,,,,,0.4007,1,,,,,,,,,,,,,,,,,,,,,,,,0.080555556,-0.406481481,0,0,0,,,,,,,STRING,LB,m,m,./images/STRINGLB.png,,,,,,,,,,,,,,,,,,,,,m,1,0.4007,,,,,,,,0,64,64,41,1,
,,,,,,,,,,,,,,,,,613e59f68312d2083c8b193d,42,2022-02-12_16h08.01.485,lexical_decision_task_DD,2021.2.3,Win32,59.98440405,,,,,,,,,,,0.3473,0,,,,,,,,,,,,,,,,,,,,,,,,0.080555556,-0.406481481,0,0,0,,,,,,,DIVER,C,z,m,./images/DIVER.png,,,,,,,,,,,,,,,,,,,,,m,0,0.3473,,,,,,,,0,65,65,93,1,
,,,,,,,,,,,,,,,,,613e59f68312d2083c8b193d,42,2022-02-12_16h08.01.485,lexical_decision_task_DD,2021.2.3,Win32,59.98440405,,,,,,,,,,,0.2524,1,,,,,,,,,,,,,,,,,,,,,,,,0.080555556,-0.406481481,0,0,0,,,,,,,FOLDER,C,m,m,./images/FOLDER.png,,,,,,,,,,,,,,,,,,,,,m,1,0.2524,,,,,,,,0,66,66,42,1,
,,,,,,,,,,,,,,,,,613e59f68312d2083c8b193d,42,2022-02-12_16h08.01.485,lexical_decision_task_DD,2021.2.3,Win32,59.98440405,,,,,,,,,,,0.1911,1,,,,,,,,,,,,,,,,,,,,,,,,0.080555556,-0.406481481,0,0,0,,,,,,,SKIING,LB,m,m,./images/SKIINGLB.png,,,,,,,,,,,,,,,,,,,,,m,1,0.1911,,,,,,,,0,67,67,17,1,
,,,,,,,,,,,,,,,,,613e59f68312d2083c8b193d,42,2022-02-12_16h08.01.485,lexical_decision_task_DD,2021.2.3,Win32,59.98440405,,,,,,,,,,,0.7081,1,,,,,,,,,,,,,,,,,,,,,,,,0.080555556,-0.406481481,0,0,0,,,,,,,PLANK,HB,m,m,./images/PLANKHB.png,,,,,,,,,,,,,,,,,,,,,m,1,0.7081,,,,,,,,0,68,68,1,1,
,,,,,,,,,,,,,,,,,613e59f68312d2083c8b193d,42,2022-02-12_16h08.01.485,lexical_decision_task_DD,2021.2.3,Win32,59.98440405,,,,,,,,,,,0.4517,1,,,,,,,,,,,,,,,,,,,,,,,,0.080555556,-0.406481481,0,0,0,,,,,,,NOOSE,C,m,m,./images/NOOSE.png,,,,,,,,,,,,,,,,,,,,,m,1,0.4517,,,,,,,,0,69,69,72,1,
,,,,,,,,,,,,,,,,,613e59f68312d2083c8b193d,42,2022-02-12_16h08.01.485,lexical_decision_task_DD,2021.2.3,Win32,59.98440405,,,,,,,,,,,0.4174,0,,,,,,,,,,,,,,,,,,,,,,,,0.080555556,-0.406481481,0,0,0,,,,,,,FENCE,LB,z,m,./images/FENCELB.png,,,,,,,,,,,,,,,,,,,,,m,0,0.4174,,,,,,,,0,70,70,98,1,
,,,,,,,,,,,,,,,,,613e59f68312d2083c8b193d,42,2022-02-12_16h08.01.485,lexical_decision_task_DD,2021.2.3,Win32,59.98440405,,,,,,,,,,,0.685,0,,,,,,,,,,,,,,,,,,,,,,,,0.080555556,-0.406481481,0,0,0,,,,,,,CHALK,HB,z,m,./images/CHALKHB.png,,,,,,,,,,,,,,,,,,,,,m,0,0.685,,,,,,,,0,71,71,109,1,
,,,,,,,,,,,,,,,,,613e59f68312d2083c8b193d,42,2022-02-12_16h08.01.485,lexical_decision_task_DD,2021.2.3,Win32,59.98440405,,,,,,,,,,,0.3672,0,,,,,,,,,,,,,,,,,,,,,,,,0.080555556,-0.406481481,0,0,0,,,,,,,BUTTER,C,z,m,./images/BUTTER.png,,,,,,,,,,,,,,,,,,,,,m,0,0.3672,,,,,,,,0,72,72,111,1,
,,,,,,,,,,,,,,,,,613e59f68312d2083c8b193d,42,2022-02-12_16h08.01.485,lexical_decision_task_DD,2021.2.3,Win32,59.98440405,,,,,,,,,,,0.4774,0,,,,,,,,,,,,,,,,,,,,,,,,0.080555556,-0.406481481,0,0,0,,,,,,,MIDGET,HB,z,m,./images/MIDGETHB.png,,,,,,,,,,,,,,,,,,,,,m,0,0.4774,,,,,,,,0,73,73,160,1,
,,,,,,,,,,,,,,,,,613e59f68312d2083c8b193d,42,2022-02-12_16h08.01.485,lexical_decision_task_DD,2021.2.3,Win32,59.98440405,,,,,,,,,,,0.4076,0,,,,,,,,,,,,,,,,,,,,,,,,0.080555556,-0.406481481,0,0,0,,,,,,,CRATER,C,z,m,./images/CRATER.png,,,,,,,,,,,,,,,,,,,,,m,0,0.4076,,,,,,,,0,74,74,87,1,
,,,,,,,,,,,,,,,,,613e59f68312d2083c8b193d,42,2022-02-12_16h08.01.485,lexical_decision_task_DD,2021.2.3,Win32,59.98440405,,,,,,,,,,,0.5504,1,,,,,,,,,,,,,,,,,,,,,,,,0.080555556,-0.406481481,0,0,0,,,,,,,WRIST,HB,m,m,./images/WRISTHB.png,,,,,,,,,,,,,,,,,,,,,m,1,0.5504,,,,,,,,0,75,75,25,1,
,,,,,,,,,,,,,,,,,613e59f68312d2083c8b193d,42,2022-02-12_16h08.01.485,lexical_decision_task_DD,2021.2.3,Win32,59.98440405,,,,,,,,,,,0.5718,1,,,,,,,,,,,,,,,,,,,,,,,,0.080555556,-0.406481481,0,0,0,,,,,,,STEAK,HB,z,m,./images/STEAKHB.png,,,,,,,,,,,,,,,,,,,,,z,1,0.5718,,,,,,,,0,76,76,115,1,
,,,,,,,,,,,,,,,,,613e59f68312d2083c8b193d,42,2022-02-12_16h08.01.485,lexical_decision_task_DD,2021.2.3,Win32,59.98440405,,,,,,,,,,,0.9298,1,,,,,,,,,,,,,,,,,,,,,,,,0.080555556,-0.406481481,0,0,0,,,,,,,SQUARE,C,m,m,./images/SQUARE.png,,,,,,,,,,,,,,,,,,,,,m,1,0.9298,,,,,,,,0,77,77,6,1,
,,,,,,,,,,,,,,,,,613e59f68312d2083c8b193d,42,2022-02-12_16h08.01.485,lexical_decision_task_DD,2021.2.3,Win32,59.98440405,,,,,,,,,,,0.4838,0,,,,,,,,,,,,,,,,,,,,,,,,0.080555556,-0.406481481,0,0,0,,,,,,,BRUSH,LB,z,m,./images/BRUSHLB.png,,,,,,,,,,,,,,,,,,,,,m,0,0.4838,,,,,,,,0,78,78,143,1,
,,,,,,,,,,,,,,,,,613e59f68312d2083c8b193d,42,2022-02-12_16h08.01.485,lexical_decision_task_DD,2021.2.3,Win32,59.98440405,,,,,,,,,,,0.3402,0,,,,,,,,,,,,,,,,,,,,,,,,0.080555556,-0.406481481,0,0,0,,,,,,,PARADE,LB,z,m,./images/PARADELB.png,,,,,,,,,,,,,,,,,,,,,m,0,0.3402,,,,,,,,0,79,79,101,1,
,,,,,,,,,,,,,,,,,613e59f68312d2083c8b193d,42,2022-02-12_16h08.01.485,lexical_decision_task_DD,2021.2.3,Win32,59.98440405,,,,,,,,,,,0.2755,1,,,,,,,,,,,,,,,,,,,,,,,,0.080555556,-0.406481481,0,0,0,,,,,,,WALRUS,LB,m,m,./images/WALRUSLB.png,,,,,,,,,,,,,,,,,,,,,m,1,0.2755,,,,,,,,0,80,80,23,1,
,,,,,,,,,,,,,,,,,613e59f68312d2083c8b193d,42,2022-02-12_16h08.01.485,lexical_decision_task_DD,2021.2.3,Win32,59.98440405,,,,,,,,,,,0.2462,0,,,,,,,,,,,,,,,,,,,,,,,,0.080555556,-0.406481481,0,0,0,,,,,,,BAKER,C,z,m,./images/BAKER.png,,,,,,,,,,,,,,,,,,,,,m,0,0.2462,,,,,,,,0,81,81,147,1,
,,,,,,,,,,,,,,,,,613e59f68312d2083c8b193d,42,2022-02-12_16h08.01.485,lexical_decision_task_DD,2021.2.3,Win32,59.98440405,,,,,,,,,,,0.3464,1,,,,,,,,,,,,,,,,,,,,,,,,0.080555556,-0.406481481,0,0,0,,,,,,,POODLE,C,m,m,./images/POODLE.png,,,,,,,,,,,,,,,,,,,,,m,1,0.3464,,,,,,,,0,82,82,81,1,
,,,,,,,,,,,,,,,,,613e59f68312d2083c8b193d,42,2022-02-12_16h08.01.485,lexical_decision_task_DD,2021.2.3,Win32,59.98440405,,,,,,,,,,,0.106,0,,,,,,,,,,,,,,,,,,,,,,,,0.080555556,-0.406481481,0,0,0,space,,,,,,BISHOP,HB,z,m,./images/BISHOPHB.png,0.8047,,,,,,,,,,,,,,,,,,,,m,0,0.106,,,,,,,,0,83,83,133,1,
,,,,,,,,,,,,,,,,,613e59f68312d2083c8b193d,42,2022-02-12_16h08.01.485,lexical_decision_task_DD,2021.2.3,Win32,59.98440405,,,,,,,,,,,0.2741,0,,,,,,,,,,,,,,,,,,,,,,,,0.080555556,-0.406481481,0,0,0,,,,,,,HEATER,LB,z,m,./images/HEATERLB.png,,,,,,,,,,,,,,,,,,,,,m,0,0.2741,,,,,,,,0,84,84,140,1,
,,,,,,,,,,,,,,,,,613e59f68312d2083c8b193d,42,2022-02-12_16h08.01.485,lexical_decision_task_DD,2021.2.3,Win32,59.98440405,,,,,,,,,,,0.1346,0,,,,,,,,,,,,,,,,,,,,,,,,0.080555556,-0.406481481,0,0,0,,,,,,,WHISKY,LB,z,m,./images/WHISKYLB.png,,,,,,,,,,,,,,,,,,,,,m,0,0.1346,,,,,,,,0,85,85,167,1,
,,,,,,,,,,,,,,,,,613e59f68312d2083c8b193d,42,2022-02-12_16h08.01.485,lexical_decision_task_DD,2021.2.3,Win32,59.98440405,,,,,,,,,,,0.2192,0,,,,,,,,,,,,,,,,,,,,,,,,0.080555556,-0.406481481,0,0,0,,,,,,,HOCKEY,LB,z,m,./images/HOCKEYLB.png,,,,,,,,,,,,,,,,,,,,,m,0,0.2192,,,,,,,,0,86,86,116,1,
,,,,,,,,,,,,,,,,,613e59f68312d2083c8b193d,42,2022-02-12_16h08.01.485,lexical_decision_task_DD,2021.2.3,Win32,59.98440405,,,,,,,,,,,0.3511,0,,,,,,,,,,,,,,,,,,,,,,,,0.080555556,-0.406481481,0,0,0,,,,,,,DRILL,C,z,m,./images/DRILL.png,,,,,,,,,,,,,,,,,,,,,m,0,0.3511,,,,,,,,0,87,87,165,1,
,,,,,,,,,,,,,,,,,613e59f68312d2083c8b193d,42,2022-02-12_16h08.01.485,lexical_decision_task_DD,2021.2.3,Win32,59.98440405,,,,,,,,,,,0.5438,1,,,,,,,,,,,,,,,,,,,,,,,,0.080555556,-0.406481481,0,0,0,,,,,,,PAINT,HB,m,m,./images/PAINTHB.png,,,,,,,,,,,,,,,,,,,,,m,1,0.5438,,,,,,,,0,88,88,7,1,
,,,,,,,,,,,,,,,,,613e59f68312d2083c8b193d,42,2022-02-12_16h08.01.485,lexical_decision_task_DD,2021.2.3,Win32,59.98440405,,,,,,,,,,,0.2946,1,,,,,,,,,,,,,,,,,,,,,,,,0.080555556,-0.406481481,0,0,0,,,,,,,BARREL,LB,m,m,./images/BARRELLB.png,,,,,,,,,,,,,,,,,,,,,m,1,0.2946,,,,,,,,0,89,89,32,1,
,,,,,,,,,,,,,,,,,613e59f68312d2083c8b193d,42,2022-02-12_16h08.01.485,lexical_decision_task_DD,2021.2.3,Win32,59.98440405,,,,,,,,,,,0.3278,1,,,,,,,,,,,,,,,,,,,,,,,,0.080555556,-0.406481481,0,0,0,,,,,,,FINGER,C,m,m,./images/FINGER.png,,,,,,,,,,,,,,,,,,,,,m,1,0.3278,,,,,,,,0,90,90,3,1,
,,,,,,,,,,,,,,,,,613e59f68312d2083c8b193d,42,2022-02-12_16h08.01.485,lexical_decision_task_DD,2021.2.3,Win32,59.98440405,,,,,,,,,,,0.4095,0,,,,,,,,,,,,,,,,,,,,,,,,0.080555556,-0.406481481,0,0,0,,,,,,,LAGOON,LB,z,m,./images/LAGOONLB.png,,,,,,,,,,,,,,,,,,,,,m,0,0.4095,,,,,,,,0,91,91,131,1,
,,,,,,,,,,,,,,,,,613e59f68312d2083c8b193d,42,2022-02-12_16h08.01.485,lexical_decision_task_DD,2021.2.3,Win32,59.98440405,,,,,,,,,,,0.5024,1,,,,,,,,,,,,,,,,,,,,,,,,0.080555556,-0.406481481,0,0,0,,,,,,,JELLY,HB,m,m,./images/JELLYHB.png,,,,,,,,,,,,,,,,,,,,,m,1,0.5024,,,,,,,,0,92,92,64,1,
,,,,,,,,,,,,,,,,,613e59f68312d2083c8b193d,42,2022-02-12_16h08.01.485,lexical_decision_task_DD,2021.2.3,Win32,59.98440405,,,,,,,,,,,0.8169,0,,,,,,,,,,,,,,,,,,,,,,,,0.080555556,-0.406481481,0,0,0,,,,,,,STATUE,C,z,m,./images/STATUE.png,,,,,,,,,,,,,,,,,,,,,m,0,0.8169,,,,,,,,0,93,93,150,1,
,,,,,,,,,,,,,,,,,613e59f68312d2083c8b193d,42,2022-02-12_16h08.01.485,lexical_decision_task_DD,2021.2.3,Win32,59.98440405,,,,,,,,,,,0.334,0,,,,,,,,,,,,,,,,,,,,,,,,0.080555556,-0.406481481,0,0,0,,,,,,,MUMMY,HB,z,m,./images/MUMMYHB.png,,,,,,,,,,,,,,,,,,,,,m,0,0.334,,,,,,,,0,94,94,130,1,
,,,,,,,,,,,,,,,,,613e59f68312d2083c8b193d,42,2022-02-12_16h08.01.485,lexical_decision_task_DD,2021.2.3,Win32,59.98440405,,,,,,,,,,,0.3342,0,,,,,,,,,,,,,,,,,,,,,,,,0.080555556,-0.406481481,0,0,0,,,,,,,PLANET,LB,z,m,./images/PLANETLB.png,,,,,,,,,,,,,,,,,,,,,m,0,0.3342,,,,,,,,0,95,95,164,1,
,,,,,,,,,,,,,,,,,613e59f68312d2083c8b193d,42,2022-02-12_16h08.01.485,lexical_decision_task_DD,2021.2.3,Win32,59.98440405,,,,,,,,,,,0.2508,0,,,,,,,,,,,,,,,,,,,,,,,,0.080555556,-0.406481481,0,0,0,,,,,,,PILOT,LB,z,m,./images/PILOTLB.png,,,,,,,,,,,,,,,,,,,,,m,0,0.2508,,,,,,,,0,96,96,134,1,
,,,,,,,,,,,,,,,,,613e59f68312d2083c8b193d,42,2022-02-12_16h08.01.485,lexical_decision_task_DD,2021.2.3,Win32,59.98440405,,,,,,,,,,,0.335,1,,,,,,,,,,,,,,,,,,,,,,,,0.080555556,-0.406481481,0,0,0,,,,,,,CEMENT,LB,m,m,./images/CEMENTLB.png,,,,,,,,,,,,,,,,,,,,,m,1,0.335,,,,,,,,0,97,97,74,1,
,,,,,,,,,,,,,,,,,613e59f68312d2083c8b193d,42,2022-02-12_16h08.01.485,lexical_decision_task_DD,2021.2.3,Win32,59.98440405,,,,,,,,,,,0.336,1,,,,,,,,,,,,,,,,,,,,,,,,0.080555556,-0.406481481,0,0,0,,,,,,,COOKER,C,m,m,./images/COOKER.png,,,,,,,,,,,,,,,,,,,,,m,1,0.336,,,,,,,,0,98,98,69,1,
,,,,,,,,,,,,,,,,,613e59f68312d2083c8b193d,42,2022-02-12_16h08.01.485,lexical_decision_task_DD,2021.2.3,Win32,59.98440405,,,,,,,,,,,0.3023,1,,,,,,,,,,,,,,,,,,,,,,,,0.080555556,-0.406481481,0,0,0,,,,,,,DOUGH,HB,m,m,./images/DOUGHHB.png,,,,,,,,,,,,,,,,,,,,,m,1,0.3023,,,,,,,,0,99,99,19,1,
,,,,,,,,,,,,,,,,,613e59f68312d2083c8b193d,42,2022-02-12_16h08.01.485,lexical_decision_task_DD,2021.2.3,Win32,59.98440405,,,,,,,,,,,0.1279,1,,,,,,,,,,,,,,,,,,,,,,,,0.080555556,-0.406481481,0,0,0,,,,,,,STORM,C,m,m,./images/STORM.png,,,,,,,,,,,,,,,,,,,,,m,1,0.1279,,,,,,,,0,100,100,30,1,
,,,,,,,,,,,,,,,,,613e59f68312d2083c8b193d,42,2022-02-12_16h08.01.485,lexical_decision_task_DD,2021.2.3,Win32,59.98440405,,,,,,,,,,,0.3765,1,,,,,,,,,,,,,,,,,,,,,,,,0.080555556,-0.406481481,0,0,0,,,,,,,BANNER,HB,m,m,./images/BANNERHB.png,,,,,,,,,,,,,,,,,,,,,m,1,0.3765,,,,,,,,0,101,101,52,1,
,,,,,,,,,,,,,,,,,613e59f68312d2083c8b193d,42,2022-02-12_16h08.01.485,lexical_decision_task_DD,2021.2.3,Win32,59.98440405,,,,,,,,,,,0.3904,1,,,,,,,,,,,,,,,,,,,,,,,,0.080555556,-0.406481481,0,0,0,,,,,,,SWEAT,C,m,m,./images/SWEAT.png,,,,,,,,,,,,,,,,,,,,,m,1,0.3904,,,,,,,,0,102,102,66,1,
,,,,,,,,,,,,,,,,,613e59f68312d2083c8b193d,42,2022-02-12_16h08.01.485,lexical_decision_task_DD,2021.2.3,Win32,59.98440405,,,,,,,,,,,0.7565,1,,,,,,,,,,,,,,,,,,,,,,,,0.080555556,-0.406481481,0,0,0,,,,,,,TORCH,LB,m,m,./images/TORCHLB.png,,,,,,,,,,,,,,,,,,,,,m,1,0.7565,,,,,,,,0,103,103,68,1,
,,,,,,,,,,,,,,,,,613e59f68312d2083c8b193d,42,2022-02-12_16h08.01.485,lexical_decision_task_DD,2021.2.3,Win32,59.98440405,,,,,,,,,,,1.8279,1,,,,,,,,,,,,,,,,,,,,,,,,0.080555556,-0.406481481,0,0,0,,,,,,,WEASEL,LB,m,m,./images/WEASELLB.png,,,,,,,,,,,,,,,,,,,,,m,1,1.8279,,,,,,,,0,104,104,80,1,
,,,,,,,,,,,,,,,,,613e59f68312d2083c8b193d,42,2022-02-12_16h08.01.485,lexical_decision_task_DD,2021.2.3,Win32,59.98440405,,,,,,,,,,,0.2937,0,,,,,,,,,,,,,,,,,,,,,,,,0.080555556,-0.406481481,0,0,0,,,,,,,DONKEY,HB,z,m,./images/DONKEYHB.png,,,,,,,,,,,,,,,,,,,,,m,0,0.2937,,,,,,,,0,105,105,103,1,
,,,,,,,,,,,,,,,,,613e59f68312d2083c8b193d,42,2022-02-12_16h08.01.485,lexical_decision_task_DD,2021.2.3,Win32,59.98440405,,,,,,,,,,,2.1039,1,,,,,,,,,,,,,,,,,,,,,,,,0.080555556,-0.406481481,0,0,0,,,,,,,SUNSET,HB,m,m,./images/SUNSETHB.png,,,,,,,,,,,,,,,,,,,,,m,1,2.1039,,,,,,,,0,106,106,82,1,
,,,,,,,,,,,,,,,,,613e59f68312d2083c8b193d,42,2022-02-12_16h08.01.485,lexical_decision_task_DD,2021.2.3,Win32,59.98440405,,,,,,,,,,,1.1355,0,,,,,,,,,,,,,,,,,,,,,,,,0.080555556,-0.406481481,0,0,0,,,,,,,POSTER,LB,z,m,./images/POSTERLB.png,,,,,,,,,,,,,,,,,,,,,m,0,1.1355,,,,,,,,0,107,107,137,1,
,,,,,,,,,,,,,,,,,613e59f68312d2083c8b193d,42,2022-02-12_16h08.01.485,lexical_decision_task_DD,2021.2.3,Win32,59.98440405,,,,,,,,,,,0.5579,0,,,,,,,,,,,,,,,,,,,,,,,,0.080555556,-0.406481481,0,0,0,,,,,,,SPINE,LB,z,m,./images/SPINELB.png,,,,,,,,,,,,,,,,,,,,,m,0,0.5579,,,,,,,,0,108,108,149,1,
,,,,,,,,,,,,,,,,,613e59f68312d2083c8b193d,42,2022-02-12_16h08.01.485,lexical_decision_task_DD,2021.2.3,Win32,59.98440405,,,,,,,,,,,0.501,0,,,,,,,,,,,,,,,,,,,,,,,,0.080555556,-0.406481481,0,0,0,,,,,,,ENGINE,LB,z,m,./images/ENGINELB.png,,,,,,,,,,,,,,,,,,,,,m,0,0.501,,,,,,,,0,109,109,122,1,
,,,,,,,,,,,,,,,,,613e59f68312d2083c8b193d,42,2022-02-12_16h08.01.485,lexical_decision_task_DD,2021.2.3,Win32,59.98440405,,,,,,,,,,,0.4478,1,,,,,,,,,,,,,,,,,,,,,,,,0.080555556,-0.406481481,0,0,0,,,,,,,JUNGLE,LB,m,m,./images/JUNGLELB.png,,,,,,,,,,,,,,,,,,,,,m,1,0.4478,,,,,,,,0,110,110,83,1,
,,,,,,,,,,,,,,,,,613e59f68312d2083c8b193d,42,2022-02-12_16h08.01.485,lexical_decision_task_DD,2021.2.3,Win32,59.98440405,,,,,,,,,,,0.6172,1,,,,,,,,,,,,,,,,,,,,,,,,0.080555556,-0.406481481,0,0,0,,,,,,,RHINO,C,m,m,./images/RHINO.png,,,,,,,,,,,,,,,,,,,,,m,1,0.6172,,,,,,,,0,111,111,9,1,
,,,,,,,,,,,,,,,,,613e59f68312d2083c8b193d,42,2022-02-12_16h08.01.485,lexical_decision_task_DD,2021.2.3,Win32,59.98440405,,,,,,,,,,,0.3189,1,,,,,,,,,,,,,,,,,,,,,,,,0.080555556,-0.406481481,0,0,0,,,,,,,INFANT,HB,m,m,./images/INFANTHB.png,,,,,,,,,,,,,,,,,,,,,m,1,0.3189,,,,,,,,0,112,112,76,1,
,,,,,,,,,,,,,,,,,613e59f68312d2083c8b193d,42,2022-02-12_16h08.01.485,lexical_decision_task_DD,2021.2.3,Win32,59.98440405,,,,,,,,,,,0.4309,1,,,,,,,,,,,,,,,,,,,,,,,,0.080555556,-0.406481481,0,0,0,,,,,,,ONION,C,m,m,./images/ONION.png,,,,,,,,,,,,,,,,,,,,,m,1,0.4309,,,,,,,,0,113,113,51,1,
,,,,,,,,,,,,,,,,,613e59f68312d2083c8b193d,42,2022-02-12_16h08.01.485,lexical_decision_task_DD,2021.2.3,Win32,59.98440405,,,,,,,,,,,0.3635,1,,,,,,,,,,,,,,,,,,,,,,,,0.080555556,-0.406481481,0,0,0,,,,,,,MALLET,LB,m,m,./images/MALLETLB.png,,,,,,,,,,,,,,,,,,,,,m,1,0.3635,,,,,,,,0,114,114,50,1,
,,,,,,,,,,,,,,,,,613e59f68312d2083c8b193d,42,2022-02-12_16h08.01.485,lexical_decision_task_DD,2021.2.3,Win32,59.98440405,,,,,,,,,,,0.7673,1,,,,,,,,,,,,,,,,,,,,,,,,0.080555556,-0.406481481,0,0,0,,,,,,,BLOKE,C,z,m,./images/BLOKE.png,,,,,,,,,,,,,,,,,,,,,z,1,0.7673,,,,,,,,0,115,115,96,1,
,,,,,,,,,,,,,,,,,613e59f68312d2083c8b193d,42,2022-02-12_16h08.01.485,lexical_decision_task_DD,2021.2.3,Win32,59.98440405,,,,,,,,,,,2.2652,1,,,,,,,,,,,,,,,,,,,,,,,,0.080555556,-0.406481481,0,0,0,,,,,,,LITTER,C,m,m,./images/LITTER.png,,,,,,,,,,,,,,,,,,,,,m,1,2.2652,,,,,,,,0,116,116,78,1,
,,,,,,,,,,,,,,,,,613e59f68312d2083c8b193d,42,2022-02-12_16h08.01.485,lexical_decision_task_DD,2021.2.3,Win32,59.98440405,,,,,,,,,,,0.6005,1,,,,,,,,,,,,,,,,,,,,,,,,0.080555556,-0.406481481,0,0,0,,,,,,,BELLY,HB,m,m,./images/BELLYHB.png,,,,,,,,,,,,,,,,,,,,,m,1,0.6005,,,,,,,,0,117,117,10,1,
,,,,,,,,,,,,,,,,,613e59f68312d2083c8b193d,42,2022-02-12_16h08.01.485,lexical_decision_task_DD,2021.2.3,Win32,59.98440405,,,,,,,,,,,0.5595,0,,,,,,,,,,,,,,,,,,,,,,,,0.080555556,-0.406481481,0,0,0,,,,,,,CLOTH,LB,z,m,./images/CLOTHLB.png,,,,,,,,,,,,,,,,,,,,,m,0,0.5595,,,,,,,,0,118,118,107,1,
,,,,,,,,,,,,,,,,,613e59f68312d2083c8b193d,42,2022-02-12_16h08.01.485,lexical_decision_task_DD,2021.2.3,Win32,59.98440405,,,,,,,,,,,0.585,0,,,,,,,,,,,,,,,,,,,,,,,,0.080555556,-0.406481481,0,0,0,,,,,,,ALLEY,HB,z,m,./images/ALLEYHB.png,,,,,,,,,,,,,,,,,,,,,m,0,0.585,,,,,,,,0,119,119,139,1,
,,,,,,,,,,,,,,,,,613e59f68312d2083c8b193d,42,2022-02-12_16h08.01.485,lexical_decision_task_DD,2021.2.3,Win32,59.98440405,,,,,,,,,,,0.7166,1,,,,,,,,,,,,,,,,,,,,,,,,0.080555556,-0.406481481,0,0,0,,,,,,,MELON,HB,m,m,./images/MELONHB.png,,,,,,,,,,,,,,,,,,,,,m,1,0.7166,,,,,,,,0,120,120,22,1,
,,,,,,,,,,,,,,,,,613e59f68312d2083c8b193d,42,2022-02-12_16h08.01.485,lexical_decision_task_DD,2021.2.3,Win32,59.98440405,,,,,,,,,,,0.4009,1,,,,,,,,,,,,,,,,,,,,,,,,0.080555556,-0.406481481,0,0,0,,,,,,,PICKLE,LB,m,m,./images/PICKLELB.png,,,,,,,,,,,,,,,,,,,,,m,1,0.4009,,,,,,,,0,121,121,14,1,
,,,,,,,,,,,,,,,,,613e59f68312d2083c8b193d,42,2022-02-12_16h08.01.485,lexical_decision_task_DD,2021.2.3,Win32,59.98440405,,,,,,,,,,,0.2973,1,,,,,,,,,,,,,,,,,,,,,,,,0.080555556,-0.406481481,0,0,0,,,,,,,PASTA,LB,m,m,./images/PASTALB.png,,,,,,,,,,,,,,,,,,,,,m,1,0.2973,,,,,,,,0,122,122,5,1,
,,,,,,,,,,,,,,,,,613e59f68312d2083c8b193d,42,2022-02-12_16h08.01.485,lexical_decision_task_DD,2021.2.3,Win32,59.98440405,,,,,,,,,,,0.2019,1,,,,,,,,,,,,,,,,,,,,,,,,0.080555556,-0.406481481,0,0,0,,,,,,,SAILOR,HB,m,m,./images/SAILORHB.png,,,,,,,,,,,,,,,,,,,,,m,1,0.2019,,,,,,,,0,123,123,67,1,
,,,,,,,,,,,,,,,,,613e59f68312d2083c8b193d,42,2022-02-12_16h08.01.485,lexical_decision_task_DD,2021.2.3,Win32,59.98440405,,,,,,,,,,,0.2726,0,,,,,,,,,,,,,,,,,,,,,,,,0.080555556,-0.406481481,0,0,0,,,,,,,CHAIN,C,z,m,./images/CHAIN.png,,,,,,,,,,,,,,,,,,,,,m,0,0.2726,,,,,,,,0,124,124,126,1,
,,,,,,,,,,,,,,,,,613e59f68312d2083c8b193d,42,2022-02-12_16h08.01.485,lexical_decision_task_DD,2021.2.3,Win32,59.98440405,,,,,,,,,,,0.1337,0,,,,,,,,,,,,,,,,,,,,,,,,0.080555556,-0.406481481,0,0,0,space,,,,,,CHERRY,C,z,m,./images/CHERRY.png,0.8762,,,,,,,,,,,,,,,,,,,,m,0,0.1337,,,,,,,,0,125,125,138,1,
,,,,,,,,,,,,,,,,,613e59f68312d2083c8b193d,42,2022-02-12_16h08.01.485,lexical_decision_task_DD,2021.2.3,Win32,59.98440405,,,,,,,,,,,0.2774,0,,,,,,,,,,,,,,,,,,,,,,,,0.080555556,-0.406481481,0,0,0,,,,,,,MONKEY,C,z,m,./images/MONKEY.png,,,,,,,,,,,,,,,,,,,,,m,0,0.2774,,,,,,,,0,126,126,129,1,
,,,,,,,,,,,,,,,,,613e59f68312d2083c8b193d,42,2022-02-12_16h08.01.485,lexical_decision_task_DD,2021.2.3,Win32,59.98440405,,,,,,,,,,,1.3203,0,,,,,,,,,,,,,,,,,,,,,,,,0.080555556,-0.406481481,0,0,0,,,,,,,STREAM,LB,z,m,./images/STREAMLB.png,,,,,,,,,,,,,,,,,,,,,m,0,1.3203,,,,,,,,0,127,127,125,1,
,,,,,,,,,,,,,,,,,613e59f68312d2083c8b193d,42,2022-02-12_16h08.01.485,lexical_decision_task_DD,2021.2.3,Win32,59.98440405,,,,,,,,,,,0.5841,1,,,,,,,,,,,,,,,,,,,,,,,,0.080555556,-0.406481481,0,0,0,,,,,,,KITTEN,C,m,m,./images/KITTEN.png,,,,,,,,,,,,,,,,,,,,,m,1,0.5841,,,,,,,,0,128,128,45,1,
,,,,,,,,,,,,,,,,,613e59f68312d2083c8b193d,42,2022-02-12_16h08.01.485,lexical_decision_task_DD,2021.2.3,Win32,59.98440405,,,,,,,,,,,0.3101,0,,,,,,,,,,,,,,,,,,,,,,,,0.080555556,-0.406481481,0,0,0,,,,,,,SHIELD,C,z,m,./images/SHIELD.png,,,,,,,,,,,,,,,,,,,,,m,0,0.3101,,,,,,,,0,129,129,132,1,
,,,,,,,,,,,,,,,,,613e59f68312d2083c8b193d,42,2022-02-12_16h08.01.485,lexical_decision_task_DD,2021.2.3,Win32,59.98440405,,,,,,,,,,,0.2955,1,,,,,,,,,,,,,,,,,,,,,,,,0.080555556,-0.406481481,0,0,0,,,,,,,MUFFIN,HB,m,m,./images/MUFFINHB.png,,,,,,,,,,,,,,,,,,,,,m,1,0.2955,,,,,,,,0,130,130,55,1,
,,,,,,,,,,,,,,,,,613e59f68312d2083c8b193d,42,2022-02-12_16h08.01.485,lexical_decision_task_DD,2021.2.3,Win32,59.98440405,,,,,,,,,,,0.5011,1,,,,,,,,,,,,,,,,,,,,,,,,0.080555556,-0.406481481,0,0,0,,,,,,,FERRY,C,z,m,./images/FERRY.png,,,,,,,,,,,,,,,,,,,,,z,1,0.5011,,,,,,,,0,131,131,141,1,
,,,,,,,,,,,,,,,,,613e59f68312d2083c8b193d,42,2022-02-12_16h08.01.485,lexical_decision_task_DD,2021.2.3,Win32,59.98440405,,,,,,,,,,,0.243,0,,,,,,,,,,,,,,,,,,,,,,,,0.080555556,-0.406481481,0,0,0,,,,,,,STOOL,HB,z,m,./images/STOOLHB.png,,,,,,,,,,,,,,,,,,,,,m,0,0.243,,,,,,,,0,132,132,127,1,
,,,,,,,,,,,,,,,,,613e59f68312d2083c8b193d,42,2022-02-12_16h08.01.485,lexical_decision_task_DD,2021.2.3,Win32,59.98440405,,,,,,,,,,,0.2005,1,,,,,,,,,,,,,,,,,,,,,,,,0.080555556,-0.406481481,0,0,0,,,,,,,LIZARD,LB,m,m,./images/LIZARDLB.png,,,,,,,,,,,,,,,,,,,,,m,1,0.2005,,,,,,,,0,133,133,44,1,
