key_resp.keys,key_resp.rt,instr_done_touch.x,instr_done_touch.y,instr_done_touch.leftButton,instr_done_touch.midButton,instr_done_touch.rightButton,instruction_pages.thisRepN,instruction_pages.thisTrialN,instruction_pages.thisN,instruction_pages.thisIndex,instruction_pages.ran,pageN,phase,instruct_text,has_image,instruct_image,participant,age,date,expName,psychopyVersion,OS,frameRate,response.keys,response.corr,response.rt,touch_resp.x,touch_resp.y,touch_resp.leftButton,touch_resp.midButton,touch_resp.rightButton,touch_resp.time,touch_resp.clicked_name,rt,corr,practrials.thisRepN,practrials.thisTrialN,practrials.thisN,practrials.thisIndex,practrials.ran,TrialID,Target,corrAns,end_of_practice_trials_pages.thisRepN,end_of_practice_trials_pages.thisTrialN,end_of_practice_trials_pages.thisN,end_of_practice_trials_pages.thisIndex,end_of_practice_trials_pages.ran,key_resp_2.keys,key_resp_2.corr,key_resp_2.rt,targ_click.x,targ_click.y,targ_click.leftButton,targ_click.midButton,targ_click.rightButton,targ_click.time,targ_click.clicked_name,break_done_touch.x,break_done_touch.y,break_done_touch.leftButton,break_done_touch.midButton,break_done_touch.rightButton,break_done_keyboard.keys,maintrials.thisRepN,maintrials.thisTrialN,maintrials.thisN,maintrials.thisIndex,maintrials.ran,string,blur,study,lex,stim_path,break_done_keyboard.rt,mouse_2.x,mouse_2.y,mouse_2.leftButton,mouse_2.midButton,mouse_2.rightButton,mouse_2.clicked_name,slider.response,slider.rt,trials.thisRepN,trials.thisTrialN,trials.thisN,trials.thisIndex,trials.ran,instr_done_touch.clicked_name,test_instructions.thisRepN,test_instructions.thisTrialN,test_instructions.thisN,test_instructions.thisIndex,test_instructions.ran,key_resp_3.keys,key_resp_3.corr,key_resp_3.rt,test_click.x,test_click.y,test_click.leftButton,test_click.midButton,test_click.rightButton,test_click.time,test_click.clicked_name,test_phase.thisRepN,test_phase.thisTrialN,test_phase.thisN,test_phase.thisIndex,test_phase.ran
space,24.8618,0.152777778,-0.44537037,0,0,0,0,0,0,0,1,1,instructions,"INSTRUCTIONS
At the start of each trial, look at the plus sign  (+) in the center of the screen.  This tells you that a trial is about to begin and where to look. Second, the plus sign will disappear and a string of letters will appear. Your task is to determine if the string of letters is a word or not. If the item is a word press the M key (on keyboard)  or touch the word button (phone/tablet).  If the item is not a word,  press the  Z key (on keyboard)  or touch the nonword button (on phone/tablet). 
Press the space bar or touch  continue.",0,,614dd1f943ec0b21335f6421,65,2022-02-12_16h41.54.383,lexical_decision_task_DD,2021.2.3,Win32,59.94844434,,,,,,,,,,,,,,,,,,,,,,,,,,,,,,,,,,,,,,,,,,,,,,,,,,,,,,,,,,,,,,,,,,,,,,,,,,,,,,,,,,,,,,
space,5.6073,0.152777778,-0.44537037,0,0,0,0,1,1,1,1,2,instructions,"If your device has a keyboard, press the 'Z' key for nonwords and the 'M' key for words.





Press the space bar or touch the button below to continue.",0,keyboard-example.gif,614dd1f943ec0b21335f6421,65,2022-02-12_16h41.54.383,lexical_decision_task_DD,2021.2.3,Win32,59.94844434,,,,,,,,,,,,,,,,,,,,,,,,,,,,,,,,,,,,,,,,,,,,,,,,,,,,,,,,,,,,,,,,,,,,,,,,,,,,,,,,,,,,,,
space,3.7431,0.152777778,-0.44537037,0,0,0,0,2,2,2,1,3,instructions,"If you are using a touchscreen only device, use the buttons on the screen. Do not use the mouse.





Press the space bar or touch the button below to continue.",0,touchscreen-example.gif,614dd1f943ec0b21335f6421,65,2022-02-12_16h41.54.383,lexical_decision_task_DD,2021.2.3,Win32,59.94844434,,,,,,,,,,,,,,,,,,,,,,,,,,,,,,,,,,,,,,,,,,,,,,,,,,,,,,,,,,,,,,,,,,,,,,,,,,,,,,,,,,,,,,
space,11.1053,0.152777778,-0.44537037,0,0,0,0,3,3,3,1,4,instructions,"It is very important that you respond as quickly and accurately as possible, as each letter string will only be on the screen for two seconds. If you do not respond within this time, the message 'Too slow!' will be displayed and the experiment will progress to the next letter string. The first 20 trials will be practice trials and you will receive feedback on your answers. 

Press the space bar or touch the button below to start the practice trials.",0,,614dd1f943ec0b21335f6421,65,2022-02-12_16h41.54.383,lexical_decision_task_DD,2021.2.3,Win32,59.94844434,,,,,,,,,,,,,,,,,,,,,,,,,,,,,,,,,,,,,,,,,,,,,,,,,,,,,,,,,,,,,,,,,,,,,,,,,,,,,,,,,,,,,,
,,,,,,,,,,,,,,,,,614dd1f943ec0b21335f6421,65,2022-02-12_16h41.54.383,lexical_decision_task_DD,2021.2.3,Win32,59.94844434,m,0,0.6027,,,,,,,,0.6027,0,0,0,0,8,1,1001,ASLERT,z,,,,,,,,,,,,,,,,,,,,,,,,,,,,,,,,,,,,,,,,,,,,,,,,,,,,,,,,,,,,,,,,,,
,,,,,,,,,,,,,,,,,614dd1f943ec0b21335f6421,65,2022-02-12_16h41.54.383,lexical_decision_task_DD,2021.2.3,Win32,59.94844434,m,1,0.9777,,,,,,,,0.9777,1,0,1,1,5,1,1001,OBTAIN,m,,,,,,,,,,,,,,,,,,,,,,,,,,,,,,,,,,,,,,,,,,,,,,,,,,,,,,,,,,,,,,,,,,
,,,,,,,,,,,,,,,,,614dd1f943ec0b21335f6421,65,2022-02-12_16h41.54.383,lexical_decision_task_DD,2021.2.3,Win32,59.94844434,m,0,0.962,,,,,,,,0.962,0,0,2,2,11,1,1001,RASHET,z,,,,,,,,,,,,,,,,,,,,,,,,,,,,,,,,,,,,,,,,,,,,,,,,,,,,,,,,,,,,,,,,,,
,,,,,,,,,,,,,,,,,614dd1f943ec0b21335f6421,65,2022-02-12_16h41.54.383,lexical_decision_task_DD,2021.2.3,Win32,59.94844434,m,1,0.7898,,,,,,,,0.7898,1,0,3,3,3,1,1001,MATRIX,m,,,,,,,,,,,,,,,,,,,,,,,,,,,,,,,,,,,,,,,,,,,,,,,,,,,,,,,,,,,,,,,,,,
,,,,,,,,,,,,,,,,,614dd1f943ec0b21335f6421,65,2022-02-12_16h41.54.383,lexical_decision_task_DD,2021.2.3,Win32,59.94844434,z,1,0.7352,,,,,,,,0.7352,1,0,4,4,14,1,1001,THRALE,z,,,,,,,,,,,,,,,,,,,,,,,,,,,,,,,,,,,,,,,,,,,,,,,,,,,,,,,,,,,,,,,,,,
,,,,,,,,,,,,,,,,,614dd1f943ec0b21335f6421,65,2022-02-12_16h41.54.383,lexical_decision_task_DD,2021.2.3,Win32,59.94844434,m,1,0.6939,,,,,,,,0.6939,1,0,5,5,4,1,1001,SQUEAK,m,,,,,,,,,,,,,,,,,,,,,,,,,,,,,,,,,,,,,,,,,,,,,,,,,,,,,,,,,,,,,,,,,,
,,,,,,,,,,,,,,,,,614dd1f943ec0b21335f6421,65,2022-02-12_16h41.54.383,lexical_decision_task_DD,2021.2.3,Win32,59.94844434,m,0,0.9632,,,,,,,,0.9632,0,0,6,6,10,1,1001,INLADE,z,,,,,,,,,,,,,,,,,,,,,,,,,,,,,,,,,,,,,,,,,,,,,,,,,,,,,,,,,,,,,,,,,,
,,,,,,,,,,,,,,,,,614dd1f943ec0b21335f6421,65,2022-02-12_16h41.54.383,lexical_decision_task_DD,2021.2.3,Win32,59.94844434,z,1,0.8868,,,,,,,,0.8868,1,0,7,7,9,1,1001,FARINY,z,,,,,,,,,,,,,,,,,,,,,,,,,,,,,,,,,,,,,,,,,,,,,,,,,,,,,,,,,,,,,,,,,,
,,,,,,,,,,,,,,,,,614dd1f943ec0b21335f6421,65,2022-02-12_16h41.54.383,lexical_decision_task_DD,2021.2.3,Win32,59.94844434,z,1,0.7147,,,,,,,,0.7147,1,0,8,8,12,1,1001,SPRINY,z,,,,,,,,,,,,,,,,,,,,,,,,,,,,,,,,,,,,,,,,,,,,,,,,,,,,,,,,,,,,,,,,,,
,,,,,,,,,,,,,,,,,614dd1f943ec0b21335f6421,65,2022-02-12_16h41.54.383,lexical_decision_task_DD,2021.2.3,Win32,59.94844434,z,1,0.7125,,,,,,,,0.7125,1,0,9,9,13,1,1001,ROUPET,z,,,,,,,,,,,,,,,,,,,,,,,,,,,,,,,,,,,,,,,,,,,,,,,,,,,,,,,,,,,,,,,,,,
,,,,,,,,,,,,,,,,,614dd1f943ec0b21335f6421,65,2022-02-12_16h41.54.383,lexical_decision_task_DD,2021.2.3,Win32,59.94844434,m,1,0.6696,,,,,,,,0.6696,1,0,10,10,2,1,1001,ALMOND,m,,,,,,,,,,,,,,,,,,,,,,,,,,,,,,,,,,,,,,,,,,,,,,,,,,,,,,,,,,,,,,,,,,
,,,,,,,,,,,,,,,,,614dd1f943ec0b21335f6421,65,2022-02-12_16h41.54.383,lexical_decision_task_DD,2021.2.3,Win32,59.94844434,m,1,0.7624,,,,,,,,0.7624,1,0,11,11,6,1,1001,ZOMBIE,m,,,,,,,,,,,,,,,,,,,,,,,,,,,,,,,,,,,,,,,,,,,,,,,,,,,,,,,,,,,,,,,,,,
,,,,,,,,,,,,,,,,,614dd1f943ec0b21335f6421,65,2022-02-12_16h41.54.383,lexical_decision_task_DD,2021.2.3,Win32,59.94844434,m,1,0.5839,,,,,,,,0.5839,1,0,12,12,7,1,1001,VOLUME,m,,,,,,,,,,,,,,,,,,,,,,,,,,,,,,,,,,,,,,,,,,,,,,,,,,,,,,,,,,,,,,,,,,
,,,,,,,,,,,,,,,,,614dd1f943ec0b21335f6421,65,2022-02-12_16h41.54.383,lexical_decision_task_DD,2021.2.3,Win32,59.94844434,m,1,0.5978,,,,,,,,0.5978,1,0,13,13,0,1,1001,UTOPIA,m,,,,,,,,,,,,,,,,,,,,,,,,,,,,,,,,,,,,,,,,,,,,,,,,,,,,,,,,,,,,,,,,,,
,,,,,,,,,,,,,,,,,614dd1f943ec0b21335f6421,65,2022-02-12_16h41.54.383,lexical_decision_task_DD,2021.2.3,Win32,59.94844434,m,1,0.5369,,,,,,,,0.5369,1,0,14,14,1,1,1001,ADJUST,m,,,,,,,,,,,,,,,,,,,,,,,,,,,,,,,,,,,,,,,,,,,,,,,,,,,,,,,,,,,,,,,,,,
,,,,,,,,,,,,,,,,,614dd1f943ec0b21335f6421,65,2022-02-12_16h41.54.383,lexical_decision_task_DD,2021.2.3,Win32,59.94844434,z,1,0.7103,,,,,,,,0.7103,1,0,15,15,15,1,1001,WHAISE,z,,,,,,,,,,,,,,,,,,,,,,,,,,,,,,,,,,,,,,,,,,,,,,,,,,,,,,,,,,,,,,,,,,
space,10.6551,0.152777778,-0.44537037,0,0,0,,,,,,1,end_of_practice,"You have completed the practice trials. During the experimental trials, you will not receive feedback. 
Before you begin, please ensure that you are in a comfortable and quiet location and will not be disturbed for about 15 minutes, as we cannot use your data if you do not complete all the trials. 
 When you are ready to start the experimental trials, please press space or touch the button below.",,,614dd1f943ec0b21335f6421,65,2022-02-12_16h41.54.383,lexical_decision_task_DD,2021.2.3,Win32,59.94844434,,,,,,,,,,,,,,,,,,,,,0,0,0,0,1,,,,,,,,,,,,,,,,,,,,,,,,,,,,,,,,,,,,,,,,,,,,,,,,,,,,,,,,,,,,,
,,,,,,,,,,,,,,,,,614dd1f943ec0b21335f6421,65,2022-02-12_16h41.54.383,lexical_decision_task_DD,2021.2.3,Win32,59.94844434,,,,,,,,,,,0.8737,1,,,,,,,,,,,,,,z,1,0.8737,,,,,,,,0.152777778,-0.44537037,0,0,0,,0,0,0,146,1,MOOST,LB,old,z,./images/MOOSTLB.png,,,,,,,,,,,,,,,,,,,,,,,,,,,,,,,,,,,
,,,,,,,,,,,,,,,,,614dd1f943ec0b21335f6421,65,2022-02-12_16h41.54.383,lexical_decision_task_DD,2021.2.3,Win32,59.94844434,,,,,,,,,,,0.9027,1,,,,,,,,,,,,,,m,1,0.9027,,,,,,,,0.152777778,-0.44537037,0,0,0,,0,1,1,57,1,MOOSE,C,old,m,./images/MOOSE.png,,,,,,,,,,,,,,,,,,,,,,,,,,,,,,,,,,,
,,,,,,,,,,,,,,,,,614dd1f943ec0b21335f6421,65,2022-02-12_16h41.54.383,lexical_decision_task_DD,2021.2.3,Win32,59.94844434,,,,,,,,,,,0.587,1,,,,,,,,,,,,,,m,1,0.587,,,,,,,,0.152777778,-0.44537037,0,0,0,,0,2,2,60,1,TWINS,C,old,m,./images/TWINS.png,,,,,,,,,,,,,,,,,,,,,,,,,,,,,,,,,,,
,,,,,,,,,,,,,,,,,614dd1f943ec0b21335f6421,65,2022-02-12_16h41.54.383,lexical_decision_task_DD,2021.2.3,Win32,59.94844434,,,,,,,,,,,0.8074,0,,,,,,,,,,,,,,z,0,0.8074,,,,,,,,0.152777778,-0.44537037,0,0,0,,0,3,3,52,1,BANNER,HB,old,m,./images/BANNERHB.png,,,,,,,,,,,,,,,,,,,,,,,,,,,,,,,,,,,
,,,,,,,,,,,,,,,,,614dd1f943ec0b21335f6421,65,2022-02-12_16h41.54.383,lexical_decision_task_DD,2021.2.3,Win32,59.94844434,,,,,,,,,,,0.6311,1,,,,,,,,,,,,,,m,1,0.6311,,,,,,,,0.152777778,-0.44537037,0,0,0,,0,4,4,54,1,TRIPOD,C,old,m,./images/TRIPOD.png,,,,,,,,,,,,,,,,,,,,,,,,,,,,,,,,,,,
,,,,,,,,,,,,,,,,,614dd1f943ec0b21335f6421,65,2022-02-12_16h41.54.383,lexical_decision_task_DD,2021.2.3,Win32,59.94844434,,,,,,,,,,,0.6434,1,,,,,,,,,,,,,,m,1,0.6434,,,,,,,,0.152777778,-0.44537037,0,0,0,,0,5,5,66,1,SWEAT,C,old,m,./images/SWEAT.png,,,,,,,,,,,,,,,,,,,,,,,,,,,,,,,,,,,
,,,,,,,,,,,,,,,,,614dd1f943ec0b21335f6421,65,2022-02-12_16h41.54.383,lexical_decision_task_DD,2021.2.3,Win32,59.94844434,,,,,,,,,,,0.4941,0,,,,,,,,,,,,,,m,0,0.4941,,,,,,,,0.152777778,-0.44537037,0,0,0,,0,6,6,129,1,PRANS,C,old,z,./images/PRANS.png,,,,,,,,,,,,,,,,,,,,,,,,,,,,,,,,,,,
,,,,,,,,,,,,,,,,,614dd1f943ec0b21335f6421,65,2022-02-12_16h41.54.383,lexical_decision_task_DD,2021.2.3,Win32,59.94844434,,,,,,,,,,,0.7974,1,,,,,,,,,,,,,,z,1,0.7974,,,,,,,,0.152777778,-0.44537037,0,0,0,,0,7,7,126,1,GUELS,C,old,z,./images/GUELS.png,,,,,,,,,,,,,,,,,,,,,,,,,,,,,,,,,,,
,,,,,,,,,,,,,,,,,614dd1f943ec0b21335f6421,65,2022-02-12_16h41.54.383,lexical_decision_task_DD,2021.2.3,Win32,59.94844434,,,,,,,,,,,0.8225,1,,,,,,,,,,,,,,m,1,0.8225,,,,,,,,0.152777778,-0.44537037,0,0,0,,0,8,8,71,1,PIMPLE,LB,old,m,./images/PIMPLELB.png,,,,,,,,,,,,,,,,,,,,,,,,,,,,,,,,,,,
,,,,,,,,,,,,,,,,,614dd1f943ec0b21335f6421,65,2022-02-12_16h41.54.383,lexical_decision_task_DD,2021.2.3,Win32,59.94844434,,,,,,,,,,,1.5447,1,,,,,,,,,,,,,,z,1,1.5447,,,,,,,,0.152777778,-0.44537037,0,0,0,,0,9,9,163,1,GAMBA,HB,old,z,./images/GAMBAHB.png,,,,,,,,,,,,,,,,,,,,,,,,,,,,,,,,,,,
,,,,,,,,,,,,,,,,,614dd1f943ec0b21335f6421,65,2022-02-12_16h41.54.383,lexical_decision_task_DD,2021.2.3,Win32,59.94844434,,,,,,,,,,,0.6829,1,,,,,,,,,,,,,,m,1,0.6829,,,,,,,,0.152777778,-0.44537037,0,0,0,,0,10,10,20,1,CRADLE,LB,old,m,./images/CRADLELB.png,,,,,,,,,,,,,,,,,,,,,,,,,,,,,,,,,,,
,,,,,,,,,,,,,,,,,614dd1f943ec0b21335f6421,65,2022-02-12_16h41.54.383,lexical_decision_task_DD,2021.2.3,Win32,59.94844434,,,,,,,,,,,1.1042,1,,,,,,,,,,,,,,m,1,1.1042,,,,,,,,0.152777778,-0.44537037,0,0,0,,0,11,11,49,1,DRUMS,HB,old,m,./images/DRUMSHB.png,,,,,,,,,,,,,,,,,,,,,,,,,,,,,,,,,,,
,,,,,,,,,,,,,,,,,614dd1f943ec0b21335f6421,65,2022-02-12_16h41.54.383,lexical_decision_task_DD,2021.2.3,Win32,59.94844434,,,,,,,,,,,0.8342,0,,,,,,,,,,,,,,m,0,0.8342,,,,,,,,0.152777778,-0.44537037,0,0,0,,0,12,12,164,1,SGREW,LB,old,z,./images/SGREWLB.png,,,,,,,,,,,,,,,,,,,,,,,,,,,,,,,,,,,
,,,,,,,,,,,,,,,,,614dd1f943ec0b21335f6421,65,2022-02-12_16h41.54.383,lexical_decision_task_DD,2021.2.3,Win32,59.94844434,,,,,,,,,,,0.8237,1,,,,,,,,,,,,,,z,1,0.8237,,,,,,,,0.152777778,-0.44537037,0,0,0,,0,13,13,137,1,JOOST,LB,old,z,./images/JOOSTLB.png,,,,,,,,,,,,,,,,,,,,,,,,,,,,,,,,,,,
,,,,,,,,,,,,,,,,,614dd1f943ec0b21335f6421,65,2022-02-12_16h41.54.383,lexical_decision_task_DD,2021.2.3,Win32,59.94844434,,,,,,,,,,,0.5703,1,,,,,,,,,,,,,,m,1,0.5703,,,,,,,,0.152777778,-0.44537037,0,0,0,,0,14,14,30,1,STORM,C,old,m,./images/STORM.png,,,,,,,,,,,,,,,,,,,,,,,,,,,,,,,,,,,
,,,,,,,,,,,,,,,,,614dd1f943ec0b21335f6421,65,2022-02-12_16h41.54.383,lexical_decision_task_DD,2021.2.3,Win32,59.94844434,,,,,,,,,,,1.3464,0,,,,,,,,,,,,,,z,0,1.3464,,,,,,,,0.152777778,-0.44537037,0,0,0,,0,15,15,40,1,SWING,HB,old,m,./images/SWINGHB.png,,,,,,,,,,,,,,,,,,,,,,,,,,,,,,,,,,,
,,,,,,,,,,,,,,,,,614dd1f943ec0b21335f6421,65,2022-02-12_16h41.54.383,lexical_decision_task_DD,2021.2.3,Win32,59.94844434,,,,,,,,,,,0.5969,1,,,,,,,,,,,,,,m,1,0.5969,,,,,,,,0.152777778,-0.44537037,0,0,0,,0,16,16,6,1,SQUARE,C,old,m,./images/SQUARE.png,,,,,,,,,,,,,,,,,,,,,,,,,,,,,,,,,,,
,,,,,,,,,,,,,,,,,614dd1f943ec0b21335f6421,65,2022-02-12_16h41.54.383,lexical_decision_task_DD,2021.2.3,Win32,59.94844434,,,,,,,,,,,1.2293,1,,,,,,,,,,,,,,m,1,1.2293,,,,,,,,0.152777778,-0.44537037,0,0,0,,0,17,17,58,1,BABOON,HB,old,m,./images/BABOONHB.png,,,,,,,,,,,,,,,,,,,,,,,,,,,,,,,,,,,
,,,,,,,,,,,,,,,,,614dd1f943ec0b21335f6421,65,2022-02-12_16h41.54.383,lexical_decision_task_DD,2021.2.3,Win32,59.94844434,,,,,,,,,,,0.6437,1,,,,,,,,,,,,,,m,1,0.6437,,,,,,,,0.152777778,-0.44537037,0,0,0,,0,18,18,32,1,BARREL,LB,old,m,./images/BARRELLB.png,,,,,,,,,,,,,,,,,,,,,,,,,,,,,,,,,,,
,,,,,,,,,,,,,,,,,614dd1f943ec0b21335f6421,65,2022-02-12_16h41.54.383,lexical_decision_task_DD,2021.2.3,Win32,59.94844434,,,,,,,,,,,0.6331,1,,,,,,,,,,,,,,m,1,0.6331,,,,,,,,0.152777778,-0.44537037,0,0,0,,0,19,19,68,1,TORCH,LB,old,m,./images/TORCHLB.png,,,,,,,,,,,,,,,,,,,,,,,,,,,,,,,,,,,
,,,,,,,,,,,,,,,,,614dd1f943ec0b21335f6421,65,2022-02-12_16h41.54.383,lexical_decision_task_DD,2021.2.3,Win32,59.94844434,,,,,,,,,,,0.6622,1,,,,,,,,,,,,,,z,1,0.6622,,,,,,,,0.152777778,-0.44537037,0,0,0,,0,20,20,150,1,NOOLS,C,old,z,./images/NOOLS.png,,,,,,,,,,,,,,,,,,,,,,,,,,,,,,,,,,,
,,,,,,,,,,,,,,,,,614dd1f943ec0b21335f6421,65,2022-02-12_16h41.54.383,lexical_decision_task_DD,2021.2.3,Win32,59.94844434,,,,,,,,,,,0.9956,1,,,,,,,,,,,,,,z,1,0.9956,,,,,,,,0.152777778,-0.44537037,0,0,0,,0,21,21,104,1,GITTY,LB,old,z,./images/GITTYLB.png,,,,,,,,,,,,,,,,,,,,,,,,,,,,,,,,,,,
,,,,,,,,,,,,,,,,,614dd1f943ec0b21335f6421,65,2022-02-12_16h41.54.383,lexical_decision_task_DD,2021.2.3,Win32,59.94844434,,,,,,,,,,,0.9071,1,,,,,,,,,,,,,,m,1,0.9071,,,,,,,,0.152777778,-0.44537037,0,0,0,,0,22,22,25,1,WRIST,HB,old,m,./images/WRISTHB.png,,,,,,,,,,,,,,,,,,,,,,,,,,,,,,,,,,,
,,,,,,,,,,,,,,,,,614dd1f943ec0b21335f6421,65,2022-02-12_16h41.54.383,lexical_decision_task_DD,2021.2.3,Win32,59.94844434,,,,,,,,,,,0.6361,1,,,,,,,,,,,,,,m,1,0.6361,,,,,,,,0.152777778,-0.44537037,0,0,0,,0,23,23,75,1,GRAIN,C,old,m,./images/GRAIN.png,,,,,,,,,,,,,,,,,,,,,,,,,,,,,,,,,,,
,,,,,,,,,,,,,,,,,614dd1f943ec0b21335f6421,65,2022-02-12_16h41.54.383,lexical_decision_task_DD,2021.2.3,Win32,59.94844434,,,,,,,,,,,0.6821,1,,,,,,,,,,,,,,z,1,0.6821,,,,,,,,0.152777778,-0.44537037,0,0,0,,0,24,24,116,1,BALGY,LB,old,z,./images/BALGYLB.png,,,,,,,,,,,,,,,,,,,,,,,,,,,,,,,,,,,
,,,,,,,,,,,,,,,,,614dd1f943ec0b21335f6421,65,2022-02-12_16h41.54.383,lexical_decision_task_DD,2021.2.3,Win32,59.94844434,,,,,,,,,,,1.1245,1,,,,,,,,,,,,,,z,1,1.1245,,,,,,,,0.152777778,-0.44537037,0,0,0,,0,25,25,88,1,GLUSH,HB,old,z,./images/GLUSHHB.png,,,,,,,,,,,,,,,,,,,,,,,,,,,,,,,,,,,
,,,,,,,,,,,,,,,,,614dd1f943ec0b21335f6421,65,2022-02-12_16h41.54.383,lexical_decision_task_DD,2021.2.3,Win32,59.94844434,,,,,,,,,,,0.6736,1,,,,,,,,,,,,,,m,1,0.6736,,,,,,,,0.152777778,-0.44537037,0,0,0,,0,26,26,23,1,WALRUS,LB,old,m,./images/WALRUSLB.png,,,,,,,,,,,,,,,,,,,,,,,,,,,,,,,,,,,
,,,,,,,,,,,,,,,,,614dd1f943ec0b21335f6421,65,2022-02-12_16h41.54.383,lexical_decision_task_DD,2021.2.3,Win32,59.94844434,,,,,,,,,,,1.0603,1,,,,,,,,,,,,,,z,1,1.0603,,,,,,,,0.152777778,-0.44537037,0,0,0,,0,27,27,140,1,DOVET,LB,old,z,./images/DOVETLB.png,,,,,,,,,,,,,,,,,,,,,,,,,,,,,,,,,,,
,,,,,,,,,,,,,,,,,614dd1f943ec0b21335f6421,65,2022-02-12_16h41.54.383,lexical_decision_task_DD,2021.2.3,Win32,59.94844434,,,,,,,,,,,0.625,1,,,,,,,,,,,,,,m,1,0.625,,,,,,,,0.152777778,-0.44537037,0,0,0,,0,28,28,35,1,PEACH,LB,old,m,./images/PEACHLB.png,,,,,,,,,,,,,,,,,,,,,,,,,,,,,,,,,,,
,,,,,,,,,,,,,,,,,614dd1f943ec0b21335f6421,65,2022-02-12_16h41.54.383,lexical_decision_task_DD,2021.2.3,Win32,59.94844434,,,,,,,,,,,0.6463,1,,,,,,,,,,,,,,m,1,0.6463,,,,,,,,0.152777778,-0.44537037,0,0,0,,0,29,29,15,1,GREASE,C,old,m,./images/GREASE.png,,,,,,,,,,,,,,,,,,,,,,,,,,,,,,,,,,,
,,,,,,,,,,,,,,,,,614dd1f943ec0b21335f6421,65,2022-02-12_16h41.54.383,lexical_decision_task_DD,2021.2.3,Win32,59.94844434,,,,,,,,,,,0.6581,1,,,,,,,,,,,,,,z,1,0.6581,,,,,,,,0.152777778,-0.44537037,0,0,0,,0,30,30,159,1,CUDDY,C,old,z,./images/CUDDY.png,,,,,,,,,,,,,,,,,,,,,,,,,,,,,,,,,,,
,,,,,,,,,,,,,,,,,614dd1f943ec0b21335f6421,65,2022-02-12_16h41.54.383,lexical_decision_task_DD,2021.2.3,Win32,59.94844434,,,,,,,,,,,1.569,1,,,,,,,,,,,,,,z,1,1.569,,,,,,,,0.152777778,-0.44537037,0,0,0,,0,31,31,154,1,THINT,HB,old,z,./images/THINTHB.png,,,,,,,,,,,,,,,,,,,,,,,,,,,,,,,,,,,
,,,,,,,,,,,,,,,,,614dd1f943ec0b21335f6421,65,2022-02-12_16h41.54.383,lexical_decision_task_DD,2021.2.3,Win32,59.94844434,,,,,,,,,,,0.9386,1,,,,,,,,,,,,,,z,1,0.9386,,,,,,,,0.152777778,-0.44537037,0,0,0,,0,32,32,156,1,HIXES,C,old,z,./images/HIXES.png,,,,,,,,,,,,,,,,,,,,,,,,,,,,,,,,,,,
,,,,,,,,,,,,,,,,,614dd1f943ec0b21335f6421,65,2022-02-12_16h41.54.383,lexical_decision_task_DD,2021.2.3,Win32,59.94844434,,,,,,,,,,,1.2968,1,,,,,,,,,,,,,,m,1,1.2968,,,,,,,,0.152777778,-0.44537037,0,0,0,,0,33,33,55,1,MUFFIN,HB,old,m,./images/MUFFINHB.png,,,,,,,,,,,,,,,,,,,,,,,,,,,,,,,,,,,
,,,,,,,,,,,,,,,,,614dd1f943ec0b21335f6421,65,2022-02-12_16h41.54.383,lexical_decision_task_DD,2021.2.3,Win32,59.94844434,,,,,,,,,,,0.5915,1,,,,,,,,,,,,,,m,1,0.5915,,,,,,,,0.152777778,-0.44537037,0,0,0,,0,34,34,0,1,TOMATO,C,old,m,./images/TOMATO.png,,,,,,,,,,,,,,,,,,,,,,,,,,,,,,,,,,,
,,,,,,,,,,,,,,,,,614dd1f943ec0b21335f6421,65,2022-02-12_16h41.54.383,lexical_decision_task_DD,2021.2.3,Win32,59.94844434,,,,,,,,,,,0.6145,1,,,,,,,,,,,,,,m,1,0.6145,,,,,,,,0.152777778,-0.44537037,0,0,0,,0,35,35,11,1,BONNET,LB,old,m,./images/BONNETLB.png,,,,,,,,,,,,,,,,,,,,,,,,,,,,,,,,,,,
,,,,,,,,,,,,,,,,,614dd1f943ec0b21335f6421,65,2022-02-12_16h41.54.383,lexical_decision_task_DD,2021.2.3,Win32,59.94844434,,,,,,,,,,,0.6547,1,,,,,,,,,,,,,,m,1,0.6547,,,,,,,,0.152777778,-0.44537037,0,0,0,,0,36,36,36,1,THROAT,C,old,m,./images/THROAT.png,,,,,,,,,,,,,,,,,,,,,,,,,,,,,,,,,,,
,,,,,,,,,,,,,,,,,614dd1f943ec0b21335f6421,65,2022-02-12_16h41.54.383,lexical_decision_task_DD,2021.2.3,Win32,59.94844434,,,,,,,,,,,0.6027,1,,,,,,,,,,,,,,z,1,0.6027,,,,,,,,0.152777778,-0.44537037,0,0,0,,0,37,37,138,1,PLICE,C,old,z,./images/PLICE.png,,,,,,,,,,,,,,,,,,,,,,,,,,,,,,,,,,,
,,,,,,,,,,,,,,,,,614dd1f943ec0b21335f6421,65,2022-02-12_16h41.54.383,lexical_decision_task_DD,2021.2.3,Win32,59.94844434,,,,,,,,,,,0.8462,1,,,,,,,,,,,,,,m,1,0.8462,,,,,,,,0.152777778,-0.44537037,0,0,0,,0,38,38,45,1,KITTEN,C,old,m,./images/KITTEN.png,,,,,,,,,,,,,,,,,,,,,,,,,,,,,,,,,,,
,,,,,,,,,,,,,,,,,614dd1f943ec0b21335f6421,65,2022-02-12_16h41.54.383,lexical_decision_task_DD,2021.2.3,Win32,59.94844434,,,,,,,,,,,0.6434,1,,,,,,,,,,,,,,z,1,0.6434,,,,,,,,0.152777778,-0.44537037,0,0,0,,0,39,39,117,1,STEEG,C,old,z,./images/STEEG.png,,,,,,,,,,,,,,,,,,,,,,,,,,,,,,,,,,,
,,,,,,,,,,,,,,,,,614dd1f943ec0b21335f6421,65,2022-02-12_16h41.54.383,lexical_decision_task_DD,2021.2.3,Win32,59.94844434,,,,,,,,,,,0.6558,1,,,,,,,,,,,,,,z,1,0.6558,,,,,,,,0.152777778,-0.44537037,0,0,0,,0,40,40,99,1,BACKY,C,old,z,./images/BACKY.png,,,,,,,,,,,,,,,,,,,,,,,,,,,,,,,,,,,
,,,,,,,,,,,,,,,,,614dd1f943ec0b21335f6421,65,2022-02-12_16h41.54.383,lexical_decision_task_DD,2021.2.3,Win32,59.94844434,,,,,,,,,,,0.6665,1,,,,,,,,,,,,,,z,1,0.6665,,,,,,,,0.152777778,-0.44537037,0,0,0,space,0,41,41,96,1,KEAMS,C,old,z,./images/KEAMS.png,4.5545,,,,,,,,,,,,,,,,,,,,,,,,,,,,,,,,,,
,,,,,,,,,,,,,,,,,614dd1f943ec0b21335f6421,65,2022-02-12_16h41.54.383,lexical_decision_task_DD,2021.2.3,Win32,59.94844434,,,,,,,,,,,0.6772,1,,,,,,,,,,,,,,m,1,0.6772,,,,,,,,0.152777778,-0.44537037,0,0,0,,0,42,42,2,1,BEARD,LB,old,m,./images/BEARDLB.png,,,,,,,,,,,,,,,,,,,,,,,,,,,,,,,,,,,
,,,,,,,,,,,,,,,,,614dd1f943ec0b21335f6421,65,2022-02-12_16h41.54.383,lexical_decision_task_DD,2021.2.3,Win32,59.94844434,,,,,,,,,,,0.6494,1,,,,,,,,,,,,,,z,1,0.6494,,,,,,,,0.152777778,-0.44537037,0,0,0,,0,43,43,165,1,TROWN,C,old,z,./images/TROWN.png,,,,,,,,,,,,,,,,,,,,,,,,,,,,,,,,,,,
,,,,,,,,,,,,,,,,,614dd1f943ec0b21335f6421,65,2022-02-12_16h41.54.383,lexical_decision_task_DD,2021.2.3,Win32,59.94844434,,,,,,,,,,,0.7321,1,,,,,,,,,,,,,,m,1,0.7321,,,,,,,,0.152777778,-0.44537037,0,0,0,,0,44,44,33,1,MAGGOT,C,old,m,./images/MAGGOT.png,,,,,,,,,,,,,,,,,,,,,,,,,,,,,,,,,,,
,,,,,,,,,,,,,,,,,614dd1f943ec0b21335f6421,65,2022-02-12_16h41.54.383,lexical_decision_task_DD,2021.2.3,Win32,59.94844434,,,,,,,,,,,0.5226,1,,,,,,,,,,,,,,m,1,0.5226,,,,,,,,0.152777778,-0.44537037,0,0,0,,0,45,45,63,1,MIRROR,C,old,m,./images/MIRROR.png,,,,,,,,,,,,,,,,,,,,,,,,,,,,,,,,,,,
,,,,,,,,,,,,,,,,,614dd1f943ec0b21335f6421,65,2022-02-12_16h41.54.383,lexical_decision_task_DD,2021.2.3,Win32,59.94844434,,,,,,,,,,,0.9291,1,,,,,,,,,,,,,,z,1,0.9291,,,,,,,,0.152777778,-0.44537037,0,0,0,,0,46,46,124,1,TUNCH,HB,old,z,./images/TUNCHHB.png,,,,,,,,,,,,,,,,,,,,,,,,,,,,,,,,,,,
,,,,,,,,,,,,,,,,,614dd1f943ec0b21335f6421,65,2022-02-12_16h41.54.383,lexical_decision_task_DD,2021.2.3,Win32,59.94844434,,,,,,,,,,,0.763,1,,,,,,,,,,,,,,m,1,0.763,,,,,,,,0.152777778,-0.44537037,0,0,0,,0,47,47,72,1,NOOSE,C,old,m,./images/NOOSE.png,,,,,,,,,,,,,,,,,,,,,,,,,,,,,,,,,,,
,,,,,,,,,,,,,,,,,614dd1f943ec0b21335f6421,65,2022-02-12_16h41.54.383,lexical_decision_task_DD,2021.2.3,Win32,59.94844434,,,,,,,,,,,0.7782,1,,,,,,,,,,,,,,z,1,0.7782,,,,,,,,0.152777778,-0.44537037,0,0,0,,0,48,48,92,1,PAIMS,LB,old,z,./images/PAIMSLB.png,,,,,,,,,,,,,,,,,,,,,,,,,,,,,,,,,,,
,,,,,,,,,,,,,,,,,614dd1f943ec0b21335f6421,65,2022-02-12_16h41.54.383,lexical_decision_task_DD,2021.2.3,Win32,59.94844434,,,,,,,,,,,0.7869,1,,,,,,,,,,,,,,z,1,0.7869,,,,,,,,0.152777778,-0.44537037,0,0,0,,0,49,49,95,1,HANTY,LB,old,z,./images/HANTYLB.png,,,,,,,,,,,,,,,,,,,,,,,,,,,,,,,,,,,
,,,,,,,,,,,,,,,,,614dd1f943ec0b21335f6421,65,2022-02-12_16h41.54.383,lexical_decision_task_DD,2021.2.3,Win32,59.94844434,,,,,,,,,,,0.7624,1,,,,,,,,,,,,,,z,1,0.7624,,,,,,,,0.152777778,-0.44537037,0,0,0,,0,50,50,125,1,MOOKY,LB,old,z,./images/MOOKYLB.png,,,,,,,,,,,,,,,,,,,,,,,,,,,,,,,,,,,
,,,,,,,,,,,,,,,,,614dd1f943ec0b21335f6421,65,2022-02-12_16h41.54.383,lexical_decision_task_DD,2021.2.3,Win32,59.94844434,,,,,,,,,,,0.7343,1,,,,,,,,,,,,,,z,1,0.7343,,,,,,,,0.152777778,-0.44537037,0,0,0,,0,51,51,98,1,BAMPS,LB,old,z,./images/BAMPSLB.png,,,,,,,,,,,,,,,,,,,,,,,,,,,,,,,,,,,
,,,,,,,,,,,,,,,,,614dd1f943ec0b21335f6421,65,2022-02-12_16h41.54.383,lexical_decision_task_DD,2021.2.3,Win32,59.94844434,,,,,,,,,,,1.0291,1,,,,,,,,,,,,,,z,1,1.0291,,,,,,,,0.152777778,-0.44537037,0,0,0,,0,52,52,160,1,VEETS,HB,old,z,./images/VEETSHB.png,,,,,,,,,,,,,,,,,,,,,,,,,,,,,,,,,,,
,,,,,,,,,,,,,,,,,614dd1f943ec0b21335f6421,65,2022-02-12_16h41.54.383,lexical_decision_task_DD,2021.2.3,Win32,59.94844434,,,,,,,,,,,0.8978,1,,,,,,,,,,,,,,m,1,0.8978,,,,,,,,0.152777778,-0.44537037,0,0,0,,0,53,53,9,1,RHINO,C,old,m,./images/RHINO.png,,,,,,,,,,,,,,,,,,,,,,,,,,,,,,,,,,,
,,,,,,,,,,,,,,,,,614dd1f943ec0b21335f6421,65,2022-02-12_16h41.54.383,lexical_decision_task_DD,2021.2.3,Win32,59.94844434,,,,,,,,,,,0.9248,1,,,,,,,,,,,,,,m,1,0.9248,,,,,,,,0.152777778,-0.44537037,0,0,0,,0,54,54,10,1,BELLY,HB,old,m,./images/BELLYHB.png,,,,,,,,,,,,,,,,,,,,,,,,,,,,,,,,,,,
,,,,,,,,,,,,,,,,,614dd1f943ec0b21335f6421,65,2022-02-12_16h41.54.383,lexical_decision_task_DD,2021.2.3,Win32,59.94844434,,,,,,,,,,,0.6389,1,,,,,,,,,,,,,,m,1,0.6389,,,,,,,,0.152777778,-0.44537037,0,0,0,,0,55,55,47,1,BERRY,LB,old,m,./images/BERRYLB.png,,,,,,,,,,,,,,,,,,,,,,,,,,,,,,,,,,,
,,,,,,,,,,,,,,,,,614dd1f943ec0b21335f6421,65,2022-02-12_16h41.54.383,lexical_decision_task_DD,2021.2.3,Win32,59.94844434,,,,,,,,,,,0.636,1,,,,,,,,,,,,,,m,1,0.636,,,,,,,,0.152777778,-0.44537037,0,0,0,,0,56,56,29,1,CRUMB,LB,old,m,./images/CRUMBLB.png,,,,,,,,,,,,,,,,,,,,,,,,,,,,,,,,,,,
,,,,,,,,,,,,,,,,,614dd1f943ec0b21335f6421,65,2022-02-12_16h41.54.383,lexical_decision_task_DD,2021.2.3,Win32,59.94844434,,,,,,,,,,,1.2023,1,,,,,,,,,,,,,,z,1,1.2023,,,,,,,,0.152777778,-0.44537037,0,0,0,,0,57,57,118,1,BAVEL,HB,old,z,./images/BAVELHB.png,,,,,,,,,,,,,,,,,,,,,,,,,,,,,,,,,,,
,,,,,,,,,,,,,,,,,614dd1f943ec0b21335f6421,65,2022-02-12_16h41.54.383,lexical_decision_task_DD,2021.2.3,Win32,59.94844434,,,,,,,,,,,0.5884,1,,,,,,,,,,,,,,m,1,0.5884,,,,,,,,0.152777778,-0.44537037,0,0,0,,0,58,58,21,1,KIDNEY,C,old,m,./images/KIDNEY.png,,,,,,,,,,,,,,,,,,,,,,,,,,,,,,,,,,,
,,,,,,,,,,,,,,,,,614dd1f943ec0b21335f6421,65,2022-02-12_16h41.54.383,lexical_decision_task_DD,2021.2.3,Win32,59.94844434,,,,,,,,,,,0.6559,1,,,,,,,,,,,,,,z,1,0.6559,,,,,,,,0.152777778,-0.44537037,0,0,0,,0,59,59,135,1,JOODY,C,old,z,./images/JOODY.png,,,,,,,,,,,,,,,,,,,,,,,,,,,,,,,,,,,
,,,,,,,,,,,,,,,,,614dd1f943ec0b21335f6421,65,2022-02-12_16h41.54.383,lexical_decision_task_DD,2021.2.3,Win32,59.94844434,,,,,,,,,,,0.703,1,,,,,,,,,,,,,,z,1,0.703,,,,,,,,0.152777778,-0.44537037,0,0,0,,0,60,60,105,1,MOKER,C,old,z,./images/MOKER.png,,,,,,,,,,,,,,,,,,,,,,,,,,,,,,,,,,,
,,,,,,,,,,,,,,,,,614dd1f943ec0b21335f6421,65,2022-02-12_16h41.54.383,lexical_decision_task_DD,2021.2.3,Win32,59.94844434,,,,,,,,,,,1.7672,1,,,,,,,,,,,,,,z,1,1.7672,,,,,,,,0.152777778,-0.44537037,0,0,0,,0,61,61,157,1,INLER,HB,old,z,./images/INLERHB.png,,,,,,,,,,,,,,,,,,,,,,,,,,,,,,,,,,,
,,,,,,,,,,,,,,,,,614dd1f943ec0b21335f6421,65,2022-02-12_16h41.54.383,lexical_decision_task_DD,2021.2.3,Win32,59.94844434,,,,,,,,,,,1.1913,1,,,,,,,,,,,,,,m,1,1.1913,,,,,,,,0.152777778,-0.44537037,0,0,0,,0,62,62,19,1,DOUGH,HB,old,m,./images/DOUGHHB.png,,,,,,,,,,,,,,,,,,,,,,,,,,,,,,,,,,,
,,,,,,,,,,,,,,,,,614dd1f943ec0b21335f6421,65,2022-02-12_16h41.54.383,lexical_decision_task_DD,2021.2.3,Win32,59.94844434,,,,,,,,,,,0.6223,1,,,,,,,,,,,,,,m,1,0.6223,,,,,,,,0.152777778,-0.44537037,0,0,0,,0,63,63,26,1,SMOKER,LB,old,m,./images/SMOKERLB.png,,,,,,,,,,,,,,,,,,,,,,,,,,,,,,,,,,,
,,,,,,,,,,,,,,,,,614dd1f943ec0b21335f6421,65,2022-02-12_16h41.54.383,lexical_decision_task_DD,2021.2.3,Win32,59.94844434,,,,,,,,,,,0.6432,1,,,,,,,,,,,,,,m,1,0.6432,,,,,,,,0.152777778,-0.44537037,0,0,0,,0,64,64,38,1,LADDER,LB,old,m,./images/LADDERLB.png,,,,,,,,,,,,,,,,,,,,,,,,,,,,,,,,,,,
,,,,,,,,,,,,,,,,,614dd1f943ec0b21335f6421,65,2022-02-12_16h41.54.383,lexical_decision_task_DD,2021.2.3,Win32,59.94844434,,,,,,,,,,,0.9694,1,,,,,,,,,,,,,,z,1,0.9694,,,,,,,,0.152777778,-0.44537037,0,0,0,,0,65,65,136,1,WERVE,HB,old,z,./images/WERVEHB.png,,,,,,,,,,,,,,,,,,,,,,,,,,,,,,,,,,,
,,,,,,,,,,,,,,,,,614dd1f943ec0b21335f6421,65,2022-02-12_16h41.54.383,lexical_decision_task_DD,2021.2.3,Win32,59.94844434,,,,,,,,,,,0.6239,1,,,,,,,,,,,,,,z,1,0.6239,,,,,,,,0.152777778,-0.44537037,0,0,0,,0,66,66,155,1,CANGY,LB,old,z,./images/CANGYLB.png,,,,,,,,,,,,,,,,,,,,,,,,,,,,,,,,,,,
,,,,,,,,,,,,,,,,,614dd1f943ec0b21335f6421,65,2022-02-12_16h41.54.383,lexical_decision_task_DD,2021.2.3,Win32,59.94844434,,,,,,,,,,,0.7036,1,,,,,,,,,,,,,,m,1,0.7036,,,,,,,,0.152777778,-0.44537037,0,0,0,,0,67,67,17,1,SKIING,LB,old,m,./images/SKIINGLB.png,,,,,,,,,,,,,,,,,,,,,,,,,,,,,,,,,,,
,,,,,,,,,,,,,,,,,614dd1f943ec0b21335f6421,65,2022-02-12_16h41.54.383,lexical_decision_task_DD,2021.2.3,Win32,59.94844434,,,,,,,,,,,0.7632,1,,,,,,,,,,,,,,z,1,0.7632,,,,,,,,0.152777778,-0.44537037,0,0,0,,0,68,68,89,1,DRIEK,LB,old,z,./images/DRIEKLB.png,,,,,,,,,,,,,,,,,,,,,,,,,,,,,,,,,,,
,,,,,,,,,,,,,,,,,614dd1f943ec0b21335f6421,65,2022-02-12_16h41.54.383,lexical_decision_task_DD,2021.2.3,Win32,59.94844434,,,,,,,,,,,0.6594,1,,,,,,,,,,,,,,m,1,0.6594,,,,,,,,0.152777778,-0.44537037,0,0,0,,0,69,69,80,1,WEASEL,LB,old,m,./images/WEASELLB.png,,,,,,,,,,,,,,,,,,,,,,,,,,,,,,,,,,,
,,,,,,,,,,,,,,,,,614dd1f943ec0b21335f6421,65,2022-02-12_16h41.54.383,lexical_decision_task_DD,2021.2.3,Win32,59.94844434,,,,,,,,,,,0.9918,1,,,,,,,,,,,,,,m,1,0.9918,,,,,,,,0.152777778,-0.44537037,0,0,0,,0,70,70,13,1,MOTOR,HB,old,m,./images/MOTORHB.png,,,,,,,,,,,,,,,,,,,,,,,,,,,,,,,,,,,
,,,,,,,,,,,,,,,,,614dd1f943ec0b21335f6421,65,2022-02-12_16h41.54.383,lexical_decision_task_DD,2021.2.3,Win32,59.94844434,,,,,,,,,,,0.8342,1,,,,,,,,,,,,,,m,1,0.8342,,,,,,,,0.152777778,-0.44537037,0,0,0,,0,71,71,22,1,MELON,HB,old,m,./images/MELONHB.png,,,,,,,,,,,,,,,,,,,,,,,,,,,,,,,,,,,
,,,,,,,,,,,,,,,,,614dd1f943ec0b21335f6421,65,2022-02-12_16h41.54.383,lexical_decision_task_DD,2021.2.3,Win32,59.94844434,,,,,,,,,,,0.6675,1,,,,,,,,,,,,,,z,1,0.6675,,,,,,,,0.152777778,-0.44537037,0,0,0,,0,72,72,167,1,ZONET,LB,old,z,./images/ZONETLB.png,,,,,,,,,,,,,,,,,,,,,,,,,,,,,,,,,,,
,,,,,,,,,,,,,,,,,614dd1f943ec0b21335f6421,65,2022-02-12_16h41.54.383,lexical_decision_task_DD,2021.2.3,Win32,59.94844434,,,,,,,,,,,0.7208,1,,,,,,,,,,,,,,z,1,0.7208,,,,,,,,0.152777778,-0.44537037,0,0,0,,0,73,73,161,1,BLAPS,LB,old,z,./images/BLAPSLB.png,,,,,,,,,,,,,,,,,,,,,,,,,,,,,,,,,,,
,,,,,,,,,,,,,,,,,614dd1f943ec0b21335f6421,65,2022-02-12_16h41.54.383,lexical_decision_task_DD,2021.2.3,Win32,59.94844434,,,,,,,,,,,0.6556,1,,,,,,,,,,,,,,m,1,0.6556,,,,,,,,0.152777778,-0.44537037,0,0,0,,0,74,74,69,1,COOKER,C,old,m,./images/COOKER.png,,,,,,,,,,,,,,,,,,,,,,,,,,,,,,,,,,,
,,,,,,,,,,,,,,,,,614dd1f943ec0b21335f6421,65,2022-02-12_16h41.54.383,lexical_decision_task_DD,2021.2.3,Win32,59.94844434,,,,,,,,,,,0.9272,1,,,,,,,,,,,,,,m,1,0.9272,,,,,,,,0.152777778,-0.44537037,0,0,0,,0,75,75,16,1,PENCE,HB,old,m,./images/PENCEHB.png,,,,,,,,,,,,,,,,,,,,,,,,,,,,,,,,,,,
,,,,,,,,,,,,,,,,,614dd1f943ec0b21335f6421,65,2022-02-12_16h41.54.383,lexical_decision_task_DD,2021.2.3,Win32,59.94844434,,,,,,,,,,,1.4339,1,,,,,,,,,,,,,,z,1,1.4339,,,,,,,,0.152777778,-0.44537037,0,0,0,,0,76,76,133,1,POWDY,HB,old,z,./images/POWDYHB.png,,,,,,,,,,,,,,,,,,,,,,,,,,,,,,,,,,,
,,,,,,,,,,,,,,,,,614dd1f943ec0b21335f6421,65,2022-02-12_16h41.54.383,lexical_decision_task_DD,2021.2.3,Win32,59.94844434,,,,,,,,,,,0.7191,1,,,,,,,,,,,,,,m,1,0.7191,,,,,,,,0.152777778,-0.44537037,0,0,0,,0,77,77,61,1,CANDLE,HB,old,m,./images/CANDLEHB.png,,,,,,,,,,,,,,,,,,,,,,,,,,,,,,,,,,,
,,,,,,,,,,,,,,,,,614dd1f943ec0b21335f6421,65,2022-02-12_16h41.54.383,lexical_decision_task_DD,2021.2.3,Win32,59.94844434,,,,,,,,,,,0.7771,1,,,,,,,,,,,,,,z,1,0.7771,,,,,,,,0.152777778,-0.44537037,0,0,0,,0,78,78,148,1,JOMS,HB,old,z,./images/JOMSHB.png,,,,,,,,,,,,,,,,,,,,,,,,,,,,,,,,,,,
,,,,,,,,,,,,,,,,,614dd1f943ec0b21335f6421,65,2022-02-12_16h41.54.383,lexical_decision_task_DD,2021.2.3,Win32,59.94844434,,,,,,,,,,,0.6736,1,,,,,,,,,,,,,,m,1,0.6736,,,,,,,,0.152777778,-0.44537037,0,0,0,,0,79,79,59,1,BURIAL,LB,old,m,./images/BURIALLB.png,,,,,,,,,,,,,,,,,,,,,,,,,,,,,,,,,,,
,,,,,,,,,,,,,,,,,614dd1f943ec0b21335f6421,65,2022-02-12_16h41.54.383,lexical_decision_task_DD,2021.2.3,Win32,59.94844434,,,,,,,,,,,0.9714,1,,,,,,,,,,,,,,z,1,0.9714,,,,,,,,0.152777778,-0.44537037,0,0,0,,0,80,80,108,1,GRUET,C,old,z,./images/GRUET.png,,,,,,,,,,,,,,,,,,,,,,,,,,,,,,,,,,,
,,,,,,,,,,,,,,,,,614dd1f943ec0b21335f6421,65,2022-02-12_16h41.54.383,lexical_decision_task_DD,2021.2.3,Win32,59.94844434,,,,,,,,,,,0.7407,1,,,,,,,,,,,,,,z,1,0.7407,,,,,,,,0.152777778,-0.44537037,0,0,0,,0,81,81,86,1,AIFED,LB,old,z,./images/AIFEDLB.png,,,,,,,,,,,,,,,,,,,,,,,,,,,,,,,,,,,
,,,,,,,,,,,,,,,,,614dd1f943ec0b21335f6421,65,2022-02-12_16h41.54.383,lexical_decision_task_DD,2021.2.3,Win32,59.94844434,,,,,,,,,,,0.6545,1,,,,,,,,,,,,,,m,1,0.6545,,,,,,,,0.152777778,-0.44537037,0,0,0,,0,82,82,56,1,PACKET,LB,old,m,./images/PACKETLB.png,,,,,,,,,,,,,,,,,,,,,,,,,,,,,,,,,,,
,,,,,,,,,,,,,,,,,614dd1f943ec0b21335f6421,65,2022-02-12_16h41.54.383,lexical_decision_task_DD,2021.2.3,Win32,59.94844434,,,,,,,,,,,0.6032,1,,,,,,,,,,,,,,m,1,0.6032,,,,,,,,0.152777778,-0.44537037,0,0,0,space,0,83,83,5,1,PASTA,LB,old,m,./images/PASTALB.png,9.7063,,,,,,,,,,,,,,,,,,,,,,,,,,,,,,,,,,
,,,,,,,,,,,,,,,,,614dd1f943ec0b21335f6421,65,2022-02-12_16h41.54.383,lexical_decision_task_DD,2021.2.3,Win32,59.94844434,,,,,,,,,,,0.6511,1,,,,,,,,,,,,,,z,1,0.6511,,,,,,,,0.152777778,-0.44537037,0,0,0,,0,84,84,153,1,CLUPS,C,old,z,./images/CLUPS.png,,,,,,,,,,,,,,,,,,,,,,,,,,,,,,,,,,,
,,,,,,,,,,,,,,,,,614dd1f943ec0b21335f6421,65,2022-02-12_16h41.54.383,lexical_decision_task_DD,2021.2.3,Win32,59.94844434,,,,,,,,,,,0.7116,1,,,,,,,,,,,,,,m,1,0.7116,,,,,,,,0.152777778,-0.44537037,0,0,0,,0,85,85,34,1,CANYON,HB,old,m,./images/CANYONHB.png,,,,,,,,,,,,,,,,,,,,,,,,,,,,,,,,,,,
,,,,,,,,,,,,,,,,,614dd1f943ec0b21335f6421,65,2022-02-12_16h41.54.383,lexical_decision_task_DD,2021.2.3,Win32,59.94844434,,,,,,,,,,,0.5989,1,,,,,,,,,,,,,,m,1,0.5989,,,,,,,,0.152777778,-0.44537037,0,0,0,,0,86,86,78,1,LITTER,C,old,m,./images/LITTER.png,,,,,,,,,,,,,,,,,,,,,,,,,,,,,,,,,,,
,,,,,,,,,,,,,,,,,614dd1f943ec0b21335f6421,65,2022-02-12_16h41.54.383,lexical_decision_task_DD,2021.2.3,Win32,59.94844434,,,,,,,,,,,0.5733,1,,,,,,,,,,,,,,z,1,0.5733,,,,,,,,0.152777778,-0.44537037,0,0,0,,0,87,87,114,1,RIKES,C,old,z,./images/RIKES.png,,,,,,,,,,,,,,,,,,,,,,,,,,,,,,,,,,,
,,,,,,,,,,,,,,,,,614dd1f943ec0b21335f6421,65,2022-02-12_16h41.54.383,lexical_decision_task_DD,2021.2.3,Win32,59.94844434,,,,,,,,,,,1.0731,1,,,,,,,,,,,,,,z,1,1.0731,,,,,,,,0.152777778,-0.44537037,0,0,0,,0,88,88,139,1,BLEAR,HB,old,z,./images/BLEARHB.png,,,,,,,,,,,,,,,,,,,,,,,,,,,,,,,,,,,
,,,,,,,,,,,,,,,,,614dd1f943ec0b21335f6421,65,2022-02-12_16h41.54.383,lexical_decision_task_DD,2021.2.3,Win32,59.94844434,,,,,,,,,,,1.0826,1,,,,,,,,,,,,,,z,1,1.0826,,,,,,,,0.152777778,-0.44537037,0,0,0,,0,89,89,109,1,BURGE,HB,old,z,./images/BURGEHB.png,,,,,,,,,,,,,,,,,,,,,,,,,,,,,,,,,,,
,,,,,,,,,,,,,,,,,614dd1f943ec0b21335f6421,65,2022-02-12_16h41.54.383,lexical_decision_task_DD,2021.2.3,Win32,59.94844434,,,,,,,,,,,0.6212,1,,,,,,,,,,,,,,m,1,0.6212,,,,,,,,0.152777778,-0.44537037,0,0,0,,0,90,90,48,1,SPORT,C,old,m,./images/SPORT.png,,,,,,,,,,,,,,,,,,,,,,,,,,,,,,,,,,,
,,,,,,,,,,,,,,,,,614dd1f943ec0b21335f6421,65,2022-02-12_16h41.54.383,lexical_decision_task_DD,2021.2.3,Win32,59.94844434,,,,,,,,,,,0.6877,1,,,,,,,,,,,,,,z,1,0.6877,,,,,,,,0.152777778,-0.44537037,0,0,0,,0,91,91,149,1,VEASE,LB,old,z,./images/VEASELB.png,,,,,,,,,,,,,,,,,,,,,,,,,,,,,,,,,,,
,,,,,,,,,,,,,,,,,614dd1f943ec0b21335f6421,65,2022-02-12_16h41.54.383,lexical_decision_task_DD,2021.2.3,Win32,59.94844434,,,,,,,,,,,0.7073,1,,,,,,,,,,,,,,m,1,0.7073,,,,,,,,0.152777778,-0.44537037,0,0,0,,0,92,92,12,1,SHORE,C,old,m,./images/SHORE.png,,,,,,,,,,,,,,,,,,,,,,,,,,,,,,,,,,,
,,,,,,,,,,,,,,,,,614dd1f943ec0b21335f6421,65,2022-02-12_16h41.54.383,lexical_decision_task_DD,2021.2.3,Win32,59.94844434,,,,,,,,,,,1.774,1,,,,,,,,,,,,,,m,1,1.774,,,,,,,,0.152777778,-0.44537037,0,0,0,,0,93,93,82,1,SUNSET,HB,old,m,./images/SUNSETHB.png,,,,,,,,,,,,,,,,,,,,,,,,,,,,,,,,,,,
,,,,,,,,,,,,,,,,,614dd1f943ec0b21335f6421,65,2022-02-12_16h41.54.383,lexical_decision_task_DD,2021.2.3,Win32,59.94844434,,,,,,,,,,,0.5493,1,,,,,,,,,,,,,,z,1,0.5493,,,,,,,,0.152777778,-0.44537037,0,0,0,,0,94,94,132,1,SCIFF,C,old,z,./images/SCIFF.png,,,,,,,,,,,,,,,,,,,,,,,,,,,,,,,,,,,
,,,,,,,,,,,,,,,,,614dd1f943ec0b21335f6421,65,2022-02-12_16h41.54.383,lexical_decision_task_DD,2021.2.3,Win32,59.94844434,,,,,,,,,,,0.7342,1,,,,,,,,,,,,,,z,1,0.7342,,,,,,,,0.152777778,-0.44537037,0,0,0,,0,95,95,158,1,EGECT,LB,old,z,./images/EGECTLB.png,,,,,,,,,,,,,,,,,,,,,,,,,,,,,,,,,,,
,,,,,,,,,,,,,,,,,614dd1f943ec0b21335f6421,65,2022-02-12_16h41.54.383,lexical_decision_task_DD,2021.2.3,Win32,59.94844434,,,,,,,,,,,0.8566,1,,,,,,,,,,,,,,m,1,0.8566,,,,,,,,0.152777778,-0.44537037,0,0,0,,0,96,96,50,1,MALLET,LB,old,m,./images/MALLETLB.png,,,,,,,,,,,,,,,,,,,,,,,,,,,,,,,,,,,
,,,,,,,,,,,,,,,,,614dd1f943ec0b21335f6421,65,2022-02-12_16h41.54.383,lexical_decision_task_DD,2021.2.3,Win32,59.94844434,,,,,,,,,,,0.6896,1,,,,,,,,,,,,,,z,1,0.6896,,,,,,,,0.152777778,-0.44537037,0,0,0,,0,97,97,107,1,FASKS,LB,old,z,./images/FASKSLB.png,,,,,,,,,,,,,,,,,,,,,,,,,,,,,,,,,,,
,,,,,,,,,,,,,,,,,614dd1f943ec0b21335f6421,65,2022-02-12_16h41.54.383,lexical_decision_task_DD,2021.2.3,Win32,59.94844434,,,,,,,,,,,0.6408,1,,,,,,,,,,,,,,m,1,0.6408,,,,,,,,0.152777778,-0.44537037,0,0,0,,0,98,98,62,1,PURSE,LB,old,m,./images/PURSELB.png,,,,,,,,,,,,,,,,,,,,,,,,,,,,,,,,,,,
,,,,,,,,,,,,,,,,,614dd1f943ec0b21335f6421,65,2022-02-12_16h41.54.383,lexical_decision_task_DD,2021.2.3,Win32,59.94844434,,,,,,,,,,,1.0947,1,,,,,,,,,,,,,,z,1,1.0947,,,,,,,,0.152777778,-0.44537037,0,0,0,,0,99,99,130,1,CRILL,HB,old,z,./images/CRILLHB.png,,,,,,,,,,,,,,,,,,,,,,,,,,,,,,,,,,,
,,,,,,,,,,,,,,,,,614dd1f943ec0b21335f6421,65,2022-02-12_16h41.54.383,lexical_decision_task_DD,2021.2.3,Win32,59.94844434,,,,,,,,,,,0.5928,1,,,,,,,,,,,,,,m,1,0.5928,,,,,,,,0.152777778,-0.44537037,0,0,0,,0,100,100,83,1,JUNGLE,LB,old,m,./images/JUNGLELB.png,,,,,,,,,,,,,,,,,,,,,,,,,,,,,,,,,,,
,,,,,,,,,,,,,,,,,614dd1f943ec0b21335f6421,65,2022-02-12_16h41.54.383,lexical_decision_task_DD,2021.2.3,Win32,59.94844434,,,,,,,,,,,0.8937,1,,,,,,,,,,,,,,m,1,0.8937,,,,,,,,0.152777778,-0.44537037,0,0,0,,0,101,101,65,1,FARMER,LB,old,m,./images/FARMERLB.png,,,,,,,,,,,,,,,,,,,,,,,,,,,,,,,,,,,
,,,,,,,,,,,,,,,,,614dd1f943ec0b21335f6421,65,2022-02-12_16h41.54.383,lexical_decision_task_DD,2021.2.3,Win32,59.94844434,,,,,,,,,,,0.5606,1,,,,,,,,,,,,,,m,1,0.5606,,,,,,,,0.152777778,-0.44537037,0,0,0,,0,102,102,3,1,FINGER,C,old,m,./images/FINGER.png,,,,,,,,,,,,,,,,,,,,,,,,,,,,,,,,,,,
,,,,,,,,,,,,,,,,,614dd1f943ec0b21335f6421,65,2022-02-12_16h41.54.383,lexical_decision_task_DD,2021.2.3,Win32,59.94844434,,,,,,,,,,,0.6494,1,,,,,,,,,,,,,,z,1,0.6494,,,,,,,,0.152777778,-0.44537037,0,0,0,,0,103,103,111,1,HOSSE,C,old,z,./images/HOSSE.png,,,,,,,,,,,,,,,,,,,,,,,,,,,,,,,,,,,
,,,,,,,,,,,,,,,,,614dd1f943ec0b21335f6421,65,2022-02-12_16h41.54.383,lexical_decision_task_DD,2021.2.3,Win32,59.94844434,,,,,,,,,,,1.0895,1,,,,,,,,,,,,,,m,1,1.0895,,,,,,,,0.152777778,-0.44537037,0,0,0,,0,104,104,67,1,SAILOR,HB,old,m,./images/SAILORHB.png,,,,,,,,,,,,,,,,,,,,,,,,,,,,,,,,,,,
,,,,,,,,,,,,,,,,,614dd1f943ec0b21335f6421,65,2022-02-12_16h41.54.383,lexical_decision_task_DD,2021.2.3,Win32,59.94844434,,,,,,,,,,,0.6266,1,,,,,,,,,,,,,,z,1,0.6266,,,,,,,,0.152777778,-0.44537037,0,0,0,,0,105,105,144,1,NAIRY,C,old,z,./images/NAIRY.png,,,,,,,,,,,,,,,,,,,,,,,,,,,,,,,,,,,
,,,,,,,,,,,,,,,,,614dd1f943ec0b21335f6421,65,2022-02-12_16h41.54.383,lexical_decision_task_DD,2021.2.3,Win32,59.94844434,,,,,,,,,,,2.4245,1,,,,,,,,,,,,,,z,1,2.4245,,,,,,,,0.152777778,-0.44537037,0,0,0,,0,106,106,112,1,MYING,HB,old,z,./images/MYINGHB.png,,,,,,,,,,,,,,,,,,,,,,,,,,,,,,,,,,,
,,,,,,,,,,,,,,,,,614dd1f943ec0b21335f6421,65,2022-02-12_16h41.54.383,lexical_decision_task_DD,2021.2.3,Win32,59.94844434,,,,,,,,,,,1.0789,0,,,,,,,,,,,,,,m,0,1.0789,,,,,,,,0.152777778,-0.44537037,0,0,0,,0,107,107,123,1,SEDGE,C,old,z,./images/SEDGE.png,,,,,,,,,,,,,,,,,,,,,,,,,,,,,,,,,,,
,,,,,,,,,,,,,,,,,614dd1f943ec0b21335f6421,65,2022-02-12_16h41.54.383,lexical_decision_task_DD,2021.2.3,Win32,59.94844434,,,,,,,,,,,0.7778,1,,,,,,,,,,,,,,m,1,0.7778,,,,,,,,0.152777778,-0.44537037,0,0,0,,0,108,108,27,1,ATTIC,C,old,m,./images/ATTIC.png,,,,,,,,,,,,,,,,,,,,,,,,,,,,,,,,,,,
,,,,,,,,,,,,,,,,,614dd1f943ec0b21335f6421,65,2022-02-12_16h41.54.383,lexical_decision_task_DD,2021.2.3,Win32,59.94844434,,,,,,,,,,,1.167,1,,,,,,,,,,,,,,z,1,1.167,,,,,,,,0.152777778,-0.44537037,0,0,0,,0,109,109,121,1,CEERS,HB,old,z,./images/CEERSHB.png,,,,,,,,,,,,,,,,,,,,,,,,,,,,,,,,,,,
,,,,,,,,,,,,,,,,,614dd1f943ec0b21335f6421,65,2022-02-12_16h41.54.383,lexical_decision_task_DD,2021.2.3,Win32,59.94844434,,,,,,,,,,,0.7242,1,,,,,,,,,,,,,,z,1,0.7242,,,,,,,,0.152777778,-0.44537037,0,0,0,,0,110,110,87,1,TRING,C,old,z,./images/TRING.png,,,,,,,,,,,,,,,,,,,,,,,,,,,,,,,,,,,
,,,,,,,,,,,,,,,,,614dd1f943ec0b21335f6421,65,2022-02-12_16h41.54.383,lexical_decision_task_DD,2021.2.3,Win32,59.94844434,,,,,,,,,,,1.1095,1,,,,,,,,,,,,,,m,1,1.1095,,,,,,,,0.152777778,-0.44537037,0,0,0,,0,111,111,70,1,URINE,HB,old,m,./images/URINEHB.png,,,,,,,,,,,,,,,,,,,,,,,,,,,,,,,,,,,
,,,,,,,,,,,,,,,,,614dd1f943ec0b21335f6421,65,2022-02-12_16h41.54.383,lexical_decision_task_DD,2021.2.3,Win32,59.94844434,,,,,,,,,,,1.0241,1,,,,,,,,,,,,,,z,1,1.0241,,,,,,,,0.152777778,-0.44537037,0,0,0,,0,112,112,142,1,PLASK,HB,old,z,./images/PLASKHB.png,,,,,,,,,,,,,,,,,,,,,,,,,,,,,,,,,,,
,,,,,,,,,,,,,,,,,614dd1f943ec0b21335f6421,65,2022-02-12_16h41.54.383,lexical_decision_task_DD,2021.2.3,Win32,59.94844434,,,,,,,,,,,1.6604,1,,,,,,,,,,,,,,z,1,1.6604,,,,,,,,0.152777778,-0.44537037,0,0,0,,0,113,113,97,1,CHIDS,HB,old,z,./images/CHIDSHB.png,,,,,,,,,,,,,,,,,,,,,,,,,,,,,,,,,,,
,,,,,,,,,,,,,,,,,614dd1f943ec0b21335f6421,65,2022-02-12_16h41.54.383,lexical_decision_task_DD,2021.2.3,Win32,59.94844434,,,,,,,,,,,1.9339,1,,,,,,,,,,,,,,z,1,1.9339,,,,,,,,0.152777778,-0.44537037,0,0,0,,0,114,114,166,1,SHORY,HB,old,z,./images/SHORYHB.png,,,,,,,,,,,,,,,,,,,,,,,,,,,,,,,,,,,
,,,,,,,,,,,,,,,,,614dd1f943ec0b21335f6421,65,2022-02-12_16h41.54.383,lexical_decision_task_DD,2021.2.3,Win32,59.94844434,,,,,,,,,,,0.9509,1,,,,,,,,,,,,,,z,1,0.9509,,,,,,,,0.152777778,-0.44537037,0,0,0,,0,115,115,90,1,NEAST,C,old,z,./images/NEAST.png,,,,,,,,,,,,,,,,,,,,,,,,,,,,,,,,,,,
,,,,,,,,,,,,,,,,,614dd1f943ec0b21335f6421,65,2022-02-12_16h41.54.383,lexical_decision_task_DD,2021.2.3,Win32,59.94844434,,,,,,,,,,,0.701,1,,,,,,,,,,,,,,m,1,0.701,,,,,,,,0.152777778,-0.44537037,0,0,0,,0,116,116,77,1,COUCH,LB,old,m,./images/COUCHLB.png,,,,,,,,,,,,,,,,,,,,,,,,,,,,,,,,,,,
,,,,,,,,,,,,,,,,,614dd1f943ec0b21335f6421,65,2022-02-12_16h41.54.383,lexical_decision_task_DD,2021.2.3,Win32,59.94844434,,,,,,,,,,,0.8394,1,,,,,,,,,,,,,,z,1,0.8394,,,,,,,,0.152777778,-0.44537037,0,0,0,,0,117,117,131,1,NACES,LB,old,z,./images/NACESLB.png,,,,,,,,,,,,,,,,,,,,,,,,,,,,,,,,,,,
,,,,,,,,,,,,,,,,,614dd1f943ec0b21335f6421,65,2022-02-12_16h41.54.383,lexical_decision_task_DD,2021.2.3,Win32,59.94844434,,,,,,,,,,,1.052,1,,,,,,,,,,,,,,z,1,1.052,,,,,,,,0.152777778,-0.44537037,0,0,0,,0,118,118,102,1,DULLE,C,old,z,./images/DULLE.png,,,,,,,,,,,,,,,,,,,,,,,,,,,,,,,,,,,
,,,,,,,,,,,,,,,,,614dd1f943ec0b21335f6421,65,2022-02-12_16h41.54.383,lexical_decision_task_DD,2021.2.3,Win32,59.94844434,,,,,,,,,,,0.6405,1,,,,,,,,,,,,,,m,1,0.6405,,,,,,,,0.152777778,-0.44537037,0,0,0,,0,119,119,51,1,ONION,C,old,m,./images/ONION.png,,,,,,,,,,,,,,,,,,,,,,,,,,,,,,,,,,,
,,,,,,,,,,,,,,,,,614dd1f943ec0b21335f6421,65,2022-02-12_16h41.54.383,lexical_decision_task_DD,2021.2.3,Win32,59.94844434,,,,,,,,,,,0.6456,1,,,,,,,,,,,,,,m,1,0.6456,,,,,,,,0.152777778,-0.44537037,0,0,0,,0,120,120,74,1,CEMENT,LB,old,m,./images/CEMENTLB.png,,,,,,,,,,,,,,,,,,,,,,,,,,,,,,,,,,,
,,,,,,,,,,,,,,,,,614dd1f943ec0b21335f6421,65,2022-02-12_16h41.54.383,lexical_decision_task_DD,2021.2.3,Win32,59.94844434,,,,,,,,,,,0.8922,1,,,,,,,,,,,,,,m,1,0.8922,,,,,,,,0.152777778,-0.44537037,0,0,0,,0,121,121,37,1,BIRTH,HB,old,m,./images/BIRTHHB.png,,,,,,,,,,,,,,,,,,,,,,,,,,,,,,,,,,,
,,,,,,,,,,,,,,,,,614dd1f943ec0b21335f6421,65,2022-02-12_16h41.54.383,lexical_decision_task_DD,2021.2.3,Win32,59.94844434,,,,,,,,,,,0.6643,1,,,,,,,,,,,,,,z,1,0.6643,,,,,,,,0.152777778,-0.44537037,0,0,0,,0,122,122,152,1,FRAIN,LB,old,z,./images/FRAINLB.png,,,,,,,,,,,,,,,,,,,,,,,,,,,,,,,,,,,
,,,,,,,,,,,,,,,,,614dd1f943ec0b21335f6421,65,2022-02-12_16h41.54.383,lexical_decision_task_DD,2021.2.3,Win32,59.94844434,,,,,,,,,,,1.3716,1,,,,,,,,,,,,,,m,1,1.3716,,,,,,,,0.152777778,-0.44537037,0,0,0,,0,123,123,7,1,PAINT,HB,old,m,./images/PAINTHB.png,,,,,,,,,,,,,,,,,,,,,,,,,,,,,,,,,,,
,,,,,,,,,,,,,,,,,614dd1f943ec0b21335f6421,65,2022-02-12_16h41.54.383,lexical_decision_task_DD,2021.2.3,Win32,59.94844434,,,,,,,,,,,0.9863,1,,,,,,,,,,,,,,z,1,0.9863,,,,,,,,0.152777778,-0.44537037,0,0,0,,0,124,124,141,1,PLEET,C,old,z,./images/PLEET.png,,,,,,,,,,,,,,,,,,,,,,,,,,,,,,,,,,,
,,,,,,,,,,,,,,,,,614dd1f943ec0b21335f6421,65,2022-02-12_16h41.54.383,lexical_decision_task_DD,2021.2.3,Win32,59.94844434,,,,,,,,,,,0.7009,1,,,,,,,,,,,,,,m,1,0.7009,,,,,,,,0.152777778,-0.44537037,0,0,0,space,0,125,125,46,1,PEARL,HB,old,m,./images/PEARLHB.png,7.2455,,,,,,,,,,,,,,,,,,,,,,,,,,,,,,,,,,
,,,,,,,,,,,,,,,,,614dd1f943ec0b21335f6421,65,2022-02-12_16h41.54.383,lexical_decision_task_DD,2021.2.3,Win32,59.94844434,,,,,,,,,,,0.7078,1,,,,,,,,,,,,,,z,1,0.7078,,,,,,,,0.152777778,-0.44537037,0,0,0,,0,126,126,143,1,MONGS,LB,old,z,./images/MONGSLB.png,,,,,,,,,,,,,,,,,,,,,,,,,,,,,,,,,,,
,,,,,,,,,,,,,,,,,614dd1f943ec0b21335f6421,65,2022-02-12_16h41.54.383,lexical_decision_task_DD,2021.2.3,Win32,59.94844434,,,,,,,,,,,1.1015,1,,,,,,,,,,,,,,z,1,1.1015,,,,,,,,0.152777778,-0.44537037,0,0,0,,0,127,127,106,1,CLUMS,HB,old,z,./images/CLUMSHB.png,,,,,,,,,,,,,,,,,,,,,,,,,,,,,,,,,,,
,,,,,,,,,,,,,,,,,614dd1f943ec0b21335f6421,65,2022-02-12_16h41.54.383,lexical_decision_task_DD,2021.2.3,Win32,59.94844434,,,,,,,,,,,0.5921,1,,,,,,,,,,,,,,m,1,0.5921,,,,,,,,0.152777778,-0.44537037,0,0,0,,0,128,128,8,1,TULIP,LB,old,m,./images/TULIPLB.png,,,,,,,,,,,,,,,,,,,,,,,,,,,,,,,,,,,
,,,,,,,,,,,,,,,,,614dd1f943ec0b21335f6421,65,2022-02-12_16h41.54.383,lexical_decision_task_DD,2021.2.3,Win32,59.94844434,,,,,,,,,,,0.6628,1,,,,,,,,,,,,,,z,1,0.6628,,,,,,,,0.152777778,-0.44537037,0,0,0,,0,129,129,93,1,SMONE,C,old,z,./images/SMONE.png,,,,,,,,,,,,,,,,,,,,,,,,,,,,,,,,,,,
,,,,,,,,,,,,,,,,,614dd1f943ec0b21335f6421,65,2022-02-12_16h41.54.383,lexical_decision_task_DD,2021.2.3,Win32,59.94844434,,,,,,,,,,,1.4674,1,,,,,,,,,,,,,,z,1,1.4674,,,,,,,,0.152777778,-0.44537037,0,0,0,,0,130,130,115,1,MAWNS,HB,old,z,./images/MAWNSHB.png,,,,,,,,,,,,,,,,,,,,,,,,,,,,,,,,,,,
,,,,,,,,,,,,,,,,,614dd1f943ec0b21335f6421,65,2022-02-12_16h41.54.383,lexical_decision_task_DD,2021.2.3,Win32,59.94844434,,,,,,,,,,,0.5723,1,,,,,,,,,,,,,,m,1,0.5723,,,,,,,,0.152777778,-0.44537037,0,0,0,,0,131,131,81,1,POODLE,C,old,m,./images/POODLE.png,,,,,,,,,,,,,,,,,,,,,,,,,,,,,,,,,,,
,,,,,,,,,,,,,,,,,614dd1f943ec0b21335f6421,65,2022-02-12_16h41.54.383,lexical_decision_task_DD,2021.2.3,Win32,59.94844434,,,,,,,,,,,0.6174,1,,,,,,,,,,,,,,z,1,0.6174,,,,,,,,0.152777778,-0.44537037,0,0,0,,0,132,132,134,1,TROSS,LB,old,z,./images/TROSSLB.png,,,,,,,,,,,,,,,,,,,,,,,,,,,,,,,,,,,
,,,,,,,,,,,,,,,,,614dd1f943ec0b21335f6421,65,2022-02-12_16h41.54.383,lexical_decision_task_DD,2021.2.3,Win32,59.94844434,,,,,,,,,,,0.8005,1,,,,,,,,,,,,,,m,1,0.8005,,,,,,,,0.152777778,-0.44537037,0,0,0,,0,133,133,1,1,PLANK,HB,old,m,./images/PLANKHB.png,,,,,,,,,,,,,,,,,,,,,,,,,,,,,,,,,,,
,,,,,,,,,,,,,,,,,614dd1f943ec0b21335f6421,65,2022-02-12_16h41.54.383,lexical_decision_task_DD,2021.2.3,Win32,59.94844434,,,,,,,,,,,1.1965,1,,,,,,,,,,,,,,z,1,1.1965,,,,,,,,0.152777778,-0.44537037,0,0,0,,0,134,134,127,1,NINDY,HB,old,z,./images/NINDYHB.png,,,,,,,,,,,,,,,,,,,,,,,,,,,,,,,,,,,
,,,,,,,,,,,,,,,,,614dd1f943ec0b21335f6421,65,2022-02-12_16h41.54.383,lexical_decision_task_DD,2021.2.3,Win32,59.94844434,,,,,,,,,,,0.5792,1,,,,,,,,,,,,,,m,1,0.5792,,,,,,,,0.152777778,-0.44537037,0,0,0,,0,135,135,41,1,STRING,LB,old,m,./images/STRINGLB.png,,,,,,,,,,,,,,,,,,,,,,,,,,,,,,,,,,,
,,,,,,,,,,,,,,,,,614dd1f943ec0b21335f6421,65,2022-02-12_16h41.54.383,lexical_decision_task_DD,2021.2.3,Win32,59.94844434,,,,,,,,,,,0.8844,1,,,,,,,,,,,,,,m,1,0.8844,,,,,,,,0.152777778,-0.44537037,0,0,0,,0,136,136,4,1,MUSCLE,HB,old,m,./images/MUSCLEHB.png,,,,,,,,,,,,,,,,,,,,,,,,,,,,,,,,,,,
,,,,,,,,,,,,,,,,,614dd1f943ec0b21335f6421,65,2022-02-12_16h41.54.383,lexical_decision_task_DD,2021.2.3,Win32,59.94844434,,,,,,,,,,,0.5843,1,,,,,,,,,,,,,,m,1,0.5843,,,,,,,,0.152777778,-0.44537037,0,0,0,,0,137,137,53,1,CARPET,LB,old,m,./images/CARPETLB.png,,,,,,,,,,,,,,,,,,,,,,,,,,,,,,,,,,,
,,,,,,,,,,,,,,,,,614dd1f943ec0b21335f6421,65,2022-02-12_16h41.54.383,lexical_decision_task_DD,2021.2.3,Win32,59.94844434,,,,,,,,,,,0.8173,1,,,,,,,,,,,,,,z,1,0.8173,,,,,,,,0.152777778,-0.44537037,0,0,0,,0,138,138,103,1,FLORT,HB,old,z,./images/FLORTHB.png,,,,,,,,,,,,,,,,,,,,,,,,,,,,,,,,,,,
,,,,,,,,,,,,,,,,,614dd1f943ec0b21335f6421,65,2022-02-12_16h41.54.383,lexical_decision_task_DD,2021.2.3,Win32,59.94844434,,,,,,,,,,,0.7033,1,,,,,,,,,,,,,,z,1,0.7033,,,,,,,,0.152777778,-0.44537037,0,0,0,,0,139,139,84,1,HAXES,C,old,z,./images/HAXES.png,,,,,,,,,,,,,,,,,,,,,,,,,,,,,,,,,,,
,,,,,,,,,,,,,,,,,614dd1f943ec0b21335f6421,65,2022-02-12_16h41.54.383,lexical_decision_task_DD,2021.2.3,Win32,59.94844434,,,,,,,,,,,0.7843,1,,,,,,,,,,,,,,z,1,0.7843,,,,,,,,0.152777778,-0.44537037,0,0,0,,0,140,140,110,1,CRUNK,LB,old,z,./images/CRUNKLB.png,,,,,,,,,,,,,,,,,,,,,,,,,,,,,,,,,,,
,,,,,,,,,,,,,,,,,614dd1f943ec0b21335f6421,65,2022-02-12_16h41.54.383,lexical_decision_task_DD,2021.2.3,Win32,59.94844434,,,,,,,,,,,0.6126,1,,,,,,,,,,,,,,z,1,0.6126,,,,,,,,0.152777778,-0.44537037,0,0,0,,0,141,141,147,1,ZOLES,C,old,z,./images/ZOLES.png,,,,,,,,,,,,,,,,,,,,,,,,,,,,,,,,,,,
,,,,,,,,,,,,,,,,,614dd1f943ec0b21335f6421,65,2022-02-12_16h41.54.383,lexical_decision_task_DD,2021.2.3,Win32,59.94844434,,,,,,,,,,,1.6853,1,,,,,,,,,,,,,,m,1,1.6853,,,,,,,,0.152777778,-0.44537037,0,0,0,,0,142,142,28,1,FALCON,HB,old,m,./images/FALCONHB.png,,,,,,,,,,,,,,,,,,,,,,,,,,,,,,,,,,,
,,,,,,,,,,,,,,,,,614dd1f943ec0b21335f6421,65,2022-02-12_16h41.54.383,lexical_decision_task_DD,2021.2.3,Win32,59.94844434,,,,,,,,,,,0.6175,0,,,,,,,,,,,,,,m,0,0.6175,,,,,,,,0.152777778,-0.44537037,0,0,0,,0,143,143,128,1,GRIFT,LB,old,z,./images/GRIFTLB.png,,,,,,,,,,,,,,,,,,,,,,,,,,,,,,,,,,,
,,,,,,,,,,,,,,,,,614dd1f943ec0b21335f6421,65,2022-02-12_16h41.54.383,lexical_decision_task_DD,2021.2.3,Win32,59.94844434,,,,,,,,,,,0.7836,1,,,,,,,,,,,,,,m,1,0.7836,,,,,,,,0.152777778,-0.44537037,0,0,0,,0,144,144,79,1,CRUST,HB,old,m,./images/CRUSTHB.png,,,,,,,,,,,,,,,,,,,,,,,,,,,,,,,,,,,
,,,,,,,,,,,,,,,,,614dd1f943ec0b21335f6421,65,2022-02-12_16h41.54.383,lexical_decision_task_DD,2021.2.3,Win32,59.94844434,,,,,,,,,,,0.6315,1,,,,,,,,,,,,,,z,1,0.6315,,,,,,,,0.152777778,-0.44537037,0,0,0,,0,145,145,162,1,LEICH,C,old,z,./images/LEICH.png,,,,,,,,,,,,,,,,,,,,,,,,,,,,,,,,,,,
,,,,,,,,,,,,,,,,,614dd1f943ec0b21335f6421,65,2022-02-12_16h41.54.383,lexical_decision_task_DD,2021.2.3,Win32,59.94844434,,,,,,,,,,,0.707,1,,,,,,,,,,,,,,z,1,0.707,,,,,,,,0.152777778,-0.44537037,0,0,0,,0,146,146,122,1,BLOOT,LB,old,z,./images/BLOOTLB.png,,,,,,,,,,,,,,,,,,,,,,,,,,,,,,,,,,,
,,,,,,,,,,,,,,,,,614dd1f943ec0b21335f6421,65,2022-02-12_16h41.54.383,lexical_decision_task_DD,2021.2.3,Win32,59.94844434,,,,,,,,,,,0.6952,1,,,,,,,,,,,,,,m,1,0.6952,,,,,,,,0.152777778,-0.44537037,0,0,0,,0,147,147,39,1,SHELF,C,old,m,./images/SHELF.png,,,,,,,,,,,,,,,,,,,,,,,,,,,,,,,,,,,
,,,,,,,,,,,,,,,,,614dd1f943ec0b21335f6421,65,2022-02-12_16h41.54.383,lexical_decision_task_DD,2021.2.3,Win32,59.94844434,,,,,,,,,,,1.5371,1,,,,,,,,,,,,,,m,1,1.5371,,,,,,,,0.152777778,-0.44537037,0,0,0,,0,148,148,43,1,MOSQUE,HB,old,m,./images/MOSQUEHB.png,,,,,,,,,,,,,,,,,,,,,,,,,,,,,,,,,,,
,,,,,,,,,,,,,,,,,614dd1f943ec0b21335f6421,65,2022-02-12_16h41.54.383,lexical_decision_task_DD,2021.2.3,Win32,59.94844434,,,,,,,,,,,0.5774,1,,,,,,,,,,,,,,m,1,0.5774,,,,,,,,0.152777778,-0.44537037,0,0,0,,0,149,149,14,1,PICKLE,LB,old,m,./images/PICKLELB.png,,,,,,,,,,,,,,,,,,,,,,,,,,,,,,,,,,,
,,,,,,,,,,,,,,,,,614dd1f943ec0b21335f6421,65,2022-02-12_16h41.54.383,lexical_decision_task_DD,2021.2.3,Win32,59.94844434,,,,,,,,,,,0.8589,1,,,,,,,,,,,,,,m,1,0.8589,,,,,,,,0.152777778,-0.44537037,0,0,0,,0,150,150,24,1,SCREW,C,old,m,./images/SCREW.png,,,,,,,,,,,,,,,,,,,,,,,,,,,,,,,,,,,
,,,,,,,,,,,,,,,,,614dd1f943ec0b21335f6421,65,2022-02-12_16h41.54.383,lexical_decision_task_DD,2021.2.3,Win32,59.94844434,,,,,,,,,,,0.6617,1,,,,,,,,,,,,,,z,1,0.6617,,,,,,,,0.152777778,-0.44537037,0,0,0,,0,151,151,120,1,RINED,C,old,z,./images/RINED.png,,,,,,,,,,,,,,,,,,,,,,,,,,,,,,,,,,,
,,,,,,,,,,,,,,,,,614dd1f943ec0b21335f6421,65,2022-02-12_16h41.54.383,lexical_decision_task_DD,2021.2.3,Win32,59.94844434,,,,,,,,,,,0.7949,1,,,,,,,,,,,,,,z,1,0.7949,,,,,,,,0.152777778,-0.44537037,0,0,0,,0,152,152,101,1,GLEET,LB,old,z,./images/GLEETLB.png,,,,,,,,,,,,,,,,,,,,,,,,,,,,,,,,,,,
,,,,,,,,,,,,,,,,,614dd1f943ec0b21335f6421,65,2022-02-12_16h41.54.383,lexical_decision_task_DD,2021.2.3,Win32,59.94844434,,,,,,,,,,,1.0678,1,,,,,,,,,,,,,,m,1,1.0678,,,,,,,,0.152777778,-0.44537037,0,0,0,,0,153,153,73,1,SNACK,HB,old,m,./images/SNACKHB.png,,,,,,,,,,,,,,,,,,,,,,,,,,,,,,,,,,,
,,,,,,,,,,,,,,,,,614dd1f943ec0b21335f6421,65,2022-02-12_16h41.54.383,lexical_decision_task_DD,2021.2.3,Win32,59.94844434,,,,,,,,,,,1.478,1,,,,,,,,,,,,,,z,1,1.478,,,,,,,,0.152777778,-0.44537037,0,0,0,,0,154,154,85,1,CHULK,HB,old,z,./images/CHULKHB.png,,,,,,,,,,,,,,,,,,,,,,,,,,,,,,,,,,,
,,,,,,,,,,,,,,,,,614dd1f943ec0b21335f6421,65,2022-02-12_16h41.54.383,lexical_decision_task_DD,2021.2.3,Win32,59.94844434,,,,,,,,,,,1.2104,0,,,,,,,,,,,,,,z,0,1.2104,,,,,,,,0.152777778,-0.44537037,0,0,0,,0,155,155,31,1,QUILL,HB,old,m,./images/QUILLHB.png,,,,,,,,,,,,,,,,,,,,,,,,,,,,,,,,,,,
,,,,,,,,,,,,,,,,,614dd1f943ec0b21335f6421,65,2022-02-12_16h41.54.383,lexical_decision_task_DD,2021.2.3,Win32,59.94844434,,,,,,,,,,,0.5847,1,,,,,,,,,,,,,,m,1,0.5847,,,,,,,,0.152777778,-0.44537037,0,0,0,,0,156,156,44,1,LIZARD,LB,old,m,./images/LIZARDLB.png,,,,,,,,,,,,,,,,,,,,,,,,,,,,,,,,,,,
,,,,,,,,,,,,,,,,,614dd1f943ec0b21335f6421,65,2022-02-12_16h41.54.383,lexical_decision_task_DD,2021.2.3,Win32,59.94844434,,,,,,,,,,,0.7357,1,,,,,,,,,,,,,,m,1,0.7357,,,,,,,,0.152777778,-0.44537037,0,0,0,,0,157,157,64,1,JELLY,HB,old,m,./images/JELLYHB.png,,,,,,,,,,,,,,,,,,,,,,,,,,,,,,,,,,,
,,,,,,,,,,,,,,,,,614dd1f943ec0b21335f6421,65,2022-02-12_16h41.54.383,lexical_decision_task_DD,2021.2.3,Win32,59.94844434,,,,,,,,,,,1.2903,1,,,,,,,,,,,,,,z,1,1.2903,,,,,,,,0.152777778,-0.44537037,0,0,0,,0,158,158,145,1,LAMEL,HB,old,z,./images/LAMELHB.png,,,,,,,,,,,,,,,,,,,,,,,,,,,,,,,,,,,
,,,,,,,,,,,,,,,,,614dd1f943ec0b21335f6421,65,2022-02-12_16h41.54.383,lexical_decision_task_DD,2021.2.3,Win32,59.94844434,,,,,,,,,,,0.6181,1,,,,,,,,,,,,,,m,1,0.6181,,,,,,,,0.152777778,-0.44537037,0,0,0,,0,159,159,18,1,JAGUAR,C,old,m,./images/JAGUAR.png,,,,,,,,,,,,,,,,,,,,,,,,,,,,,,,,,,,
,,,,,,,,,,,,,,,,,614dd1f943ec0b21335f6421,65,2022-02-12_16h41.54.383,lexical_decision_task_DD,2021.2.3,Win32,59.94844434,,,,,,,,,,,1.203,1,,,,,,,,,,,,,,z,1,1.203,,,,,,,,0.152777778,-0.44537037,0,0,0,,0,160,160,151,1,TINKY,HB,old,z,./images/TINKYHB.png,,,,,,,,,,,,,,,,,,,,,,,,,,,,,,,,,,,
,,,,,,,,,,,,,,,,,614dd1f943ec0b21335f6421,65,2022-02-12_16h41.54.383,lexical_decision_task_DD,2021.2.3,Win32,59.94844434,,,,,,,,,,,0.6244,1,,,,,,,,,,,,,,m,1,0.6244,,,,,,,,0.152777778,-0.44537037,0,0,0,,0,161,161,42,1,FOLDER,C,old,m,./images/FOLDER.png,,,,,,,,,,,,,,,,,,,,,,,,,,,,,,,,,,,
,,,,,,,,,,,,,,,,,614dd1f943ec0b21335f6421,65,2022-02-12_16h41.54.383,lexical_decision_task_DD,2021.2.3,Win32,59.94844434,,,,,,,,,,,0.634,1,,,,,,,,,,,,,,z,1,0.634,,,,,,,,0.152777778,-0.44537037,0,0,0,,0,162,162,119,1,PAFER,LB,old,z,./images/PAFERLB.png,,,,,,,,,,,,,,,,,,,,,,,,,,,,,,,,,,,
,,,,,,,,,,,,,,,,,614dd1f943ec0b21335f6421,65,2022-02-12_16h41.54.383,lexical_decision_task_DD,2021.2.3,Win32,59.94844434,,,,,,,,,,,2.0006,1,,,,,,,,,,,,,,z,1,2.0006,,,,,,,,0.152777778,-0.44537037,0,0,0,,0,163,163,100,1,DRIBS,HB,old,z,./images/DRIBSHB.png,,,,,,,,,,,,,,,,,,,,,,,,,,,,,,,,,,,
,,,,,,,,,,,,,,,,,614dd1f943ec0b21335f6421,65,2022-02-12_16h41.54.383,lexical_decision_task_DD,2021.2.3,Win32,59.94844434,,,,,,,,,,,1.4679,1,,,,,,,,,,,,,,z,1,1.4679,,,,,,,,0.152777778,-0.44537037,0,0,0,,0,164,164,94,1,BLANS,HB,old,z,./images/BLANSHB.png,,,,,,,,,,,,,,,,,,,,,,,,,,,,,,,,,,,
,,,,,,,,,,,,,,,,,614dd1f943ec0b21335f6421,65,2022-02-12_16h41.54.383,lexical_decision_task_DD,2021.2.3,Win32,59.94844434,,,,,,,,,,,1.336,1,,,,,,,,,,,,,,m,1,1.336,,,,,,,,0.152777778,-0.44537037,0,0,0,,0,165,165,76,1,INFANT,HB,old,m,./images/INFANTHB.png,,,,,,,,,,,,,,,,,,,,,,,,,,,,,,,,,,,
,,,,,,,,,,,,,,,,,614dd1f943ec0b21335f6421,65,2022-02-12_16h41.54.383,lexical_decision_task_DD,2021.2.3,Win32,59.94844434,,,,,,,,,,,0.8008,1,,,,,,,,,,,,,,z,1,0.8008,,,,,,,,0.152777778,-0.44537037,0,0,0,,0,166,166,113,1,LINEW,LB,old,z,./images/LINEWLB.png,,,,,,,,,,,,,,,,,,,,,,,,,,,,,,,,,,,
,,,,,,,,,,,,,,,,,614dd1f943ec0b21335f6421,65,2022-02-12_16h41.54.383,lexical_decision_task_DD,2021.2.3,Win32,59.94844434,,,,,,,,,,,2.0945,1,,,,,,,,,,,,,,z,1,2.0945,,,,,,,,0.152777778,-0.44537037,0,0,0,,0,167,167,91,1,SHENS,HB,old,z,./images/SHENSHB.png,,,,,,,,,,,,,,,,,,,,,,,,,,,,,,,,,,,
,,,,,,,,,,,,,,,,,614dd1f943ec0b21335f6421,65,2022-02-12_16h41.54.383,lexical_decision_task_DD,2021.2.3,Win32,59.94844434,,,,,,,,,,,,,,,,,,,,,,,,,,,,,,,,,,,,,,,,,,,,,,,,How likely will it be that you will recognize the words presented clearly on a scale of 0 (not likely) to 100 (most likely)?,,,,,-0.002777778,-0.434259259,1,0,0,jol_adv,6,10.3418,0,0,0,0,1,,,,,,,,,,,,,,,,,,,,,
,,,,,,,,,,,,,,,,,614dd1f943ec0b21335f6421,65,2022-02-12_16h41.54.383,lexical_decision_task_DD,2021.2.3,Win32,59.94844434,,,,,,,,,,,,,,,,,,,,,,,,,,,,,,,,,,,,,,,,,,,,,,,,How likely will it be that you will recognize the words presented slighly blurred on a scale of 0 (not likely) to 100 (most likely)?,,,,,,,,,,,4,10.4803,0,1,1,1,1,,,,,,,,,,,,,,,,,,,,,
,,,,,,,,,,,,,,,,,614dd1f943ec0b21335f6421,65,2022-02-12_16h41.54.383,lexical_decision_task_DD,2021.2.3,Win32,59.94844434,,,,,,,,,,,,,,,,,,,,,,,,,,,,,,,,,,,,,,,,,,,,,,,,How likely will it be that you will recognize the words presented very blurred on a scale of 0 (not likely) to 100 (most likely)?,,,,,,,,,,,2,6.953,0,2,2,2,1,,,,,,,,,,,,,,,,,,,,,
,,0.032407407,-0.414814815,1,0,0,,,,,,1,test,"In the next phase you will be presented with the words from the the first phase. Your job is to decide whether you remember seeing the word or not. If you remember seeing the word press ""old"" or type ""m"". If you do not remember seeing the word press ""new"" or type ""z"". Please press the space bar or click on continue to begin. ",,,614dd1f943ec0b21335f6421,65,2022-02-12_16h41.54.383,lexical_decision_task_DD,2021.2.3,Win32,59.94844434,,,,,,,,,,,,,,,,,,,,,,,,,,,,,,,,,,,,,,,,,,,,,,,,,,,,,,,,,,,,,,,,,,instr_done_button,0,0,0,0,1,,,,,,,,,,,,,,,
space,1.4575,0.05,-0.386111111,0,0,0,,,,,,1,test,"In the next phase you will be presented with the words from the the first phase. Your job is to decide whether you remember seeing the word or not. If you remember seeing the word press ""old"" or type ""m"". If you do not remember seeing the word press ""new"" or type ""z"". Please press the space bar or click on continue to begin. ",,,614dd1f943ec0b21335f6421,65,2022-02-12_16h41.54.383,lexical_decision_task_DD,2021.2.3,Win32,59.94844434,,,,,,,,,,,,,,,,,,,,,,,,,,,,,,,,,,,,,,,,,,,,,,,,,,,,,,,,,,,,,,,,,,,1,0,1,0,1,,,,,,,,,,,,,,,
space,2.8507,0.032407407,-0.406481481,0,0,0,,,,,,1,test,"In the next phase you will be presented with the words from the the first phase. Your job is to decide whether you remember seeing the word or not. If you remember seeing the word press ""old"" or type ""m"". If you do not remember seeing the word press ""new"" or type ""z"". Please press the space bar or click on continue to begin. ",,,614dd1f943ec0b21335f6421,65,2022-02-12_16h41.54.383,lexical_decision_task_DD,2021.2.3,Win32,59.94844434,,,,,,,,,,,,,,,,,,,,,,,,,,,,,,,,,,,,,,,,,,,,,,,,,,,,,,,,,,,,,,,,,,,2,0,2,0,1,,,,,,,,,,,,,,,
space,2.1621,0.032407407,-0.406481481,0,0,0,,,,,,1,test,"In the next phase you will be presented with the words from the the first phase. Your job is to decide whether you remember seeing the word or not. If you remember seeing the word press ""old"" or type ""m"". If you do not remember seeing the word press ""new"" or type ""z"". Please press the space bar or click on continue to begin. ",,,614dd1f943ec0b21335f6421,65,2022-02-12_16h41.54.383,lexical_decision_task_DD,2021.2.3,Win32,59.94844434,,,,,,,,,,,,,,,,,,,,,,,,,,,,,,,,,,,,,,,,,,,,,,,,,,,,,,,,,,,,,,,,,,,3,0,3,0,1,,,,,,,,,,,,,,,
space,0.184,0.032407407,-0.406481481,0,0,0,,,,,,1,test,"In the next phase you will be presented with the words from the the first phase. Your job is to decide whether you remember seeing the word or not. If you remember seeing the word press ""old"" or type ""m"". If you do not remember seeing the word press ""new"" or type ""z"". Please press the space bar or click on continue to begin. ",,,614dd1f943ec0b21335f6421,65,2022-02-12_16h41.54.383,lexical_decision_task_DD,2021.2.3,Win32,59.94844434,,,,,,,,,,,,,,,,,,,,,,,,,,,,,,,,,,,,,,,,,,,,,,,,,,,,,,,,,,,,,,,,,,,4,0,4,0,1,,,,,,,,,,,,,,,
,,,,,,,,,,,,,,,,,614dd1f943ec0b21335f6421,65,2022-02-12_16h41.54.383,lexical_decision_task_DD,2021.2.3,Win32,59.94844434,,,,,,,,,,,3.5874,1,,,,,,,,,,,,,,,,,,,,,,,,0.032407407,-0.406481481,0,0,0,,,,,,,STORM,C,m,m,./images/STORM.png,,,,,,,,,,,,,,,,,,,,,m,1,3.5874,,,,,,,,0,0,0,30,1
,,,,,,,,,,,,,,,,,614dd1f943ec0b21335f6421,65,2022-02-12_16h41.54.383,lexical_decision_task_DD,2021.2.3,Win32,59.94844434,,,,,,,,,,,0.7697,0,,,,,,,,,,,,,,,,,,,,,,,,0.032407407,-0.406481481,0,0,0,,,,,,,MONKEY,C,z,m,./images/MONKEY.png,,,,,,,,,,,,,,,,,,,,,m,0,0.7697,,,,,,,,0,1,1,129,1
,,,,,,,,,,,,,,,,,614dd1f943ec0b21335f6421,65,2022-02-12_16h41.54.383,lexical_decision_task_DD,2021.2.3,Win32,59.94844434,,,,,,,,,,,0.8343,1,,,,,,,,,,,,,,,,,,,,,,,,0.032407407,-0.406481481,0,0,0,,,,,,,INFANT,HB,m,m,./images/INFANTHB.png,,,,,,,,,,,,,,,,,,,,,m,1,0.8343,,,,,,,,0,2,2,76,1
,,,,,,,,,,,,,,,,,614dd1f943ec0b21335f6421,65,2022-02-12_16h41.54.383,lexical_decision_task_DD,2021.2.3,Win32,59.94844434,,,,,,,,,,,3.1429,1,,,,,,,,,,,,,,,,,,,,,,,,0.032407407,-0.406481481,0,0,0,,,,,,,DONKEY,HB,z,m,./images/DONKEYHB.png,,,,,,,,,,,,,,,,,,,,,z,1,3.1429,,,,,,,,0,3,3,103,1
,,,,,,,,,,,,,,,,,614dd1f943ec0b21335f6421,65,2022-02-12_16h41.54.383,lexical_decision_task_DD,2021.2.3,Win32,59.94844434,,,,,,,,,,,0.9926,1,,,,,,,,,,,,,,,,,,,,,,,,0.032407407,-0.406481481,0,0,0,,,,,,,DOUGH,HB,m,m,./images/DOUGHHB.png,,,,,,,,,,,,,,,,,,,,,m,1,0.9926,,,,,,,,0,4,4,19,1
,,,,,,,,,,,,,,,,,614dd1f943ec0b21335f6421,65,2022-02-12_16h41.54.383,lexical_decision_task_DD,2021.2.3,Win32,59.94844434,,,,,,,,,,,1.9194,0,,,,,,,,,,,,,,,,,,,,,,,,0.032407407,-0.406481481,0,0,0,,,,,,,SCREW,C,m,m,./images/SCREW.png,,,,,,,,,,,,,,,,,,,,,z,0,1.9194,,,,,,,,0,5,5,24,1
,,,,,,,,,,,,,,,,,614dd1f943ec0b21335f6421,65,2022-02-12_16h41.54.383,lexical_decision_task_DD,2021.2.3,Win32,59.94844434,,,,,,,,,,,0.7216,1,,,,,,,,,,,,,,,,,,,,,,,,0.032407407,-0.406481481,0,0,0,,,,,,,TOMATO,C,m,m,./images/TOMATO.png,,,,,,,,,,,,,,,,,,,,,m,1,0.7216,,,,,,,,0,6,6,0,1
,,,,,,,,,,,,,,,,,614dd1f943ec0b21335f6421,65,2022-02-12_16h41.54.383,lexical_decision_task_DD,2021.2.3,Win32,59.94844434,,,,,,,,,,,1.3951,1,,,,,,,,,,,,,,,,,,,,,,,,0.032407407,-0.406481481,0,0,0,,,,,,,DRUMS,HB,m,m,./images/DRUMSHB.png,,,,,,,,,,,,,,,,,,,,,m,1,1.3951,,,,,,,,0,7,7,49,1
,,,,,,,,,,,,,,,,,614dd1f943ec0b21335f6421,65,2022-02-12_16h41.54.383,lexical_decision_task_DD,2021.2.3,Win32,59.94844434,,,,,,,,,,,0.81,0,,,,,,,,,,,,,,,,,,,,,,,,0.032407407,-0.406481481,0,0,0,,,,,,,STATUE,C,z,m,./images/STATUE.png,,,,,,,,,,,,,,,,,,,,,m,0,0.81,,,,,,,,0,8,8,150,1
,,,,,,,,,,,,,,,,,614dd1f943ec0b21335f6421,65,2022-02-12_16h41.54.383,lexical_decision_task_DD,2021.2.3,Win32,59.94844434,,,,,,,,,,,1.0507,1,,,,,,,,,,,,,,,,,,,,,,,,0.032407407,-0.406481481,0,0,0,,,,,,,TORCH,LB,m,m,./images/TORCHLB.png,,,,,,,,,,,,,,,,,,,,,m,1,1.0507,,,,,,,,0,9,9,68,1
,,,,,,,,,,,,,,,,,614dd1f943ec0b21335f6421,65,2022-02-12_16h41.54.383,lexical_decision_task_DD,2021.2.3,Win32,59.94844434,,,,,,,,,,,1.3732,1,,,,,,,,,,,,,,,,,,,,,,,,0.032407407,-0.406481481,0,0,0,,,,,,,ARROW,C,z,m,./images/ARROW.png,,,,,,,,,,,,,,,,,,,,,z,1,1.3732,,,,,,,,0,10,10,153,1
,,,,,,,,,,,,,,,,,614dd1f943ec0b21335f6421,65,2022-02-12_16h41.54.383,lexical_decision_task_DD,2021.2.3,Win32,59.94844434,,,,,,,,,,,1.66,1,,,,,,,,,,,,,,,,,,,,,,,,0.032407407,-0.406481481,0,0,0,,,,,,,LADDER,LB,m,m,./images/LADDERLB.png,,,,,,,,,,,,,,,,,,,,,m,1,1.66,,,,,,,,0,11,11,38,1
,,,,,,,,,,,,,,,,,614dd1f943ec0b21335f6421,65,2022-02-12_16h41.54.383,lexical_decision_task_DD,2021.2.3,Win32,59.94844434,,,,,,,,,,,0.9064,1,,,,,,,,,,,,,,,,,,,,,,,,0.032407407,-0.406481481,0,0,0,,,,,,,MEDAL,LB,z,m,./images/MEDALLB.png,,,,,,,,,,,,,,,,,,,,,z,1,0.9064,,,,,,,,0,12,12,95,1
,,,,,,,,,,,,,,,,,614dd1f943ec0b21335f6421,65,2022-02-12_16h41.54.383,lexical_decision_task_DD,2021.2.3,Win32,59.94844434,,,,,,,,,,,1.0126,1,,,,,,,,,,,,,,,,,,,,,,,,0.032407407,-0.406481481,0,0,0,,,,,,,STOVE,LB,z,m,./images/STOVELB.png,,,,,,,,,,,,,,,,,,,,,z,1,1.0126,,,,,,,,0,13,13,86,1
,,,,,,,,,,,,,,,,,614dd1f943ec0b21335f6421,65,2022-02-12_16h41.54.383,lexical_decision_task_DD,2021.2.3,Win32,59.94844434,,,,,,,,,,,1.1673,1,,,,,,,,,,,,,,,,,,,,,,,,0.032407407,-0.406481481,0,0,0,,,,,,,TWINS,C,m,m,./images/TWINS.png,,,,,,,,,,,,,,,,,,,,,m,1,1.1673,,,,,,,,0,14,14,60,1
,,,,,,,,,,,,,,,,,614dd1f943ec0b21335f6421,65,2022-02-12_16h41.54.383,lexical_decision_task_DD,2021.2.3,Win32,59.94844434,,,,,,,,,,,2.0117,0,,,,,,,,,,,,,,,,,,,,,,,,0.032407407,-0.406481481,0,0,0,,,,,,,BONNET,LB,m,m,./images/BONNETLB.png,,,,,,,,,,,,,,,,,,,,,z,0,2.0117,,,,,,,,0,15,15,11,1
,,,,,,,,,,,,,,,,,614dd1f943ec0b21335f6421,65,2022-02-12_16h41.54.383,lexical_decision_task_DD,2021.2.3,Win32,59.94844434,,,,,,,,,,,0.8173,1,,,,,,,,,,,,,,,,,,,,,,,,0.032407407,-0.406481481,0,0,0,,,,,,,MUSCLE,HB,m,m,./images/MUSCLEHB.png,,,,,,,,,,,,,,,,,,,,,m,1,0.8173,,,,,,,,0,16,16,4,1
,,,,,,,,,,,,,,,,,614dd1f943ec0b21335f6421,65,2022-02-12_16h41.54.383,lexical_decision_task_DD,2021.2.3,Win32,59.94844434,,,,,,,,,,,1.8795,1,,,,,,,,,,,,,,,,,,,,,,,,0.032407407,-0.406481481,0,0,0,,,,,,,BASKET,LB,z,m,./images/BASKETLB.png,,,,,,,,,,,,,,,,,,,,,z,1,1.8795,,,,,,,,0,17,17,128,1
,,,,,,,,,,,,,,,,,614dd1f943ec0b21335f6421,65,2022-02-12_16h41.54.383,lexical_decision_task_DD,2021.2.3,Win32,59.94844434,,,,,,,,,,,0.8192,1,,,,,,,,,,,,,,,,,,,,,,,,0.032407407,-0.406481481,0,0,0,,,,,,,BLOKE,C,z,m,./images/BLOKE.png,,,,,,,,,,,,,,,,,,,,,z,1,0.8192,,,,,,,,0,18,18,96,1
,,,,,,,,,,,,,,,,,614dd1f943ec0b21335f6421,65,2022-02-12_16h41.54.383,lexical_decision_task_DD,2021.2.3,Win32,59.94844434,,,,,,,,,,,1.6563,1,,,,,,,,,,,,,,,,,,,,,,,,0.032407407,-0.406481481,0,0,0,,,,,,,THROAT,C,m,m,./images/THROAT.png,,,,,,,,,,,,,,,,,,,,,m,1,1.6563,,,,,,,,0,19,19,36,1
,,,,,,,,,,,,,,,,,614dd1f943ec0b21335f6421,65,2022-02-12_16h41.54.383,lexical_decision_task_DD,2021.2.3,Win32,59.94844434,,,,,,,,,,,0.9092,1,,,,,,,,,,,,,,,,,,,,,,,,0.032407407,-0.406481481,0,0,0,,,,,,,KITTEN,C,m,m,./images/KITTEN.png,,,,,,,,,,,,,,,,,,,,,m,1,0.9092,,,,,,,,0,20,20,45,1
,,,,,,,,,,,,,,,,,614dd1f943ec0b21335f6421,65,2022-02-12_16h41.54.383,lexical_decision_task_DD,2021.2.3,Win32,59.94844434,,,,,,,,,,,0.9431,1,,,,,,,,,,,,,,,,,,,,,,,,0.032407407,-0.406481481,0,0,0,,,,,,,CRATER,C,z,m,./images/CRATER.png,,,,,,,,,,,,,,,,,,,,,z,1,0.9431,,,,,,,,0,21,21,87,1
,,,,,,,,,,,,,,,,,614dd1f943ec0b21335f6421,65,2022-02-12_16h41.54.383,lexical_decision_task_DD,2021.2.3,Win32,59.94844434,,,,,,,,,,,0.8245,1,,,,,,,,,,,,,,,,,,,,,,,,0.032407407,-0.406481481,0,0,0,,,,,,,LITTER,C,m,m,./images/LITTER.png,,,,,,,,,,,,,,,,,,,,,m,1,0.8245,,,,,,,,0,22,22,78,1
,,,,,,,,,,,,,,,,,614dd1f943ec0b21335f6421,65,2022-02-12_16h41.54.383,lexical_decision_task_DD,2021.2.3,Win32,59.94844434,,,,,,,,,,,0.9275,1,,,,,,,,,,,,,,,,,,,,,,,,0.032407407,-0.406481481,0,0,0,,,,,,,LIZARD,LB,m,m,./images/LIZARDLB.png,,,,,,,,,,,,,,,,,,,,,m,1,0.9275,,,,,,,,0,23,23,44,1
,,,,,,,,,,,,,,,,,614dd1f943ec0b21335f6421,65,2022-02-12_16h41.54.383,lexical_decision_task_DD,2021.2.3,Win32,59.94844434,,,,,,,,,,,1.5926,0,,,,,,,,,,,,,,,,,,,,,,,,0.032407407,-0.406481481,0,0,0,,,,,,,MAGGOT,C,m,m,./images/MAGGOT.png,,,,,,,,,,,,,,,,,,,,,z,0,1.5926,,,,,,,,0,24,24,33,1
,,,,,,,,,,,,,,,,,614dd1f943ec0b21335f6421,65,2022-02-12_16h41.54.383,lexical_decision_task_DD,2021.2.3,Win32,59.94844434,,,,,,,,,,,1.2397,1,,,,,,,,,,,,,,,,,,,,,,,,0.032407407,-0.406481481,0,0,0,,,,,,,STAIN,C,z,m,./images/STAIN.png,,,,,,,,,,,,,,,,,,,,,z,1,1.2397,,,,,,,,0,25,25,90,1
,,,,,,,,,,,,,,,,,614dd1f943ec0b21335f6421,65,2022-02-12_16h41.54.383,lexical_decision_task_DD,2021.2.3,Win32,59.94844434,,,,,,,,,,,1.0458,1,,,,,,,,,,,,,,,,,,,,,,,,0.032407407,-0.406481481,0,0,0,,,,,,,CASINO,HB,z,m,./images/CASINOHB.png,,,,,,,,,,,,,,,,,,,,,z,1,1.0458,,,,,,,,0,26,26,112,1
,,,,,,,,,,,,,,,,,614dd1f943ec0b21335f6421,65,2022-02-12_16h41.54.383,lexical_decision_task_DD,2021.2.3,Win32,59.94844434,,,,,,,,,,,2.2588,1,,,,,,,,,,,,,,,,,,,,,,,,0.032407407,-0.406481481,0,0,0,,,,,,,PLANK,HB,m,m,./images/PLANKHB.png,,,,,,,,,,,,,,,,,,,,,m,1,2.2588,,,,,,,,0,27,27,1,1
,,,,,,,,,,,,,,,,,614dd1f943ec0b21335f6421,65,2022-02-12_16h41.54.383,lexical_decision_task_DD,2021.2.3,Win32,59.94844434,,,,,,,,,,,0.8942,1,,,,,,,,,,,,,,,,,,,,,,,,0.032407407,-0.406481481,0,0,0,,,,,,,CLOTH,LB,z,m,./images/CLOTHLB.png,,,,,,,,,,,,,,,,,,,,,z,1,0.8942,,,,,,,,0,28,28,107,1
,,,,,,,,,,,,,,,,,614dd1f943ec0b21335f6421,65,2022-02-12_16h41.54.383,lexical_decision_task_DD,2021.2.3,Win32,59.94844434,,,,,,,,,,,1.2844,1,,,,,,,,,,,,,,,,,,,,,,,,0.032407407,-0.406481481,0,0,0,,,,,,,SHORE,C,m,m,./images/SHORE.png,,,,,,,,,,,,,,,,,,,,,m,1,1.2844,,,,,,,,0,29,29,12,1
,,,,,,,,,,,,,,,,,614dd1f943ec0b21335f6421,65,2022-02-12_16h41.54.383,lexical_decision_task_DD,2021.2.3,Win32,59.94844434,,,,,,,,,,,1.0975,1,,,,,,,,,,,,,,,,,,,,,,,,0.032407407,-0.406481481,0,0,0,,,,,,,SUNSET,HB,m,m,./images/SUNSETHB.png,,,,,,,,,,,,,,,,,,,,,m,1,1.0975,,,,,,,,0,30,30,82,1
,,,,,,,,,,,,,,,,,614dd1f943ec0b21335f6421,65,2022-02-12_16h41.54.383,lexical_decision_task_DD,2021.2.3,Win32,59.94844434,,,,,,,,,,,1.3571,1,,,,,,,,,,,,,,,,,,,,,,,,0.032407407,-0.406481481,0,0,0,,,,,,,DESERT,HB,z,m,./images/DESERTHB.png,,,,,,,,,,,,,,,,,,,,,z,1,1.3571,,,,,,,,0,31,31,136,1
,,,,,,,,,,,,,,,,,614dd1f943ec0b21335f6421,65,2022-02-12_16h41.54.383,lexical_decision_task_DD,2021.2.3,Win32,59.94844434,,,,,,,,,,,3.3139,0,,,,,,,,,,,,,,,,,,,,,,,,0.032407407,-0.406481481,0,0,0,,,,,,,POODLE,C,m,m,./images/POODLE.png,,,,,,,,,,,,,,,,,,,,,z,0,3.3139,,,,,,,,0,32,32,81,1
,,,,,,,,,,,,,,,,,614dd1f943ec0b21335f6421,65,2022-02-12_16h41.54.383,lexical_decision_task_DD,2021.2.3,Win32,59.94844434,,,,,,,,,,,0.6906,1,,,,,,,,,,,,,,,,,,,,,,,,0.032407407,-0.406481481,0,0,0,,,,,,,MOSQUE,HB,m,m,./images/MOSQUEHB.png,,,,,,,,,,,,,,,,,,,,,m,1,0.6906,,,,,,,,0,33,33,43,1
,,,,,,,,,,,,,,,,,614dd1f943ec0b21335f6421,65,2022-02-12_16h41.54.383,lexical_decision_task_DD,2021.2.3,Win32,59.94844434,,,,,,,,,,,0.8707,1,,,,,,,,,,,,,,,,,,,,,,,,0.032407407,-0.406481481,0,0,0,,,,,,,FARMER,LB,m,m,./images/FARMERLB.png,,,,,,,,,,,,,,,,,,,,,m,1,0.8707,,,,,,,,0,34,34,65,1
,,,,,,,,,,,,,,,,,614dd1f943ec0b21335f6421,65,2022-02-12_16h41.54.383,lexical_decision_task_DD,2021.2.3,Win32,59.94844434,,,,,,,,,,,0.9324,1,,,,,,,,,,,,,,,,,,,,,,,,0.032407407,-0.406481481,0,0,0,,,,,,,BUTTER,C,z,m,./images/BUTTER.png,,,,,,,,,,,,,,,,,,,,,z,1,0.9324,,,,,,,,0,35,35,111,1
,,,,,,,,,,,,,,,,,614dd1f943ec0b21335f6421,65,2022-02-12_16h41.54.383,lexical_decision_task_DD,2021.2.3,Win32,59.94844434,,,,,,,,,,,1.4992,1,,,,,,,,,,,,,,,,,,,,,,,,0.032407407,-0.406481481,0,0,0,,,,,,,BAMBOO,LB,z,m,./images/BAMBOOLB.png,,,,,,,,,,,,,,,,,,,,,z,1,1.4992,,,,,,,,0,36,36,89,1
,,,,,,,,,,,,,,,,,614dd1f943ec0b21335f6421,65,2022-02-12_16h41.54.383,lexical_decision_task_DD,2021.2.3,Win32,59.94844434,,,,,,,,,,,1.1908,1,,,,,,,,,,,,,,,,,,,,,,,,0.032407407,-0.406481481,0,0,0,,,,,,,KIDNEY,C,m,m,./images/KIDNEY.png,,,,,,,,,,,,,,,,,,,,,m,1,1.1908,,,,,,,,0,37,37,21,1
,,,,,,,,,,,,,,,,,614dd1f943ec0b21335f6421,65,2022-02-12_16h41.54.383,lexical_decision_task_DD,2021.2.3,Win32,59.94844434,,,,,,,,,,,0.7736,1,,,,,,,,,,,,,,,,,,,,,,,,0.032407407,-0.406481481,0,0,0,,,,,,,BURIAL,LB,m,m,./images/BURIALLB.png,,,,,,,,,,,,,,,,,,,,,m,1,0.7736,,,,,,,,0,38,38,59,1
,,,,,,,,,,,,,,,,,614dd1f943ec0b21335f6421,65,2022-02-12_16h41.54.383,lexical_decision_task_DD,2021.2.3,Win32,59.94844434,,,,,,,,,,,0.8173,1,,,,,,,,,,,,,,,,,,,,,,,,0.032407407,-0.406481481,0,0,0,,,,,,,PARADE,LB,z,m,./images/PARADELB.png,,,,,,,,,,,,,,,,,,,,,z,1,0.8173,,,,,,,,0,39,39,101,1
,,,,,,,,,,,,,,,,,614dd1f943ec0b21335f6421,65,2022-02-12_16h41.54.383,lexical_decision_task_DD,2021.2.3,Win32,59.94844434,,,,,,,,,,,0.7093,1,,,,,,,,,,,,,,,,,,,,,,,,0.032407407,-0.406481481,0,0,0,,,,,,,SWEAT,C,m,m,./images/SWEAT.png,,,,,,,,,,,,,,,,,,,,,m,1,0.7093,,,,,,,,0,40,40,66,1
,,,,,,,,,,,,,,,,,614dd1f943ec0b21335f6421,65,2022-02-12_16h41.54.383,lexical_decision_task_DD,2021.2.3,Win32,59.94844434,,,,,,,,,,,0.8965,1,,,,,,,,,,,,,,,,,,,,,,,,0.032407407,-0.406481481,0,0,0,space,,,,,,CLIFF,LB,z,m,./images/CLIFFLB.png,3.7086,,,,,,,,,,,,,,,,,,,,z,1,0.8965,,,,,,,,0,41,41,92,1
,,,,,,,,,,,,,,,,,614dd1f943ec0b21335f6421,65,2022-02-12_16h41.54.383,lexical_decision_task_DD,2021.2.3,Win32,59.94844434,,,,,,,,,,,0.945,0,,,,,,,,,,,,,,,,,,,,,,,,0.032407407,-0.406481481,0,0,0,,,,,,,PAINT,HB,m,m,./images/PAINTHB.png,,,,,,,,,,,,,,,,,,,,,z,0,0.945,,,,,,,,0,42,42,7,1
,,,,,,,,,,,,,,,,,614dd1f943ec0b21335f6421,65,2022-02-12_16h41.54.383,lexical_decision_task_DD,2021.2.3,Win32,59.94844434,,,,,,,,,,,0.9527,1,,,,,,,,,,,,,,,,,,,,,,,,0.032407407,-0.406481481,0,0,0,,,,,,,PEBBLE,HB,z,m,./images/PEBBLEHB.png,,,,,,,,,,,,,,,,,,,,,z,1,0.9527,,,,,,,,0,43,43,166,1
,,,,,,,,,,,,,,,,,614dd1f943ec0b21335f6421,65,2022-02-12_16h41.54.383,lexical_decision_task_DD,2021.2.3,Win32,59.94844434,,,,,,,,,,,1.2173,1,,,,,,,,,,,,,,,,,,,,,,,,0.032407407,-0.406481481,0,0,0,,,,,,,MAMMAL,LB,z,m,./images/MAMMALLB.png,,,,,,,,,,,,,,,,,,,,,z,1,1.2173,,,,,,,,0,44,44,146,1
,,,,,,,,,,,,,,,,,614dd1f943ec0b21335f6421,65,2022-02-12_16h41.54.383,lexical_decision_task_DD,2021.2.3,Win32,59.94844434,,,,,,,,,,,2.13,1,,,,,,,,,,,,,,,,,,,,,,,,0.032407407,-0.406481481,0,0,0,,,,,,,STRING,LB,m,m,./images/STRINGLB.png,,,,,,,,,,,,,,,,,,,,,m,1,2.13,,,,,,,,0,45,45,41,1
,,,,,,,,,,,,,,,,,614dd1f943ec0b21335f6421,65,2022-02-12_16h41.54.383,lexical_decision_task_DD,2021.2.3,Win32,59.94844434,,,,,,,,,,,0.6125,1,,,,,,,,,,,,,,,,,,,,,,,,0.032407407,-0.406481481,0,0,0,,,,,,,ONION,C,m,m,./images/ONION.png,,,,,,,,,,,,,,,,,,,,,m,1,0.6125,,,,,,,,0,46,46,51,1
,,,,,,,,,,,,,,,,,614dd1f943ec0b21335f6421,65,2022-02-12_16h41.54.383,lexical_decision_task_DD,2021.2.3,Win32,59.94844434,,,,,,,,,,,1.2515,1,,,,,,,,,,,,,,,,,,,,,,,,0.032407407,-0.406481481,0,0,0,,,,,,,SPINE,LB,z,m,./images/SPINELB.png,,,,,,,,,,,,,,,,,,,,,z,1,1.2515,,,,,,,,0,47,47,149,1
,,,,,,,,,,,,,,,,,614dd1f943ec0b21335f6421,65,2022-02-12_16h41.54.383,lexical_decision_task_DD,2021.2.3,Win32,59.94844434,,,,,,,,,,,1.1679,1,,,,,,,,,,,,,,,,,,,,,,,,0.032407407,-0.406481481,0,0,0,,,,,,,SPORT,C,m,m,./images/SPORT.png,,,,,,,,,,,,,,,,,,,,,m,1,1.1679,,,,,,,,0,48,48,48,1
,,,,,,,,,,,,,,,,,614dd1f943ec0b21335f6421,65,2022-02-12_16h41.54.383,lexical_decision_task_DD,2021.2.3,Win32,59.94844434,,,,,,,,,,,1.1194,1,,,,,,,,,,,,,,,,,,,,,,,,0.032407407,-0.406481481,0,0,0,,,,,,,PEACH,LB,m,m,./images/PEACHLB.png,,,,,,,,,,,,,,,,,,,,,m,1,1.1194,,,,,,,,0,49,49,35,1
,,,,,,,,,,,,,,,,,614dd1f943ec0b21335f6421,65,2022-02-12_16h41.54.383,lexical_decision_task_DD,2021.2.3,Win32,59.94844434,,,,,,,,,,,0.8737,0,,,,,,,,,,,,,,,,,,,,,,,,0.032407407,-0.406481481,0,0,0,,,,,,,GRAIN,C,m,m,./images/GRAIN.png,,,,,,,,,,,,,,,,,,,,,z,0,0.8737,,,,,,,,0,50,50,75,1
,,,,,,,,,,,,,,,,,614dd1f943ec0b21335f6421,65,2022-02-12_16h41.54.383,lexical_decision_task_DD,2021.2.3,Win32,59.94844434,,,,,,,,,,,0.7906,1,,,,,,,,,,,,,,,,,,,,,,,,0.032407407,-0.406481481,0,0,0,,,,,,,JAGUAR,C,m,m,./images/JAGUAR.png,,,,,,,,,,,,,,,,,,,,,m,1,0.7906,,,,,,,,0,51,51,18,1
,,,,,,,,,,,,,,,,,614dd1f943ec0b21335f6421,65,2022-02-12_16h41.54.383,lexical_decision_task_DD,2021.2.3,Win32,59.94844434,,,,,,,,,,,0.7892,1,,,,,,,,,,,,,,,,,,,,,,,,0.032407407,-0.406481481,0,0,0,,,,,,,MUFFIN,HB,m,m,./images/MUFFINHB.png,,,,,,,,,,,,,,,,,,,,,m,1,0.7892,,,,,,,,0,52,52,55,1
,,,,,,,,,,,,,,,,,614dd1f943ec0b21335f6421,65,2022-02-12_16h41.54.383,lexical_decision_task_DD,2021.2.3,Win32,59.94844434,,,,,,,,,,,0.8126,0,,,,,,,,,,,,,,,,,,,,,,,,0.032407407,-0.406481481,0,0,0,,,,,,,PURSE,LB,m,m,./images/PURSELB.png,,,,,,,,,,,,,,,,,,,,,z,0,0.8126,,,,,,,,0,53,53,62,1
,,,,,,,,,,,,,,,,,614dd1f943ec0b21335f6421,65,2022-02-12_16h41.54.383,lexical_decision_task_DD,2021.2.3,Win32,59.94844434,,,,,,,,,,,0.9949,0,,,,,,,,,,,,,,,,,,,,,,,,0.032407407,-0.406481481,0,0,0,,,,,,,WALNUT,C,z,m,./images/WALNUT.png,,,,,,,,,,,,,,,,,,,,,m,0,0.9949,,,,,,,,0,54,54,84,1
,,,,,,,,,,,,,,,,,614dd1f943ec0b21335f6421,65,2022-02-12_16h41.54.383,lexical_decision_task_DD,2021.2.3,Win32,59.94844434,,,,,,,,,,,0.7356,1,,,,,,,,,,,,,,,,,,,,,,,,0.032407407,-0.406481481,0,0,0,,,,,,,RULER,HB,z,m,./images/RULERHB.png,,,,,,,,,,,,,,,,,,,,,z,1,0.7356,,,,,,,,0,55,55,163,1
,,,,,,,,,,,,,,,,,614dd1f943ec0b21335f6421,65,2022-02-12_16h41.54.383,lexical_decision_task_DD,2021.2.3,Win32,59.94844434,,,,,,,,,,,2.433,1,,,,,,,,,,,,,,,,,,,,,,,,0.032407407,-0.406481481,0,0,0,,,,,,,STOOL,HB,z,m,./images/STOOLHB.png,,,,,,,,,,,,,,,,,,,,,z,1,2.433,,,,,,,,0,56,56,127,1
,,,,,,,,,,,,,,,,,614dd1f943ec0b21335f6421,65,2022-02-12_16h41.54.383,lexical_decision_task_DD,2021.2.3,Win32,59.94844434,,,,,,,,,,,0.951,1,,,,,,,,,,,,,,,,,,,,,,,,0.032407407,-0.406481481,0,0,0,,,,,,,DANCER,C,z,m,./images/DANCER.png,,,,,,,,,,,,,,,,,,,,,z,1,0.951,,,,,,,,0,57,57,105,1
,,,,,,,,,,,,,,,,,614dd1f943ec0b21335f6421,65,2022-02-12_16h41.54.383,lexical_decision_task_DD,2021.2.3,Win32,59.94844434,,,,,,,,,,,1.3512,1,,,,,,,,,,,,,,,,,,,,,,,,0.032407407,-0.406481481,0,0,0,,,,,,,FERRY,C,z,m,./images/FERRY.png,,,,,,,,,,,,,,,,,,,,,z,1,1.3512,,,,,,,,0,58,58,141,1
,,,,,,,,,,,,,,,,,614dd1f943ec0b21335f6421,65,2022-02-12_16h41.54.383,lexical_decision_task_DD,2021.2.3,Win32,59.94844434,,,,,,,,,,,1.4815,1,,,,,,,,,,,,,,,,,,,,,,,,0.032407407,-0.406481481,0,0,0,,,,,,,JUMPER,LB,z,m,./images/JUMPERLB.png,,,,,,,,,,,,,,,,,,,,,z,1,1.4815,,,,,,,,0,59,59,158,1
,,,,,,,,,,,,,,,,,614dd1f943ec0b21335f6421,65,2022-02-12_16h41.54.383,lexical_decision_task_DD,2021.2.3,Win32,59.94844434,,,,,,,,,,,0.8198,1,,,,,,,,,,,,,,,,,,,,,,,,0.032407407,-0.406481481,0,0,0,,,,,,,QUILL,HB,m,m,./images/QUILLHB.png,,,,,,,,,,,,,,,,,,,,,m,1,0.8198,,,,,,,,0,60,60,31,1
,,,,,,,,,,,,,,,,,614dd1f943ec0b21335f6421,65,2022-02-12_16h41.54.383,lexical_decision_task_DD,2021.2.3,Win32,59.94844434,,,,,,,,,,,0.8832,1,,,,,,,,,,,,,,,,,,,,,,,,0.032407407,-0.406481481,0,0,0,,,,,,,BUNNY,HB,z,m,./images/BUNNYHB.png,,,,,,,,,,,,,,,,,,,,,z,1,0.8832,,,,,,,,0,61,61,97,1
,,,,,,,,,,,,,,,,,614dd1f943ec0b21335f6421,65,2022-02-12_16h41.54.383,lexical_decision_task_DD,2021.2.3,Win32,59.94844434,,,,,,,,,,,0.697,1,,,,,,,,,,,,,,,,,,,,,,,,0.032407407,-0.406481481,0,0,0,,,,,,,MOTOR,HB,m,m,./images/MOTORHB.png,,,,,,,,,,,,,,,,,,,,,m,1,0.697,,,,,,,,0,62,62,13,1
,,,,,,,,,,,,,,,,,614dd1f943ec0b21335f6421,65,2022-02-12_16h41.54.383,lexical_decision_task_DD,2021.2.3,Win32,59.94844434,,,,,,,,,,,0.843,1,,,,,,,,,,,,,,,,,,,,,,,,0.032407407,-0.406481481,0,0,0,,,,,,,STREAM,LB,z,m,./images/STREAMLB.png,,,,,,,,,,,,,,,,,,,,,z,1,0.843,,,,,,,,0,63,63,125,1
,,,,,,,,,,,,,,,,,614dd1f943ec0b21335f6421,65,2022-02-12_16h41.54.383,lexical_decision_task_DD,2021.2.3,Win32,59.94844434,,,,,,,,,,,1.2575,1,,,,,,,,,,,,,,,,,,,,,,,,0.032407407,-0.406481481,0,0,0,,,,,,,HOCKEY,LB,z,m,./images/HOCKEYLB.png,,,,,,,,,,,,,,,,,,,,,z,1,1.2575,,,,,,,,0,64,64,116,1
,,,,,,,,,,,,,,,,,614dd1f943ec0b21335f6421,65,2022-02-12_16h41.54.383,lexical_decision_task_DD,2021.2.3,Win32,59.94844434,,,,,,,,,,,0.7295,0,,,,,,,,,,,,,,,,,,,,,,,,0.032407407,-0.406481481,0,0,0,,,,,,,FLASK,C,z,m,./images/FLASK.png,,,,,,,,,,,,,,,,,,,,,m,0,0.7295,,,,,,,,0,65,65,156,1
,,,,,,,,,,,,,,,,,614dd1f943ec0b21335f6421,65,2022-02-12_16h41.54.383,lexical_decision_task_DD,2021.2.3,Win32,59.94844434,,,,,,,,,,,1.5144,1,,,,,,,,,,,,,,,,,,,,,,,,0.032407407,-0.406481481,0,0,0,,,,,,,PACKET,LB,m,m,./images/PACKETLB.png,,,,,,,,,,,,,,,,,,,,,m,1,1.5144,,,,,,,,0,66,66,56,1
,,,,,,,,,,,,,,,,,614dd1f943ec0b21335f6421,65,2022-02-12_16h41.54.383,lexical_decision_task_DD,2021.2.3,Win32,59.94844434,,,,,,,,,,,0.7549,1,,,,,,,,,,,,,,,,,,,,,,,,0.032407407,-0.406481481,0,0,0,,,,,,,PASTA,LB,m,m,./images/PASTALB.png,,,,,,,,,,,,,,,,,,,,,m,1,0.7549,,,,,,,,0,67,67,5,1
,,,,,,,,,,,,,,,,,614dd1f943ec0b21335f6421,65,2022-02-12_16h41.54.383,lexical_decision_task_DD,2021.2.3,Win32,59.94844434,,,,,,,,,,,1.7245,1,,,,,,,,,,,,,,,,,,,,,,,,0.032407407,-0.406481481,0,0,0,,,,,,,FLESH,C,z,m,./images/FLESH.png,,,,,,,,,,,,,,,,,,,,,z,1,1.7245,,,,,,,,0,68,68,108,1
,,,,,,,,,,,,,,,,,614dd1f943ec0b21335f6421,65,2022-02-12_16h41.54.383,lexical_decision_task_DD,2021.2.3,Win32,59.94844434,,,,,,,,,,,1.3832,1,,,,,,,,,,,,,,,,,,,,,,,,0.032407407,-0.406481481,0,0,0,,,,,,,MIDGET,HB,z,m,./images/MIDGETHB.png,,,,,,,,,,,,,,,,,,,,,z,1,1.3832,,,,,,,,0,69,69,160,1
,,,,,,,,,,,,,,,,,614dd1f943ec0b21335f6421,65,2022-02-12_16h41.54.383,lexical_decision_task_DD,2021.2.3,Win32,59.94844434,,,,,,,,,,,2.7985,1,,,,,,,,,,,,,,,,,,,,,,,,0.032407407,-0.406481481,0,0,0,,,,,,,MUMMY,HB,z,m,./images/MUMMYHB.png,,,,,,,,,,,,,,,,,,,,,z,1,2.7985,,,,,,,,0,70,70,130,1
,,,,,,,,,,,,,,,,,614dd1f943ec0b21335f6421,65,2022-02-12_16h41.54.383,lexical_decision_task_DD,2021.2.3,Win32,59.94844434,,,,,,,,,,,1.0463,1,,,,,,,,,,,,,,,,,,,,,,,,0.032407407,-0.406481481,0,0,0,,,,,,,DIVER,C,z,m,./images/DIVER.png,,,,,,,,,,,,,,,,,,,,,z,1,1.0463,,,,,,,,0,71,71,93,1
,,,,,,,,,,,,,,,,,614dd1f943ec0b21335f6421,65,2022-02-12_16h41.54.383,lexical_decision_task_DD,2021.2.3,Win32,59.94844434,,,,,,,,,,,0.77,1,,,,,,,,,,,,,,,,,,,,,,,,0.032407407,-0.406481481,0,0,0,,,,,,,CURRY,C,z,m,./images/CURRY.png,,,,,,,,,,,,,,,,,,,,,z,1,0.77,,,,,,,,0,72,72,144,1
,,,,,,,,,,,,,,,,,614dd1f943ec0b21335f6421,65,2022-02-12_16h41.54.383,lexical_decision_task_DD,2021.2.3,Win32,59.94844434,,,,,,,,,,,1.1715,1,,,,,,,,,,,,,,,,,,,,,,,,0.032407407,-0.406481481,0,0,0,,,,,,,SAUNA,C,z,m,./images/SAUNA.png,,,,,,,,,,,,,,,,,,,,,z,1,1.1715,,,,,,,,0,73,73,117,1
,,,,,,,,,,,,,,,,,614dd1f943ec0b21335f6421,65,2022-02-12_16h41.54.383,lexical_decision_task_DD,2021.2.3,Win32,59.94844434,,,,,,,,,,,2.1077,0,,,,,,,,,,,,,,,,,,,,,,,,0.032407407,-0.406481481,0,0,0,,,,,,,BERRY,LB,m,m,./images/BERRYLB.png,,,,,,,,,,,,,,,,,,,,,z,0,2.1077,,,,,,,,0,74,74,47,1
,,,,,,,,,,,,,,,,,614dd1f943ec0b21335f6421,65,2022-02-12_16h41.54.383,lexical_decision_task_DD,2021.2.3,Win32,59.94844434,,,,,,,,,,,2.286,0,,,,,,,,,,,,,,,,,,,,,,,,0.032407407,-0.406481481,0,0,0,,,,,,,BRUSH,LB,z,m,./images/BRUSHLB.png,,,,,,,,,,,,,,,,,,,,,m,0,2.286,,,,,,,,0,75,75,143,1
,,,,,,,,,,,,,,,,,614dd1f943ec0b21335f6421,65,2022-02-12_16h41.54.383,lexical_decision_task_DD,2021.2.3,Win32,59.94844434,,,,,,,,,,,0.6538,1,,,,,,,,,,,,,,,,,,,,,,,,0.032407407,-0.406481481,0,0,0,,,,,,,COUCH,LB,m,m,./images/COUCHLB.png,,,,,,,,,,,,,,,,,,,,,m,1,0.6538,,,,,,,,0,76,76,77,1
,,,,,,,,,,,,,,,,,614dd1f943ec0b21335f6421,65,2022-02-12_16h41.54.383,lexical_decision_task_DD,2021.2.3,Win32,59.94844434,,,,,,,,,,,1.4323,1,,,,,,,,,,,,,,,,,,,,,,,,0.032407407,-0.406481481,0,0,0,,,,,,,COLLAR,C,z,m,./images/COLLAR.png,,,,,,,,,,,,,,,,,,,,,z,1,1.4323,,,,,,,,0,77,77,99,1
,,,,,,,,,,,,,,,,,614dd1f943ec0b21335f6421,65,2022-02-12_16h41.54.383,lexical_decision_task_DD,2021.2.3,Win32,59.94844434,,,,,,,,,,,1.7203,0,,,,,,,,,,,,,,,,,,,,,,,,0.032407407,-0.406481481,0,0,0,,,,,,,BISHOP,HB,z,m,./images/BISHOPHB.png,,,,,,,,,,,,,,,,,,,,,m,0,1.7203,,,,,,,,0,78,78,133,1
,,,,,,,,,,,,,,,,,614dd1f943ec0b21335f6421,65,2022-02-12_16h41.54.383,lexical_decision_task_DD,2021.2.3,Win32,59.94844434,,,,,,,,,,,0.7034,1,,,,,,,,,,,,,,,,,,,,,,,,0.032407407,-0.406481481,0,0,0,,,,,,,SNACK,HB,m,m,./images/SNACKHB.png,,,,,,,,,,,,,,,,,,,,,m,1,0.7034,,,,,,,,0,79,79,73,1
,,,,,,,,,,,,,,,,,614dd1f943ec0b21335f6421,65,2022-02-12_16h41.54.383,lexical_decision_task_DD,2021.2.3,Win32,59.94844434,,,,,,,,,,,1.1473,1,,,,,,,,,,,,,,,,,,,,,,,,0.032407407,-0.406481481,0,0,0,,,,,,,SWING,HB,m,m,./images/SWINGHB.png,,,,,,,,,,,,,,,,,,,,,m,1,1.1473,,,,,,,,0,80,80,40,1
,,,,,,,,,,,,,,,,,614dd1f943ec0b21335f6421,65,2022-02-12_16h41.54.383,lexical_decision_task_DD,2021.2.3,Win32,59.94844434,,,,,,,,,,,2.2131,0,,,,,,,,,,,,,,,,,,,,,,,,0.032407407,-0.406481481,0,0,0,,,,,,,RAZOR,HB,z,m,./images/RAZORHB.png,,,,,,,,,,,,,,,,,,,,,m,0,2.2131,,,,,,,,0,81,81,118,1
,,,,,,,,,,,,,,,,,614dd1f943ec0b21335f6421,65,2022-02-12_16h41.54.383,lexical_decision_task_DD,2021.2.3,Win32,59.94844434,,,,,,,,,,,0.9381,1,,,,,,,,,,,,,,,,,,,,,,,,0.032407407,-0.406481481,0,0,0,,,,,,,BABOON,HB,m,m,./images/BABOONHB.png,,,,,,,,,,,,,,,,,,,,,m,1,0.9381,,,,,,,,0,82,82,58,1
,,,,,,,,,,,,,,,,,614dd1f943ec0b21335f6421,65,2022-02-12_16h41.54.383,lexical_decision_task_DD,2021.2.3,Win32,59.94844434,,,,,,,,,,,0.6577,1,,,,,,,,,,,,,,,,,,,,,,,,0.032407407,-0.406481481,0,0,0,space,,,,,,HEATER,LB,z,m,./images/HEATERLB.png,3.2001,,,,,,,,,,,,,,,,,,,,z,1,0.6577,,,,,,,,0,83,83,140,1
,,,,,,,,,,,,,,,,,614dd1f943ec0b21335f6421,65,2022-02-12_16h41.54.383,lexical_decision_task_DD,2021.2.3,Win32,59.94844434,,,,,,,,,,,1.0349,1,,,,,,,,,,,,,,,,,,,,,,,,0.032407407,-0.406481481,0,0,0,,,,,,,CANDLE,HB,m,m,./images/CANDLEHB.png,,,,,,,,,,,,,,,,,,,,,m,1,1.0349,,,,,,,,0,84,84,61,1
,,,,,,,,,,,,,,,,,614dd1f943ec0b21335f6421,65,2022-02-12_16h41.54.383,lexical_decision_task_DD,2021.2.3,Win32,59.94844434,,,,,,,,,,,2.2505,1,,,,,,,,,,,,,,,,,,,,,,,,0.032407407,-0.406481481,0,0,0,,,,,,,BOILER,C,z,m,./images/BOILER.png,,,,,,,,,,,,,,,,,,,,,z,1,2.2505,,,,,,,,0,85,85,120,1
,,,,,,,,,,,,,,,,,614dd1f943ec0b21335f6421,65,2022-02-12_16h41.54.383,lexical_decision_task_DD,2021.2.3,Win32,59.94844434,,,,,,,,,,,0.6679,1,,,,,,,,,,,,,,,,,,,,,,,,0.032407407,-0.406481481,0,0,0,,,,,,,SQUARE,C,m,m,./images/SQUARE.png,,,,,,,,,,,,,,,,,,,,,m,1,0.6679,,,,,,,,0,86,86,6,1
,,,,,,,,,,,,,,,,,614dd1f943ec0b21335f6421,65,2022-02-12_16h41.54.383,lexical_decision_task_DD,2021.2.3,Win32,59.94844434,,,,,,,,,,,0.6561,1,,,,,,,,,,,,,,,,,,,,,,,,0.032407407,-0.406481481,0,0,0,,,,,,,MIRROR,C,m,m,./images/MIRROR.png,,,,,,,,,,,,,,,,,,,,,m,1,0.6561,,,,,,,,0,87,87,63,1
,,,,,,,,,,,,,,,,,614dd1f943ec0b21335f6421,65,2022-02-12_16h41.54.383,lexical_decision_task_DD,2021.2.3,Win32,59.94844434,,,,,,,,,,,0.7501,1,,,,,,,,,,,,,,,,,,,,,,,,0.032407407,-0.406481481,0,0,0,,,,,,,CRUMB,LB,m,m,./images/CRUMBLB.png,,,,,,,,,,,,,,,,,,,,,m,1,0.7501,,,,,,,,0,88,88,29,1
,,,,,,,,,,,,,,,,,614dd1f943ec0b21335f6421,65,2022-02-12_16h41.54.383,lexical_decision_task_DD,2021.2.3,Win32,59.94844434,,,,,,,,,,,0.7342,0,,,,,,,,,,,,,,,,,,,,,,,,0.032407407,-0.406481481,0,0,0,,,,,,,CLOUD,LB,z,m,./images/CLOUDLB.png,,,,,,,,,,,,,,,,,,,,,m,0,0.7342,,,,,,,,0,89,89,110,1
,,,,,,,,,,,,,,,,,614dd1f943ec0b21335f6421,65,2022-02-12_16h41.54.383,lexical_decision_task_DD,2021.2.3,Win32,59.94844434,,,,,,,,,,,0.7739,1,,,,,,,,,,,,,,,,,,,,,,,,0.032407407,-0.406481481,0,0,0,,,,,,,PEARL,HB,m,m,./images/PEARLHB.png,,,,,,,,,,,,,,,,,,,,,m,1,0.7739,,,,,,,,0,90,90,46,1
,,,,,,,,,,,,,,,,,614dd1f943ec0b21335f6421,65,2022-02-12_16h41.54.383,lexical_decision_task_DD,2021.2.3,Win32,59.94844434,,,,,,,,,,,0.9677,1,,,,,,,,,,,,,,,,,,,,,,,,0.032407407,-0.406481481,0,0,0,,,,,,,PICKLE,LB,m,m,./images/PICKLELB.png,,,,,,,,,,,,,,,,,,,,,m,1,0.9677,,,,,,,,0,91,91,14,1
,,,,,,,,,,,,,,,,,614dd1f943ec0b21335f6421,65,2022-02-12_16h41.54.383,lexical_decision_task_DD,2021.2.3,Win32,59.94844434,,,,,,,,,,,0.9591,0,,,,,,,,,,,,,,,,,,,,,,,,0.032407407,-0.406481481,0,0,0,,,,,,,SHIELD,C,z,m,./images/SHIELD.png,,,,,,,,,,,,,,,,,,,,,m,0,0.9591,,,,,,,,0,92,92,132,1
,,,,,,,,,,,,,,,,,614dd1f943ec0b21335f6421,65,2022-02-12_16h41.54.383,lexical_decision_task_DD,2021.2.3,Win32,59.94844434,,,,,,,,,,,0.9437,0,,,,,,,,,,,,,,,,,,,,,,,,0.032407407,-0.406481481,0,0,0,,,,,,,COOKER,C,m,m,./images/COOKER.png,,,,,,,,,,,,,,,,,,,,,z,0,0.9437,,,,,,,,0,93,93,69,1
,,,,,,,,,,,,,,,,,614dd1f943ec0b21335f6421,65,2022-02-12_16h41.54.383,lexical_decision_task_DD,2021.2.3,Win32,59.94844434,,,,,,,,,,,1.1608,1,,,,,,,,,,,,,,,,,,,,,,,,0.032407407,-0.406481481,0,0,0,,,,,,,CARPET,LB,m,m,./images/CARPETLB.png,,,,,,,,,,,,,,,,,,,,,m,1,1.1608,,,,,,,,0,94,94,53,1
,,,,,,,,,,,,,,,,,614dd1f943ec0b21335f6421,65,2022-02-12_16h41.54.383,lexical_decision_task_DD,2021.2.3,Win32,59.94844434,,,,,,,,,,,0.9765,0,,,,,,,,,,,,,,,,,,,,,,,,0.032407407,-0.406481481,0,0,0,,,,,,,CLOWN,HB,z,m,./images/CLOWNHB.png,,,,,,,,,,,,,,,,,,,,,m,0,0.9765,,,,,,,,0,95,95,106,1
,,,,,,,,,,,,,,,,,614dd1f943ec0b21335f6421,65,2022-02-12_16h41.54.383,lexical_decision_task_DD,2021.2.3,Win32,59.94844434,,,,,,,,,,,0.8509,0,,,,,,,,,,,,,,,,,,,,,,,,0.032407407,-0.406481481,0,0,0,,,,,,,CANOE,HB,z,m,./images/CANOEHB.png,,,,,,,,,,,,,,,,,,,,,m,0,0.8509,,,,,,,,0,96,96,142,1
,,,,,,,,,,,,,,,,,614dd1f943ec0b21335f6421,65,2022-02-12_16h41.54.383,lexical_decision_task_DD,2021.2.3,Win32,59.94844434,,,,,,,,,,,0.8002,1,,,,,,,,,,,,,,,,,,,,,,,,0.032407407,-0.406481481,0,0,0,,,,,,,WALRUS,LB,m,m,./images/WALRUSLB.png,,,,,,,,,,,,,,,,,,,,,m,1,0.8002,,,,,,,,0,97,97,23,1
,,,,,,,,,,,,,,,,,614dd1f943ec0b21335f6421,65,2022-02-12_16h41.54.383,lexical_decision_task_DD,2021.2.3,Win32,59.94844434,,,,,,,,,,,0.9064,1,,,,,,,,,,,,,,,,,,,,,,,,0.032407407,-0.406481481,0,0,0,,,,,,,ARTIST,HB,z,m,./images/ARTISTHB.png,,,,,,,,,,,,,,,,,,,,,z,1,0.9064,,,,,,,,0,98,98,145,1
,,,,,,,,,,,,,,,,,614dd1f943ec0b21335f6421,65,2022-02-12_16h41.54.383,lexical_decision_task_DD,2021.2.3,Win32,59.94844434,,,,,,,,,,,1.2504,1,,,,,,,,,,,,,,,,,,,,,,,,0.032407407,-0.406481481,0,0,0,,,,,,,VALLEY,LB,z,m,./images/VALLEYLB.png,,,,,,,,,,,,,,,,,,,,,z,1,1.2504,,,,,,,,0,99,99,152,1
,,,,,,,,,,,,,,,,,614dd1f943ec0b21335f6421,65,2022-02-12_16h41.54.383,lexical_decision_task_DD,2021.2.3,Win32,59.94844434,,,,,,,,,,,1.1557,0,,,,,,,,,,,,,,,,,,,,,,,,0.032407407,-0.406481481,0,0,0,,,,,,,BUBBLE,LB,z,m,./images/BUBBLELB.png,,,,,,,,,,,,,,,,,,,,,m,0,1.1557,,,,,,,,0,100,100,155,1
,,,,,,,,,,,,,,,,,614dd1f943ec0b21335f6421,65,2022-02-12_16h41.54.383,lexical_decision_task_DD,2021.2.3,Win32,59.94844434,,,,,,,,,,,0.984,1,,,,,,,,,,,,,,,,,,,,,,,,0.032407407,-0.406481481,0,0,0,,,,,,,PARCEL,C,z,m,./images/PARCEL.png,,,,,,,,,,,,,,,,,,,,,z,1,0.984,,,,,,,,0,101,101,102,1
,,,,,,,,,,,,,,,,,614dd1f943ec0b21335f6421,65,2022-02-12_16h41.54.383,lexical_decision_task_DD,2021.2.3,Win32,59.94844434,,,,,,,,,,,1.1672,1,,,,,,,,,,,,,,,,,,,,,,,,0.032407407,-0.406481481,0,0,0,,,,,,,BROOM,C,z,m,./images/BROOM.png,,,,,,,,,,,,,,,,,,,,,z,1,1.1672,,,,,,,,0,102,102,162,1
,,,,,,,,,,,,,,,,,614dd1f943ec0b21335f6421,65,2022-02-12_16h41.54.383,lexical_decision_task_DD,2021.2.3,Win32,59.94844434,,,,,,,,,,,1.1357,1,,,,,,,,,,,,,,,,,,,,,,,,0.032407407,-0.406481481,0,0,0,,,,,,,BIRTH,HB,m,m,./images/BIRTHHB.png,,,,,,,,,,,,,,,,,,,,,m,1,1.1357,,,,,,,,0,103,103,37,1
,,,,,,,,,,,,,,,,,614dd1f943ec0b21335f6421,65,2022-02-12_16h41.54.383,lexical_decision_task_DD,2021.2.3,Win32,59.94844434,,,,,,,,,,,0.8501,0,,,,,,,,,,,,,,,,,,,,,,,,0.032407407,-0.406481481,0,0,0,,,,,,,LAGOON,LB,z,m,./images/LAGOONLB.png,,,,,,,,,,,,,,,,,,,,,m,0,0.8501,,,,,,,,0,104,104,131,1
,,,,,,,,,,,,,,,,,614dd1f943ec0b21335f6421,65,2022-02-12_16h41.54.383,lexical_decision_task_DD,2021.2.3,Win32,59.94844434,,,,,,,,,,,0.7511,1,,,,,,,,,,,,,,,,,,,,,,,,0.032407407,-0.406481481,0,0,0,,,,,,,CRUST,HB,m,m,./images/CRUSTHB.png,,,,,,,,,,,,,,,,,,,,,m,1,0.7511,,,,,,,,0,105,105,79,1
,,,,,,,,,,,,,,,,,614dd1f943ec0b21335f6421,65,2022-02-12_16h41.54.383,lexical_decision_task_DD,2021.2.3,Win32,59.94844434,,,,,,,,,,,0.7219,1,,,,,,,,,,,,,,,,,,,,,,,,0.032407407,-0.406481481,0,0,0,,,,,,,SLOPE,C,z,m,./images/SLOPE.png,,,,,,,,,,,,,,,,,,,,,z,1,0.7219,,,,,,,,0,106,106,114,1
,,,,,,,,,,,,,,,,,614dd1f943ec0b21335f6421,65,2022-02-12_16h41.54.383,lexical_decision_task_DD,2021.2.3,Win32,59.94844434,,,,,,,,,,,0.7565,1,,,,,,,,,,,,,,,,,,,,,,,,0.032407407,-0.406481481,0,0,0,,,,,,,MOOSE,C,m,m,./images/MOOSE.png,,,,,,,,,,,,,,,,,,,,,m,1,0.7565,,,,,,,,0,107,107,57,1
,,,,,,,,,,,,,,,,,614dd1f943ec0b21335f6421,65,2022-02-12_16h41.54.383,lexical_decision_task_DD,2021.2.3,Win32,59.94844434,,,,,,,,,,,1.0785,0,,,,,,,,,,,,,,,,,,,,,,,,0.032407407,-0.406481481,0,0,0,,,,,,,PILOT,LB,z,m,./images/PILOTLB.png,,,,,,,,,,,,,,,,,,,,,m,0,1.0785,,,,,,,,0,108,108,134,1
,,,,,,,,,,,,,,,,,614dd1f943ec0b21335f6421,65,2022-02-12_16h41.54.383,lexical_decision_task_DD,2021.2.3,Win32,59.94844434,,,,,,,,,,,0.8813,1,,,,,,,,,,,,,,,,,,,,,,,,0.032407407,-0.406481481,0,0,0,,,,,,,FOLDER,C,m,m,./images/FOLDER.png,,,,,,,,,,,,,,,,,,,,,m,1,0.8813,,,,,,,,0,109,109,42,1
,,,,,,,,,,,,,,,,,614dd1f943ec0b21335f6421,65,2022-02-12_16h41.54.383,lexical_decision_task_DD,2021.2.3,Win32,59.94844434,,,,,,,,,,,1.2171,0,,,,,,,,,,,,,,,,,,,,,,,,0.032407407,-0.406481481,0,0,0,,,,,,,FINGER,C,m,m,./images/FINGER.png,,,,,,,,,,,,,,,,,,,,,z,0,1.2171,,,,,,,,0,110,110,3,1
,,,,,,,,,,,,,,,,,614dd1f943ec0b21335f6421,65,2022-02-12_16h41.54.383,lexical_decision_task_DD,2021.2.3,Win32,59.94844434,,,,,,,,,,,0.9875,1,,,,,,,,,,,,,,,,,,,,,,,,0.032407407,-0.406481481,0,0,0,,,,,,,PISTOL,LB,z,m,./images/PISTOLLB.png,,,,,,,,,,,,,,,,,,,,,z,1,0.9875,,,,,,,,0,111,111,113,1
,,,,,,,,,,,,,,,,,614dd1f943ec0b21335f6421,65,2022-02-12_16h41.54.383,lexical_decision_task_DD,2021.2.3,Win32,59.94844434,,,,,,,,,,,0.7429,1,,,,,,,,,,,,,,,,,,,,,,,,0.032407407,-0.406481481,0,0,0,,,,,,,SAILOR,HB,m,m,./images/SAILORHB.png,,,,,,,,,,,,,,,,,,,,,m,1,0.7429,,,,,,,,0,112,112,67,1
,,,,,,,,,,,,,,,,,614dd1f943ec0b21335f6421,65,2022-02-12_16h41.54.383,lexical_decision_task_DD,2021.2.3,Win32,59.94844434,,,,,,,,,,,0.7579,0,,,,,,,,,,,,,,,,,,,,,,,,0.032407407,-0.406481481,0,0,0,,,,,,,PIMPLE,LB,m,m,./images/PIMPLELB.png,,,,,,,,,,,,,,,,,,,,,z,0,0.7579,,,,,,,,0,113,113,71,1
,,,,,,,,,,,,,,,,,614dd1f943ec0b21335f6421,65,2022-02-12_16h41.54.383,lexical_decision_task_DD,2021.2.3,Win32,59.94844434,,,,,,,,,,,1.0827,0,,,,,,,,,,,,,,,,,,,,,,,,0.032407407,-0.406481481,0,0,0,,,,,,,BANNER,HB,m,m,./images/BANNERHB.png,,,,,,,,,,,,,,,,,,,,,z,0,1.0827,,,,,,,,0,114,114,52,1
,,,,,,,,,,,,,,,,,614dd1f943ec0b21335f6421,65,2022-02-12_16h41.54.383,lexical_decision_task_DD,2021.2.3,Win32,59.94844434,,,,,,,,,,,0.8228,1,,,,,,,,,,,,,,,,,,,,,,,,0.032407407,-0.406481481,0,0,0,,,,,,,TULIP,LB,m,m,./images/TULIPLB.png,,,,,,,,,,,,,,,,,,,,,m,1,0.8228,,,,,,,,0,115,115,8,1
,,,,,,,,,,,,,,,,,614dd1f943ec0b21335f6421,65,2022-02-12_16h41.54.383,lexical_decision_task_DD,2021.2.3,Win32,59.94844434,,,,,,,,,,,1.5707,1,,,,,,,,,,,,,,,,,,,,,,,,0.032407407,-0.406481481,0,0,0,,,,,,,CHAIN,C,z,m,./images/CHAIN.png,,,,,,,,,,,,,,,,,,,,,z,1,1.5707,,,,,,,,0,116,116,126,1
,,,,,,,,,,,,,,,,,614dd1f943ec0b21335f6421,65,2022-02-12_16h41.54.383,lexical_decision_task_DD,2021.2.3,Win32,59.94844434,,,,,,,,,,,1.269,1,,,,,,,,,,,,,,,,,,,,,,,,0.032407407,-0.406481481,0,0,0,,,,,,,PLANET,LB,z,m,./images/PLANETLB.png,,,,,,,,,,,,,,,,,,,,,z,1,1.269,,,,,,,,0,117,117,164,1
,,,,,,,,,,,,,,,,,614dd1f943ec0b21335f6421,65,2022-02-12_16h41.54.383,lexical_decision_task_DD,2021.2.3,Win32,59.94844434,,,,,,,,,,,1.4726,0,,,,,,,,,,,,,,,,,,,,,,,,0.032407407,-0.406481481,0,0,0,,,,,,,SNAKE,HB,z,m,./images/SNAKEHB.png,,,,,,,,,,,,,,,,,,,,,m,0,1.4726,,,,,,,,0,118,118,124,1
,,,,,,,,,,,,,,,,,614dd1f943ec0b21335f6421,65,2022-02-12_16h41.54.383,lexical_decision_task_DD,2021.2.3,Win32,59.94844434,,,,,,,,,,,1.0767,1,,,,,,,,,,,,,,,,,,,,,,,,0.032407407,-0.406481481,0,0,0,,,,,,,NOOSE,C,m,m,./images/NOOSE.png,,,,,,,,,,,,,,,,,,,,,m,1,1.0767,,,,,,,,0,119,119,72,1
,,,,,,,,,,,,,,,,,614dd1f943ec0b21335f6421,65,2022-02-12_16h41.54.383,lexical_decision_task_DD,2021.2.3,Win32,59.94844434,,,,,,,,,,,0.9174,1,,,,,,,,,,,,,,,,,,,,,,,,0.032407407,-0.406481481,0,0,0,,,,,,,GRAPE,HB,z,m,./images/GRAPEHB.png,,,,,,,,,,,,,,,,,,,,,z,1,0.9174,,,,,,,,0,120,120,100,1
,,,,,,,,,,,,,,,,,614dd1f943ec0b21335f6421,65,2022-02-12_16h41.54.383,lexical_decision_task_DD,2021.2.3,Win32,59.94844434,,,,,,,,,,,1.0246,1,,,,,,,,,,,,,,,,,,,,,,,,0.032407407,-0.406481481,0,0,0,,,,,,,GARDEN,HB,z,m,./images/GARDENHB.png,,,,,,,,,,,,,,,,,,,,,z,1,1.0246,,,,,,,,0,121,121,94,1
,,,,,,,,,,,,,,,,,614dd1f943ec0b21335f6421,65,2022-02-12_16h41.54.383,lexical_decision_task_DD,2021.2.3,Win32,59.94844434,,,,,,,,,,,0.8083,1,,,,,,,,,,,,,,,,,,,,,,,,0.032407407,-0.406481481,0,0,0,,,,,,,TIGER,HB,z,m,./images/TIGERHB.png,,,,,,,,,,,,,,,,,,,,,z,1,0.8083,,,,,,,,0,122,122,121,1
,,,,,,,,,,,,,,,,,614dd1f943ec0b21335f6421,65,2022-02-12_16h41.54.383,lexical_decision_task_DD,2021.2.3,Win32,59.94844434,,,,,,,,,,,0.8124,1,,,,,,,,,,,,,,,,,,,,,,,,0.032407407,-0.406481481,0,0,0,,,,,,,LLAMA,LB,z,m,./images/LLAMALB.png,,,,,,,,,,,,,,,,,,,,,z,1,0.8124,,,,,,,,0,123,123,119,1
,,,,,,,,,,,,,,,,,614dd1f943ec0b21335f6421,65,2022-02-12_16h41.54.383,lexical_decision_task_DD,2021.2.3,Win32,59.94844434,,,,,,,,,,,0.759,1,,,,,,,,,,,,,,,,,,,,,,,,0.032407407,-0.406481481,0,0,0,,,,,,,BARREL,LB,m,m,./images/BARRELLB.png,,,,,,,,,,,,,,,,,,,,,m,1,0.759,,,,,,,,0,124,124,32,1
,,,,,,,,,,,,,,,,,614dd1f943ec0b21335f6421,65,2022-02-12_16h41.54.383,lexical_decision_task_DD,2021.2.3,Win32,59.94844434,,,,,,,,,,,0.8318,1,,,,,,,,,,,,,,,,,,,,,,,,0.032407407,-0.406481481,0,0,0,space,,,,,,DRILL,C,z,m,./images/DRILL.png,2.9247,,,,,,,,,,,,,,,,,,,,z,1,0.8318,,,,,,,,0,125,125,165,1
,,,,,,,,,,,,,,,,,614dd1f943ec0b21335f6421,65,2022-02-12_16h41.54.383,lexical_decision_task_DD,2021.2.3,Win32,59.94844434,,,,,,,,,,,1.0969,1,,,,,,,,,,,,,,,,,,,,,,,,0.032407407,-0.406481481,0,0,0,,,,,,,BELLY,HB,m,m,./images/BELLYHB.png,,,,,,,,,,,,,,,,,,,,,m,1,1.0969,,,,,,,,0,126,126,10,1
,,,,,,,,,,,,,,,,,614dd1f943ec0b21335f6421,65,2022-02-12_16h41.54.383,lexical_decision_task_DD,2021.2.3,Win32,59.94844434,,,,,,,,,,,1.0447,0,,,,,,,,,,,,,,,,,,,,,,,,0.032407407,-0.406481481,0,0,0,,,,,,,POSTER,LB,z,m,./images/POSTERLB.png,,,,,,,,,,,,,,,,,,,,,m,0,1.0447,,,,,,,,0,127,127,137,1
,,,,,,,,,,,,,,,,,614dd1f943ec0b21335f6421,65,2022-02-12_16h41.54.383,lexical_decision_task_DD,2021.2.3,Win32,59.94844434,,,,,,,,,,,0.7036,0,,,,,,,,,,,,,,,,,,,,,,,,0.032407407,-0.406481481,0,0,0,,,,,,,SAUCE,C,z,m,./images/SAUCE.png,,,,,,,,,,,,,,,,,,,,,m,0,0.7036,,,,,,,,0,128,128,135,1
,,,,,,,,,,,,,,,,,614dd1f943ec0b21335f6421,65,2022-02-12_16h41.54.383,lexical_decision_task_DD,2021.2.3,Win32,59.94844434,,,,,,,,,,,0.7726,1,,,,,,,,,,,,,,,,,,,,,,,,0.032407407,-0.406481481,0,0,0,,,,,,,SKIING,LB,m,m,./images/SKIINGLB.png,,,,,,,,,,,,,,,,,,,,,m,1,0.7726,,,,,,,,0,129,129,17,1
,,,,,,,,,,,,,,,,,614dd1f943ec0b21335f6421,65,2022-02-12_16h41.54.383,lexical_decision_task_DD,2021.2.3,Win32,59.94844434,,,,,,,,,,,1.1172,1,,,,,,,,,,,,,,,,,,,,,,,,0.032407407,-0.406481481,0,0,0,,,,,,,TRIPOD,C,m,m,./images/TRIPOD.png,,,,,,,,,,,,,,,,,,,,,m,1,1.1172,,,,,,,,0,130,130,54,1
,,,,,,,,,,,,,,,,,614dd1f943ec0b21335f6421,65,2022-02-12_16h41.54.383,lexical_decision_task_DD,2021.2.3,Win32,59.94844434,,,,,,,,,,,1.1683,0,,,,,,,,,,,,,,,,,,,,,,,,0.032407407,-0.406481481,0,0,0,,,,,,,MALLET,LB,m,m,./images/MALLETLB.png,,,,,,,,,,,,,,,,,,,,,z,0,1.1683,,,,,,,,0,131,131,50,1
,,,,,,,,,,,,,,,,,614dd1f943ec0b21335f6421,65,2022-02-12_16h41.54.383,lexical_decision_task_DD,2021.2.3,Win32,59.94844434,,,,,,,,,,,0.7368,1,,,,,,,,,,,,,,,,,,,,,,,,0.032407407,-0.406481481,0,0,0,,,,,,,FALCON,HB,m,m,./images/FALCONHB.png,,,,,,,,,,,,,,,,,,,,,m,1,0.7368,,,,,,,,0,132,132,28,1
,,,,,,,,,,,,,,,,,614dd1f943ec0b21335f6421,65,2022-02-12_16h41.54.383,lexical_decision_task_DD,2021.2.3,Win32,59.94844434,,,,,,,,,,,0.9936,1,,,,,,,,,,,,,,,,,,,,,,,,0.032407407,-0.406481481,0,0,0,,,,,,,WEASEL,LB,m,m,./images/WEASELLB.png,,,,,,,,,,,,,,,,,,,,,m,1,0.9936,,,,,,,,0,133,133,80,1
,,,,,,,,,,,,,,,,,614dd1f943ec0b21335f6421,65,2022-02-12_16h41.54.383,lexical_decision_task_DD,2021.2.3,Win32,59.94844434,,,,,,,,,,,0.7608,1,,,,,,,,,,,,,,,,,,,,,,,,0.032407407,-0.406481481,0,0,0,,,,,,,CRADLE,LB,m,m,./images/CRADLELB.png,,,,,,,,,,,,,,,,,,,,,m,1,0.7608,,,,,,,,0,134,134,20,1
,,,,,,,,,,,,,,,,,614dd1f943ec0b21335f6421,65,2022-02-12_16h41.54.383,lexical_decision_task_DD,2021.2.3,Win32,59.94844434,,,,,,,,,,,0.738,1,,,,,,,,,,,,,,,,,,,,,,,,0.032407407,-0.406481481,0,0,0,,,,,,,BRIDE,HB,z,m,./images/BRIDEHB.png,,,,,,,,,,,,,,,,,,,,,z,1,0.738,,,,,,,,0,135,135,148,1
