key_resp.keys,instr_done_touch.x,instr_done_touch.y,instr_done_touch.leftButton,instr_done_touch.midButton,instr_done_touch.rightButton,instr_done_touch.clicked_name,instruction_pages.thisRepN,instruction_pages.thisTrialN,instruction_pages.thisN,instruction_pages.thisIndex,instruction_pages.ran,pageN,phase,instruct_text,has_image,instruct_image,participant,age,date,expName,psychopyVersion,OS,frameRate,response.keys,response.corr,response.rt,touch_resp.x,touch_resp.y,touch_resp.leftButton,touch_resp.midButton,touch_resp.rightButton,touch_resp.time,touch_resp.clicked_name,rt,corr,practrials.thisRepN,practrials.thisTrialN,practrials.thisN,practrials.thisIndex,practrials.ran,TrialID,Target,corrAns,end_of_practice_trials_pages.thisRepN,end_of_practice_trials_pages.thisTrialN,end_of_practice_trials_pages.thisN,end_of_practice_trials_pages.thisIndex,end_of_practice_trials_pages.ran,key_resp_2.keys,key_resp_2.corr,key_resp_2.rt,targ_click.x,targ_click.y,targ_click.leftButton,targ_click.midButton,targ_click.rightButton,targ_click.time,targ_click.clicked_name,break_done_touch.x,break_done_touch.y,break_done_touch.leftButton,break_done_touch.midButton,break_done_touch.rightButton,break_done_keyboard.keys,maintrials.thisRepN,maintrials.thisTrialN,maintrials.thisN,maintrials.thisIndex,maintrials.ran,string,blur,study,lex,stim_path,break_done_keyboard.rt,mouse_2.x,mouse_2.y,mouse_2.leftButton,mouse_2.midButton,mouse_2.rightButton,mouse_2.clicked_name,slider.response,slider.rt,trials.thisRepN,trials.thisTrialN,trials.thisN,trials.thisIndex,trials.ran,test_instructions.thisRepN,test_instructions.thisTrialN,test_instructions.thisN,test_instructions.thisIndex,test_instructions.ran,key_resp.rt,key_resp_3.keys,key_resp_3.corr,key_resp_3.rt,test_click.x,test_click.y,test_click.leftButton,test_click.midButton,test_click.rightButton,test_click.time,test_click.clicked_name,test_phase.thisRepN,test_phase.thisTrialN,test_phase.thisN,test_phase.thisIndex,test_phase.ran
,0.117592593,-0.375,1,0,0,instr_done_button,0,0,0,0,1,1,instructions,"INSTRUCTIONS
At the start of each trial, look at the plus sign  (+) in the center of the screen.  This tells you that a trial is about to begin and where to look. Second, the plus sign will disappear and a string of letters will appear. Your task is to determine if the string of letters is a word or not. If the item is a word press the M key (on keyboard)  or touch the word button (phone/tablet).  If the item is not a word,  press the  Z key (on keyboard)  or touch the nonword button (on phone/tablet). 
Press the space bar or touch  continue.",0,,614e2446523bb49af662fb62,29,2022-02-12_12h31.13.016,lexical_decision_task_DD,2021.2.3,Linux x86_64,60.0024001,,,,,,,,,,,,,,,,,,,,,,,,,,,,,,,,,,,,,,,,,,,,,,,,,,,,,,,,,,,,,,,,,,,,,,,,,,,,,,,,,,,,,,
,0.114814815,-0.387962963,1,0,0,instr_done_button,0,1,1,1,1,2,instructions,"If your device has a keyboard, press the 'Z' key for nonwords and the 'M' key for words.





Press the space bar or touch the button below to continue.",0,keyboard-example.gif,614e2446523bb49af662fb62,29,2022-02-12_12h31.13.016,lexical_decision_task_DD,2021.2.3,Linux x86_64,60.0024001,,,,,,,,,,,,,,,,,,,,,,,,,,,,,,,,,,,,,,,,,,,,,,,,,,,,,,,,,,,,,,,,,,,,,,,,,,,,,,,,,,,,,,
,0.114814815,-0.387962963,1,0,0,instr_done_button,0,2,2,2,1,3,instructions,"If you are using a touchscreen only device, use the buttons on the screen. Do not use the mouse.





Press the space bar or touch the button below to continue.",0,touchscreen-example.gif,614e2446523bb49af662fb62,29,2022-02-12_12h31.13.016,lexical_decision_task_DD,2021.2.3,Linux x86_64,60.0024001,,,,,,,,,,,,,,,,,,,,,,,,,,,,,,,,,,,,,,,,,,,,,,,,,,,,,,,,,,,,,,,,,,,,,,,,,,,,,,,,,,,,,,
,0.114814815,-0.387962963,1,0,0,instr_done_button,0,3,3,3,1,4,instructions,"It is very important that you respond as quickly and accurately as possible, as each letter string will only be on the screen for two seconds. If you do not respond within this time, the message 'Too slow!' will be displayed and the experiment will progress to the next letter string. The first 20 trials will be practice trials and you will receive feedback on your answers. 

Press the space bar or touch the button below to start the practice trials.",0,,614e2446523bb49af662fb62,29,2022-02-12_12h31.13.016,lexical_decision_task_DD,2021.2.3,Linux x86_64,60.0024001,,,,,,,,,,,,,,,,,,,,,,,,,,,,,,,,,,,,,,,,,,,,,,,,,,,,,,,,,,,,,,,,,,,,,,,,,,,,,,,,,,,,,,
,,,,,,,,,,,,,,,,,614e2446523bb49af662fb62,29,2022-02-12_12h31.13.016,lexical_decision_task_DD,2021.2.3,Linux x86_64,60.0024001,z,1,2.2546,,,,,,,,2.2546,1,0,0,0,10,1,1001,INLADE,z,,,,,,,,,,,,,,,,,,,,,,,,,,,,,,,,,,,,,,,,,,,,,,,,,,,,,,,,,,,,,,,,,,
,,,,,,,,,,,,,,,,,614e2446523bb49af662fb62,29,2022-02-12_12h31.13.016,lexical_decision_task_DD,2021.2.3,Linux x86_64,60.0024001,z,0,0.7065,,,,,,,,0.7065,0,0,1,1,3,1,1001,MATRIX,m,,,,,,,,,,,,,,,,,,,,,,,,,,,,,,,,,,,,,,,,,,,,,,,,,,,,,,,,,,,,,,,,,,
,,,,,,,,,,,,,,,,,614e2446523bb49af662fb62,29,2022-02-12_12h31.13.016,lexical_decision_task_DD,2021.2.3,Linux x86_64,60.0024001,z,0,0.6721,,,,,,,,0.6721,0,0,2,2,4,1,1001,SQUEAK,m,,,,,,,,,,,,,,,,,,,,,,,,,,,,,,,,,,,,,,,,,,,,,,,,,,,,,,,,,,,,,,,,,,
,,,,,,,,,,,,,,,,,614e2446523bb49af662fb62,29,2022-02-12_12h31.13.016,lexical_decision_task_DD,2021.2.3,Linux x86_64,60.0024001,m,0,2.3227,,,,,,,,2.3227,0,0,3,3,12,1,1001,SPRINY,z,,,,,,,,,,,,,,,,,,,,,,,,,,,,,,,,,,,,,,,,,,,,,,,,,,,,,,,,,,,,,,,,,,
,,,,,,,,,,,,,,,,,614e2446523bb49af662fb62,29,2022-02-12_12h31.13.016,lexical_decision_task_DD,2021.2.3,Linux x86_64,60.0024001,z,1,1.2733,,,,,,,,1.2733,1,0,4,4,15,1,1001,WHAISE,z,,,,,,,,,,,,,,,,,,,,,,,,,,,,,,,,,,,,,,,,,,,,,,,,,,,,,,,,,,,,,,,,,,
,,,,,,,,,,,,,,,,,614e2446523bb49af662fb62,29,2022-02-12_12h31.13.016,lexical_decision_task_DD,2021.2.3,Linux x86_64,60.0024001,m,1,0.7889,,,,,,,,0.7889,1,0,5,5,5,1,1001,OBTAIN,m,,,,,,,,,,,,,,,,,,,,,,,,,,,,,,,,,,,,,,,,,,,,,,,,,,,,,,,,,,,,,,,,,,
,,,,,,,,,,,,,,,,,614e2446523bb49af662fb62,29,2022-02-12_12h31.13.016,lexical_decision_task_DD,2021.2.3,Linux x86_64,60.0024001,m,0,1.2401,,,,,,,,1.2401,0,0,6,6,13,1,1001,ROUPET,z,,,,,,,,,,,,,,,,,,,,,,,,,,,,,,,,,,,,,,,,,,,,,,,,,,,,,,,,,,,,,,,,,,
,,,,,,,,,,,,,,,,,614e2446523bb49af662fb62,29,2022-02-12_12h31.13.016,lexical_decision_task_DD,2021.2.3,Linux x86_64,60.0024001,m,0,1.1413,,,,,,,,1.1413,0,0,7,7,11,1,1001,RASHET,z,,,,,,,,,,,,,,,,,,,,,,,,,,,,,,,,,,,,,,,,,,,,,,,,,,,,,,,,,,,,,,,,,,
,,,,,,,,,,,,,,,,,614e2446523bb49af662fb62,29,2022-02-12_12h31.13.016,lexical_decision_task_DD,2021.2.3,Linux x86_64,60.0024001,z,1,0.8899,,,,,,,,0.8899,1,0,8,8,14,1,1001,THRALE,z,,,,,,,,,,,,,,,,,,,,,,,,,,,,,,,,,,,,,,,,,,,,,,,,,,,,,,,,,,,,,,,,,,
,,,,,,,,,,,,,,,,,614e2446523bb49af662fb62,29,2022-02-12_12h31.13.016,lexical_decision_task_DD,2021.2.3,Linux x86_64,60.0024001,m,1,1.3741,,,,,,,,1.3741,1,0,9,9,2,1,1001,ALMOND,m,,,,,,,,,,,,,,,,,,,,,,,,,,,,,,,,,,,,,,,,,,,,,,,,,,,,,,,,,,,,,,,,,,
,,,,,,,,,,,,,,,,,614e2446523bb49af662fb62,29,2022-02-12_12h31.13.016,lexical_decision_task_DD,2021.2.3,Linux x86_64,60.0024001,z,1,1.0903,,,,,,,,1.0903,1,0,10,10,8,1,1001,ASLERT,z,,,,,,,,,,,,,,,,,,,,,,,,,,,,,,,,,,,,,,,,,,,,,,,,,,,,,,,,,,,,,,,,,,
,,,,,,,,,,,,,,,,,614e2446523bb49af662fb62,29,2022-02-12_12h31.13.016,lexical_decision_task_DD,2021.2.3,Linux x86_64,60.0024001,m,1,1.2393,,,,,,,,1.2393,1,0,11,11,0,1,1001,UTOPIA,m,,,,,,,,,,,,,,,,,,,,,,,,,,,,,,,,,,,,,,,,,,,,,,,,,,,,,,,,,,,,,,,,,,
,,,,,,,,,,,,,,,,,614e2446523bb49af662fb62,29,2022-02-12_12h31.13.016,lexical_decision_task_DD,2021.2.3,Linux x86_64,60.0024001,m,1,0.6905,,,,,,,,0.6905,1,0,12,12,6,1,1001,ZOMBIE,m,,,,,,,,,,,,,,,,,,,,,,,,,,,,,,,,,,,,,,,,,,,,,,,,,,,,,,,,,,,,,,,,,,
,,,,,,,,,,,,,,,,,614e2446523bb49af662fb62,29,2022-02-12_12h31.13.016,lexical_decision_task_DD,2021.2.3,Linux x86_64,60.0024001,m,1,0.5729,,,,,,,,0.5729,1,0,13,13,7,1,1001,VOLUME,m,,,,,,,,,,,,,,,,,,,,,,,,,,,,,,,,,,,,,,,,,,,,,,,,,,,,,,,,,,,,,,,,,,
,,,,,,,,,,,,,,,,,614e2446523bb49af662fb62,29,2022-02-12_12h31.13.016,lexical_decision_task_DD,2021.2.3,Linux x86_64,60.0024001,z,1,1.0398,,,,,,,,1.0398,1,0,14,14,9,1,1001,FARINY,z,,,,,,,,,,,,,,,,,,,,,,,,,,,,,,,,,,,,,,,,,,,,,,,,,,,,,,,,,,,,,,,,,,
,,,,,,,,,,,,,,,,,614e2446523bb49af662fb62,29,2022-02-12_12h31.13.016,lexical_decision_task_DD,2021.2.3,Linux x86_64,60.0024001,m,1,0.5899,,,,,,,,0.5899,1,0,15,15,1,1,1001,ADJUST,m,,,,,,,,,,,,,,,,,,,,,,,,,,,,,,,,,,,,,,,,,,,,,,,,,,,,,,,,,,,,,,,,,,
,0.084259259,-0.409259259,1,0,0,instr_done_button,,,,,,1,end_of_practice,"You have completed the practice trials. During the experimental trials, you will not receive feedback. 
Before you begin, please ensure that you are in a comfortable and quiet location and will not be disturbed for about 15 minutes, as we cannot use your data if you do not complete all the trials. 
 When you are ready to start the experimental trials, please press space or touch the button below.",,,614e2446523bb49af662fb62,29,2022-02-12_12h31.13.016,lexical_decision_task_DD,2021.2.3,Linux x86_64,60.0024001,,,,,,,,,,,,,,,,,,,,,0,0,0,0,1,,,,,,,,,,,,,,,,,,,,,,,,,,,,,,,,,,,,,,,,,,,,,,,,,,,,,,,,,,,,,
,,,,,,,,,,,,,,,,,614e2446523bb49af662fb62,29,2022-02-12_12h31.13.016,lexical_decision_task_DD,2021.2.3,Linux x86_64,60.0024001,,,,,,,,,,,1.9013,1,,,,,,,,,,,,,,z,1,1.9013,,,,,,,,0.37037037,-0.300925926,0,0,0,,0,0,0,133,1,POWDY,HB,old,z,./images/POWDYHB.png,,,,,,,,,,,,,,,,,,,,,,,,,,,,,,,,,,,
,,,,,,,,,,,,,,,,,614e2446523bb49af662fb62,29,2022-02-12_12h31.13.016,lexical_decision_task_DD,2021.2.3,Linux x86_64,60.0024001,,,,,,,,,,,0.9733,1,,,,,,,,,,,,,,z,1,0.9733,,,,,,,,0.37037037,-0.300925926,0,0,0,,0,1,1,146,1,MOOST,LB,old,z,./images/MOOSTLB.png,,,,,,,,,,,,,,,,,,,,,,,,,,,,,,,,,,,
,,,,,,,,,,,,,,,,,614e2446523bb49af662fb62,29,2022-02-12_12h31.13.016,lexical_decision_task_DD,2021.2.3,Linux x86_64,60.0024001,,,,,,,,,,,0.7708,1,,,,,,,,,,,,,,m,1,0.7708,,,,,,,,0.37037037,-0.300925926,0,0,0,,0,2,2,11,1,BONNET,LB,old,m,./images/BONNETLB.png,,,,,,,,,,,,,,,,,,,,,,,,,,,,,,,,,,,
,,,,,,,,,,,,,,,,,614e2446523bb49af662fb62,29,2022-02-12_12h31.13.016,lexical_decision_task_DD,2021.2.3,Linux x86_64,60.0024001,,,,,,,,,,,0.7876,1,,,,,,,,,,,,,,z,1,0.7876,,,,,,,,0.37037037,-0.300925926,0,0,0,,0,3,3,98,1,BAMPS,LB,old,z,./images/BAMPSLB.png,,,,,,,,,,,,,,,,,,,,,,,,,,,,,,,,,,,
,,,,,,,,,,,,,,,,,614e2446523bb49af662fb62,29,2022-02-12_12h31.13.016,lexical_decision_task_DD,2021.2.3,Linux x86_64,60.0024001,,,,,,,,,,,0.7033,1,,,,,,,,,,,,,,m,1,0.7033,,,,,,,,0.37037037,-0.300925926,0,0,0,,0,4,4,80,1,WEASEL,LB,old,m,./images/WEASELLB.png,,,,,,,,,,,,,,,,,,,,,,,,,,,,,,,,,,,
,,,,,,,,,,,,,,,,,614e2446523bb49af662fb62,29,2022-02-12_12h31.13.016,lexical_decision_task_DD,2021.2.3,Linux x86_64,60.0024001,,,,,,,,,,,0.8549,1,,,,,,,,,,,,,,m,1,0.8549,,,,,,,,0.37037037,-0.300925926,0,0,0,,0,5,5,25,1,WRIST,HB,old,m,./images/WRISTHB.png,,,,,,,,,,,,,,,,,,,,,,,,,,,,,,,,,,,
,,,,,,,,,,,,,,,,,614e2446523bb49af662fb62,29,2022-02-12_12h31.13.016,lexical_decision_task_DD,2021.2.3,Linux x86_64,60.0024001,,,,,,,,,,,0.7671,1,,,,,,,,,,,,,,z,1,0.7671,,,,,,,,0.37037037,-0.300925926,0,0,0,,0,6,6,126,1,GUELS,C,old,z,./images/GUELS.png,,,,,,,,,,,,,,,,,,,,,,,,,,,,,,,,,,,
,,,,,,,,,,,,,,,,,614e2446523bb49af662fb62,29,2022-02-12_12h31.13.016,lexical_decision_task_DD,2021.2.3,Linux x86_64,60.0024001,,,,,,,,,,,0.9047,1,,,,,,,,,,,,,,m,1,0.9047,,,,,,,,0.37037037,-0.300925926,0,0,0,,0,7,7,22,1,MELON,HB,old,m,./images/MELONHB.png,,,,,,,,,,,,,,,,,,,,,,,,,,,,,,,,,,,
,,,,,,,,,,,,,,,,,614e2446523bb49af662fb62,29,2022-02-12_12h31.13.016,lexical_decision_task_DD,2021.2.3,Linux x86_64,60.0024001,,,,,,,,,,,1.0366,1,,,,,,,,,,,,,,z,1,1.0366,,,,,,,,0.37037037,-0.300925926,0,0,0,,0,8,8,164,1,SGREW,LB,old,z,./images/SGREWLB.png,,,,,,,,,,,,,,,,,,,,,,,,,,,,,,,,,,,
,,,,,,,,,,,,,,,,,614e2446523bb49af662fb62,29,2022-02-12_12h31.13.016,lexical_decision_task_DD,2021.2.3,Linux x86_64,60.0024001,,,,,,,,,,,1.8695,1,,,,,,,,,,,,,,z,1,1.8695,,,,,,,,0.37037037,-0.300925926,0,0,0,,0,9,9,97,1,CHIDS,HB,old,z,./images/CHIDSHB.png,,,,,,,,,,,,,,,,,,,,,,,,,,,,,,,,,,,
,,,,,,,,,,,,,,,,,614e2446523bb49af662fb62,29,2022-02-12_12h31.13.016,lexical_decision_task_DD,2021.2.3,Linux x86_64,60.0024001,,,,,,,,,,,0.8021,1,,,,,,,,,,,,,,m,1,0.8021,,,,,,,,0.37037037,-0.300925926,0,0,0,,0,10,10,18,1,JAGUAR,C,old,m,./images/JAGUAR.png,,,,,,,,,,,,,,,,,,,,,,,,,,,,,,,,,,,
,,,,,,,,,,,,,,,,,614e2446523bb49af662fb62,29,2022-02-12_12h31.13.016,lexical_decision_task_DD,2021.2.3,Linux x86_64,60.0024001,,,,,,,,,,,1.0042,0,,,,,,,,,,,,,,m,0,1.0042,,,,,,,,0.37037037,-0.300925926,0,0,0,,0,11,11,140,1,DOVET,LB,old,z,./images/DOVETLB.png,,,,,,,,,,,,,,,,,,,,,,,,,,,,,,,,,,,
,,,,,,,,,,,,,,,,,614e2446523bb49af662fb62,29,2022-02-12_12h31.13.016,lexical_decision_task_DD,2021.2.3,Linux x86_64,60.0024001,,,,,,,,,,,0.6385,0,,,,,,,,,,,,,,m,0,0.6385,,,,,,,,0.37037037,-0.300925926,0,0,0,,0,12,12,110,1,CRUNK,LB,old,z,./images/CRUNKLB.png,,,,,,,,,,,,,,,,,,,,,,,,,,,,,,,,,,,
,,,,,,,,,,,,,,,,,614e2446523bb49af662fb62,29,2022-02-12_12h31.13.016,lexical_decision_task_DD,2021.2.3,Linux x86_64,60.0024001,,,,,,,,,,,0.8211,1,,,,,,,,,,,,,,m,1,0.8211,,,,,,,,0.37037037,-0.300925926,0,0,0,,0,13,13,73,1,SNACK,HB,old,m,./images/SNACKHB.png,,,,,,,,,,,,,,,,,,,,,,,,,,,,,,,,,,,
,,,,,,,,,,,,,,,,,614e2446523bb49af662fb62,29,2022-02-12_12h31.13.016,lexical_decision_task_DD,2021.2.3,Linux x86_64,60.0024001,,,,,,,,,,,0.6355,1,,,,,,,,,,,,,,m,1,0.6355,,,,,,,,0.37037037,-0.300925926,0,0,0,,0,14,14,48,1,SPORT,C,old,m,./images/SPORT.png,,,,,,,,,,,,,,,,,,,,,,,,,,,,,,,,,,,
,,,,,,,,,,,,,,,,,614e2446523bb49af662fb62,29,2022-02-12_12h31.13.016,lexical_decision_task_DD,2021.2.3,Linux x86_64,60.0024001,,,,,,,,,,,0.9034,1,,,,,,,,,,,,,,z,1,0.9034,,,,,,,,0.37037037,-0.300925926,0,0,0,,0,15,15,154,1,THINT,HB,old,z,./images/THINTHB.png,,,,,,,,,,,,,,,,,,,,,,,,,,,,,,,,,,,
,,,,,,,,,,,,,,,,,614e2446523bb49af662fb62,29,2022-02-12_12h31.13.016,lexical_decision_task_DD,2021.2.3,Linux x86_64,60.0024001,,,,,,,,,,,0.7388,1,,,,,,,,,,,,,,z,1,0.7388,,,,,,,,0.37037037,-0.300925926,0,0,0,,0,16,16,167,1,ZONET,LB,old,z,./images/ZONETLB.png,,,,,,,,,,,,,,,,,,,,,,,,,,,,,,,,,,,
,,,,,,,,,,,,,,,,,614e2446523bb49af662fb62,29,2022-02-12_12h31.13.016,lexical_decision_task_DD,2021.2.3,Linux x86_64,60.0024001,,,,,,,,,,,1.0198,1,,,,,,,,,,,,,,z,1,1.0198,,,,,,,,0.37037037,-0.300925926,0,0,0,,0,17,17,90,1,NEAST,C,old,z,./images/NEAST.png,,,,,,,,,,,,,,,,,,,,,,,,,,,,,,,,,,,
,,,,,,,,,,,,,,,,,614e2446523bb49af662fb62,29,2022-02-12_12h31.13.016,lexical_decision_task_DD,2021.2.3,Linux x86_64,60.0024001,,,,,,,,,,,0.6355,1,,,,,,,,,,,,,,m,1,0.6355,,,,,,,,0.37037037,-0.300925926,0,0,0,,0,18,18,33,1,MAGGOT,C,old,m,./images/MAGGOT.png,,,,,,,,,,,,,,,,,,,,,,,,,,,,,,,,,,,
,,,,,,,,,,,,,,,,,614e2446523bb49af662fb62,29,2022-02-12_12h31.13.016,lexical_decision_task_DD,2021.2.3,Linux x86_64,60.0024001,,,,,,,,,,,0.6708,1,,,,,,,,,,,,,,z,1,0.6708,,,,,,,,0.37037037,-0.300925926,0,0,0,,0,19,19,112,1,MYING,HB,old,z,./images/MYINGHB.png,,,,,,,,,,,,,,,,,,,,,,,,,,,,,,,,,,,
,,,,,,,,,,,,,,,,,614e2446523bb49af662fb62,29,2022-02-12_12h31.13.016,lexical_decision_task_DD,2021.2.3,Linux x86_64,60.0024001,,,,,,,,,,,0.7518,1,,,,,,,,,,,,,,z,1,0.7518,,,,,,,,0.37037037,-0.300925926,0,0,0,,0,20,20,147,1,ZOLES,C,old,z,./images/ZOLES.png,,,,,,,,,,,,,,,,,,,,,,,,,,,,,,,,,,,
,,,,,,,,,,,,,,,,,614e2446523bb49af662fb62,29,2022-02-12_12h31.13.016,lexical_decision_task_DD,2021.2.3,Linux x86_64,60.0024001,,,,,,,,,,,0.7883,1,,,,,,,,,,,,,,m,1,0.7883,,,,,,,,0.37037037,-0.300925926,0,0,0,,0,21,21,64,1,JELLY,HB,old,m,./images/JELLYHB.png,,,,,,,,,,,,,,,,,,,,,,,,,,,,,,,,,,,
,,,,,,,,,,,,,,,,,614e2446523bb49af662fb62,29,2022-02-12_12h31.13.016,lexical_decision_task_DD,2021.2.3,Linux x86_64,60.0024001,,,,,,,,,,,0.7208,1,,,,,,,,,,,,,,z,1,0.7208,,,,,,,,0.37037037,-0.300925926,0,0,0,,0,22,22,92,1,PAIMS,LB,old,z,./images/PAIMSLB.png,,,,,,,,,,,,,,,,,,,,,,,,,,,,,,,,,,,
,,,,,,,,,,,,,,,,,614e2446523bb49af662fb62,29,2022-02-12_12h31.13.016,lexical_decision_task_DD,2021.2.3,Linux x86_64,60.0024001,,,,,,,,,,,0.7037,1,,,,,,,,,,,,,,m,1,0.7037,,,,,,,,0.37037037,-0.300925926,0,0,0,,0,23,23,54,1,TRIPOD,C,old,m,./images/TRIPOD.png,,,,,,,,,,,,,,,,,,,,,,,,,,,,,,,,,,,
,,,,,,,,,,,,,,,,,614e2446523bb49af662fb62,29,2022-02-12_12h31.13.016,lexical_decision_task_DD,2021.2.3,Linux x86_64,60.0024001,,,,,,,,,,,0.6712,1,,,,,,,,,,,,,,z,1,0.6712,,,,,,,,0.37037037,-0.300925926,0,0,0,,0,24,24,95,1,HANTY,LB,old,z,./images/HANTYLB.png,,,,,,,,,,,,,,,,,,,,,,,,,,,,,,,,,,,
,,,,,,,,,,,,,,,,,614e2446523bb49af662fb62,29,2022-02-12_12h31.13.016,lexical_decision_task_DD,2021.2.3,Linux x86_64,60.0024001,,,,,,,,,,,0.9379,1,,,,,,,,,,,,,,z,1,0.9379,,,,,,,,0.37037037,-0.300925926,0,0,0,,0,25,25,119,1,PAFER,LB,old,z,./images/PAFERLB.png,,,,,,,,,,,,,,,,,,,,,,,,,,,,,,,,,,,
,,,,,,,,,,,,,,,,,614e2446523bb49af662fb62,29,2022-02-12_12h31.13.016,lexical_decision_task_DD,2021.2.3,Linux x86_64,60.0024001,,,,,,,,,,,1.0039,1,,,,,,,,,,,,,,m,1,1.0039,,,,,,,,0.37037037,-0.300925926,0,0,0,,0,26,26,23,1,WALRUS,LB,old,m,./images/WALRUSLB.png,,,,,,,,,,,,,,,,,,,,,,,,,,,,,,,,,,,
,,,,,,,,,,,,,,,,,614e2446523bb49af662fb62,29,2022-02-12_12h31.13.016,lexical_decision_task_DD,2021.2.3,Linux x86_64,60.0024001,,,,,,,,,,,1.139,1,,,,,,,,,,,,,,m,1,1.139,,,,,,,,0.37037037,-0.300925926,0,0,0,,0,27,27,37,1,BIRTH,HB,old,m,./images/BIRTHHB.png,,,,,,,,,,,,,,,,,,,,,,,,,,,,,,,,,,,
,,,,,,,,,,,,,,,,,614e2446523bb49af662fb62,29,2022-02-12_12h31.13.016,lexical_decision_task_DD,2021.2.3,Linux x86_64,60.0024001,,,,,,,,,,,0.6192,1,,,,,,,,,,,,,,m,1,0.6192,,,,,,,,0.37037037,-0.300925926,0,0,0,,0,28,28,78,1,LITTER,C,old,m,./images/LITTER.png,,,,,,,,,,,,,,,,,,,,,,,,,,,,,,,,,,,
,,,,,,,,,,,,,,,,,614e2446523bb49af662fb62,29,2022-02-12_12h31.13.016,lexical_decision_task_DD,2021.2.3,Linux x86_64,60.0024001,,,,,,,,,,,0.5386,1,,,,,,,,,,,,,,m,1,0.5386,,,,,,,,0.37037037,-0.300925926,0,0,0,,0,29,29,35,1,PEACH,LB,old,m,./images/PEACHLB.png,,,,,,,,,,,,,,,,,,,,,,,,,,,,,,,,,,,
,,,,,,,,,,,,,,,,,614e2446523bb49af662fb62,29,2022-02-12_12h31.13.016,lexical_decision_task_DD,2021.2.3,Linux x86_64,60.0024001,,,,,,,,,,,0.5687,1,,,,,,,,,,,,,,m,1,0.5687,,,,,,,,0.37037037,-0.300925926,0,0,0,,0,30,30,63,1,MIRROR,C,old,m,./images/MIRROR.png,,,,,,,,,,,,,,,,,,,,,,,,,,,,,,,,,,,
,,,,,,,,,,,,,,,,,614e2446523bb49af662fb62,29,2022-02-12_12h31.13.016,lexical_decision_task_DD,2021.2.3,Linux x86_64,60.0024001,,,,,,,,,,,0.5882,1,,,,,,,,,,,,,,m,1,0.5882,,,,,,,,0.37037037,-0.300925926,0,0,0,,0,31,31,83,1,JUNGLE,LB,old,m,./images/JUNGLELB.png,,,,,,,,,,,,,,,,,,,,,,,,,,,,,,,,,,,
,,,,,,,,,,,,,,,,,614e2446523bb49af662fb62,29,2022-02-12_12h31.13.016,lexical_decision_task_DD,2021.2.3,Linux x86_64,60.0024001,,,,,,,,,,,0.9534,1,,,,,,,,,,,,,,m,1,0.9534,,,,,,,,0.37037037,-0.300925926,0,0,0,,0,32,32,31,1,QUILL,HB,old,m,./images/QUILLHB.png,,,,,,,,,,,,,,,,,,,,,,,,,,,,,,,,,,,
,,,,,,,,,,,,,,,,,614e2446523bb49af662fb62,29,2022-02-12_12h31.13.016,lexical_decision_task_DD,2021.2.3,Linux x86_64,60.0024001,,,,,,,,,,,0.5349,1,,,,,,,,,,,,,,m,1,0.5349,,,,,,,,0.37037037,-0.300925926,0,0,0,,0,33,33,9,1,RHINO,C,old,m,./images/RHINO.png,,,,,,,,,,,,,,,,,,,,,,,,,,,,,,,,,,,
,,,,,,,,,,,,,,,,,614e2446523bb49af662fb62,29,2022-02-12_12h31.13.016,lexical_decision_task_DD,2021.2.3,Linux x86_64,60.0024001,,,,,,,,,,,1.1868,1,,,,,,,,,,,,,,z,1,1.1868,,,,,,,,0.37037037,-0.300925926,0,0,0,,0,34,34,85,1,CHULK,HB,old,z,./images/CHULKHB.png,,,,,,,,,,,,,,,,,,,,,,,,,,,,,,,,,,,
,,,,,,,,,,,,,,,,,614e2446523bb49af662fb62,29,2022-02-12_12h31.13.016,lexical_decision_task_DD,2021.2.3,Linux x86_64,60.0024001,,,,,,,,,,,0.987,1,,,,,,,,,,,,,,z,1,0.987,,,,,,,,0.37037037,-0.300925926,0,0,0,,0,35,35,122,1,BLOOT,LB,old,z,./images/BLOOTLB.png,,,,,,,,,,,,,,,,,,,,,,,,,,,,,,,,,,,
,,,,,,,,,,,,,,,,,614e2446523bb49af662fb62,29,2022-02-12_12h31.13.016,lexical_decision_task_DD,2021.2.3,Linux x86_64,60.0024001,,,,,,,,,,,0.6501,1,,,,,,,,,,,,,,m,1,0.6501,,,,,,,,0.37037037,-0.300925926,0,0,0,,0,36,36,72,1,NOOSE,C,old,m,./images/NOOSE.png,,,,,,,,,,,,,,,,,,,,,,,,,,,,,,,,,,,
,,,,,,,,,,,,,,,,,614e2446523bb49af662fb62,29,2022-02-12_12h31.13.016,lexical_decision_task_DD,2021.2.3,Linux x86_64,60.0024001,,,,,,,,,,,0.9202,1,,,,,,,,,,,,,,z,1,0.9202,,,,,,,,0.37037037,-0.300925926,0,0,0,,0,37,37,111,1,HOSSE,C,old,z,./images/HOSSE.png,,,,,,,,,,,,,,,,,,,,,,,,,,,,,,,,,,,
,,,,,,,,,,,,,,,,,614e2446523bb49af662fb62,29,2022-02-12_12h31.13.016,lexical_decision_task_DD,2021.2.3,Linux x86_64,60.0024001,,,,,,,,,,,0.7852,1,,,,,,,,,,,,,,m,1,0.7852,,,,,,,,0.37037037,-0.300925926,0,0,0,,0,38,38,60,1,TWINS,C,old,m,./images/TWINS.png,,,,,,,,,,,,,,,,,,,,,,,,,,,,,,,,,,,
,,,,,,,,,,,,,,,,,614e2446523bb49af662fb62,29,2022-02-12_12h31.13.016,lexical_decision_task_DD,2021.2.3,Linux x86_64,60.0024001,,,,,,,,,,,0.8885,1,,,,,,,,,,,,,,m,1,0.8885,,,,,,,,0.37037037,-0.300925926,0,0,0,,0,39,39,53,1,CARPET,LB,old,m,./images/CARPETLB.png,,,,,,,,,,,,,,,,,,,,,,,,,,,,,,,,,,,
,,,,,,,,,,,,,,,,,614e2446523bb49af662fb62,29,2022-02-12_12h31.13.016,lexical_decision_task_DD,2021.2.3,Linux x86_64,60.0024001,,,,,,,,,,,0.5703,1,,,,,,,,,,,,,,m,1,0.5703,,,,,,,,0.37037037,-0.300925926,0,0,0,,0,40,40,65,1,FARMER,LB,old,m,./images/FARMERLB.png,,,,,,,,,,,,,,,,,,,,,,,,,,,,,,,,,,,
,,,,,,,,,,,,,,,,,614e2446523bb49af662fb62,29,2022-02-12_12h31.13.016,lexical_decision_task_DD,2021.2.3,Linux x86_64,60.0024001,,,,,,,,,,,0.7713,1,,,,,,,,,,,,,,m,1,0.7713,,,,,,,,0.224074074,-0.360185185,0,0,0,space,0,41,41,19,1,DOUGH,HB,old,m,./images/DOUGHHB.png,1.6891,,,,,,,,,,,,,,,,,,,,,,,,,,,,,,,,,,
,,,,,,,,,,,,,,,,,614e2446523bb49af662fb62,29,2022-02-12_12h31.13.016,lexical_decision_task_DD,2021.2.3,Linux x86_64,60.0024001,,,,,,,,,,,0.7887,1,,,,,,,,,,,,,,z,1,0.7887,,,,,,,,0.308333333,-0.27037037,0,0,0,,0,42,42,124,1,TUNCH,HB,old,z,./images/TUNCHHB.png,,,,,,,,,,,,,,,,,,,,,,,,,,,,,,,,,,,
,,,,,,,,,,,,,,,,,614e2446523bb49af662fb62,29,2022-02-12_12h31.13.016,lexical_decision_task_DD,2021.2.3,Linux x86_64,60.0024001,,,,,,,,,,,0.7046,1,,,,,,,,,,,,,,m,1,0.7046,,,,,,,,0.308333333,-0.27037037,0,0,0,,0,43,43,55,1,MUFFIN,HB,old,m,./images/MUFFINHB.png,,,,,,,,,,,,,,,,,,,,,,,,,,,,,,,,,,,
,,,,,,,,,,,,,,,,,614e2446523bb49af662fb62,29,2022-02-12_12h31.13.016,lexical_decision_task_DD,2021.2.3,Linux x86_64,60.0024001,,,,,,,,,,,0.718,1,,,,,,,,,,,,,,z,1,0.718,,,,,,,,0.308333333,-0.27037037,0,0,0,,0,44,44,150,1,NOOLS,C,old,z,./images/NOOLS.png,,,,,,,,,,,,,,,,,,,,,,,,,,,,,,,,,,,
,,,,,,,,,,,,,,,,,614e2446523bb49af662fb62,29,2022-02-12_12h31.13.016,lexical_decision_task_DD,2021.2.3,Linux x86_64,60.0024001,,,,,,,,,,,0.6682,1,,,,,,,,,,,,,,m,1,0.6682,,,,,,,,0.308333333,-0.27037037,0,0,0,,0,45,45,51,1,ONION,C,old,m,./images/ONION.png,,,,,,,,,,,,,,,,,,,,,,,,,,,,,,,,,,,
,,,,,,,,,,,,,,,,,614e2446523bb49af662fb62,29,2022-02-12_12h31.13.016,lexical_decision_task_DD,2021.2.3,Linux x86_64,60.0024001,,,,,,,,,,,0.7518,1,,,,,,,,,,,,,,z,1,0.7518,,,,,,,,0.308333333,-0.27037037,0,0,0,,0,46,46,93,1,SMONE,C,old,z,./images/SMONE.png,,,,,,,,,,,,,,,,,,,,,,,,,,,,,,,,,,,
,,,,,,,,,,,,,,,,,614e2446523bb49af662fb62,29,2022-02-12_12h31.13.016,lexical_decision_task_DD,2021.2.3,Linux x86_64,60.0024001,,,,,,,,,,,0.7871,1,,,,,,,,,,,,,,z,1,0.7871,,,,,,,,0.308333333,-0.27037037,0,0,0,,0,47,47,155,1,CANGY,LB,old,z,./images/CANGYLB.png,,,,,,,,,,,,,,,,,,,,,,,,,,,,,,,,,,,
,,,,,,,,,,,,,,,,,614e2446523bb49af662fb62,29,2022-02-12_12h31.13.016,lexical_decision_task_DD,2021.2.3,Linux x86_64,60.0024001,,,,,,,,,,,0.5357,1,,,,,,,,,,,,,,m,1,0.5357,,,,,,,,0.308333333,-0.27037037,0,0,0,,0,48,48,3,1,FINGER,C,old,m,./images/FINGER.png,,,,,,,,,,,,,,,,,,,,,,,,,,,,,,,,,,,
,,,,,,,,,,,,,,,,,614e2446523bb49af662fb62,29,2022-02-12_12h31.13.016,lexical_decision_task_DD,2021.2.3,Linux x86_64,60.0024001,,,,,,,,,,,0.9189,1,,,,,,,,,,,,,,z,1,0.9189,,,,,,,,0.308333333,-0.27037037,0,0,0,,0,49,49,165,1,TROWN,C,old,z,./images/TROWN.png,,,,,,,,,,,,,,,,,,,,,,,,,,,,,,,,,,,
,,,,,,,,,,,,,,,,,614e2446523bb49af662fb62,29,2022-02-12_12h31.13.016,lexical_decision_task_DD,2021.2.3,Linux x86_64,60.0024001,,,,,,,,,,,0.6314,1,,,,,,,,,,,,,,z,1,0.6314,,,,,,,,0.308333333,-0.27037037,0,0,0,,0,50,50,131,1,NACES,LB,old,z,./images/NACESLB.png,,,,,,,,,,,,,,,,,,,,,,,,,,,,,,,,,,,
,,,,,,,,,,,,,,,,,614e2446523bb49af662fb62,29,2022-02-12_12h31.13.016,lexical_decision_task_DD,2021.2.3,Linux x86_64,60.0024001,,,,,,,,,,,0.6055,1,,,,,,,,,,,,,,z,1,0.6055,,,,,,,,0.308333333,-0.27037037,0,0,0,,0,51,51,134,1,TROSS,LB,old,z,./images/TROSSLB.png,,,,,,,,,,,,,,,,,,,,,,,,,,,,,,,,,,,
,,,,,,,,,,,,,,,,,614e2446523bb49af662fb62,29,2022-02-12_12h31.13.016,lexical_decision_task_DD,2021.2.3,Linux x86_64,60.0024001,,,,,,,,,,,1.0511,1,,,,,,,,,,,,,,z,1,1.0511,,,,,,,,0.308333333,-0.27037037,0,0,0,,0,52,52,129,1,PRANS,C,old,z,./images/PRANS.png,,,,,,,,,,,,,,,,,,,,,,,,,,,,,,,,,,,
,,,,,,,,,,,,,,,,,614e2446523bb49af662fb62,29,2022-02-12_12h31.13.016,lexical_decision_task_DD,2021.2.3,Linux x86_64,60.0024001,,,,,,,,,,,0.6215,1,,,,,,,,,,,,,,m,1,0.6215,,,,,,,,0.308333333,-0.27037037,0,0,0,,0,53,53,2,1,BEARD,LB,old,m,./images/BEARDLB.png,,,,,,,,,,,,,,,,,,,,,,,,,,,,,,,,,,,
,,,,,,,,,,,,,,,,,614e2446523bb49af662fb62,29,2022-02-12_12h31.13.016,lexical_decision_task_DD,2021.2.3,Linux x86_64,60.0024001,,,,,,,,,,,0.6872,1,,,,,,,,,,,,,,z,1,0.6872,,,,,,,,0.308333333,-0.27037037,0,0,0,,0,54,54,103,1,FLORT,HB,old,z,./images/FLORTHB.png,,,,,,,,,,,,,,,,,,,,,,,,,,,,,,,,,,,
,,,,,,,,,,,,,,,,,614e2446523bb49af662fb62,29,2022-02-12_12h31.13.016,lexical_decision_task_DD,2021.2.3,Linux x86_64,60.0024001,,,,,,,,,,,0.8533,1,,,,,,,,,,,,,,z,1,0.8533,,,,,,,,0.308333333,-0.27037037,0,0,0,,0,55,55,107,1,FASKS,LB,old,z,./images/FASKSLB.png,,,,,,,,,,,,,,,,,,,,,,,,,,,,,,,,,,,
,,,,,,,,,,,,,,,,,614e2446523bb49af662fb62,29,2022-02-12_12h31.13.016,lexical_decision_task_DD,2021.2.3,Linux x86_64,60.0024001,,,,,,,,,,,0.8403,1,,,,,,,,,,,,,,z,1,0.8403,,,,,,,,0.308333333,-0.27037037,0,0,0,,0,56,56,121,1,CEERS,HB,old,z,./images/CEERSHB.png,,,,,,,,,,,,,,,,,,,,,,,,,,,,,,,,,,,
,,,,,,,,,,,,,,,,,614e2446523bb49af662fb62,29,2022-02-12_12h31.13.016,lexical_decision_task_DD,2021.2.3,Linux x86_64,60.0024001,,,,,,,,,,,1.571,1,,,,,,,,,,,,,,m,1,1.571,,,,,,,,0.308333333,-0.27037037,0,0,0,,0,57,57,70,1,URINE,HB,old,m,./images/URINEHB.png,,,,,,,,,,,,,,,,,,,,,,,,,,,,,,,,,,,
,,,,,,,,,,,,,,,,,614e2446523bb49af662fb62,29,2022-02-12_12h31.13.016,lexical_decision_task_DD,2021.2.3,Linux x86_64,60.0024001,,,,,,,,,,,1.2698,1,,,,,,,,,,,,,,m,1,1.2698,,,,,,,,0.308333333,-0.27037037,0,0,0,,0,58,58,1,1,PLANK,HB,old,m,./images/PLANKHB.png,,,,,,,,,,,,,,,,,,,,,,,,,,,,,,,,,,,
,,,,,,,,,,,,,,,,,614e2446523bb49af662fb62,29,2022-02-12_12h31.13.016,lexical_decision_task_DD,2021.2.3,Linux x86_64,60.0024001,,,,,,,,,,,0.8698,1,,,,,,,,,,,,,,m,1,0.8698,,,,,,,,0.308333333,-0.27037037,0,0,0,,0,59,59,56,1,PACKET,LB,old,m,./images/PACKETLB.png,,,,,,,,,,,,,,,,,,,,,,,,,,,,,,,,,,,
,,,,,,,,,,,,,,,,,614e2446523bb49af662fb62,29,2022-02-12_12h31.13.016,lexical_decision_task_DD,2021.2.3,Linux x86_64,60.0024001,,,,,,,,,,,0.6514,1,,,,,,,,,,,,,,m,1,0.6514,,,,,,,,0.308333333,-0.27037037,0,0,0,,0,60,60,75,1,GRAIN,C,old,m,./images/GRAIN.png,,,,,,,,,,,,,,,,,,,,,,,,,,,,,,,,,,,
,,,,,,,,,,,,,,,,,614e2446523bb49af662fb62,29,2022-02-12_12h31.13.016,lexical_decision_task_DD,2021.2.3,Linux x86_64,60.0024001,,,,,,,,,,,0.7877,1,,,,,,,,,,,,,,z,1,0.7877,,,,,,,,0.308333333,-0.27037037,0,0,0,,0,61,61,118,1,BAVEL,HB,old,z,./images/BAVELHB.png,,,,,,,,,,,,,,,,,,,,,,,,,,,,,,,,,,,
,,,,,,,,,,,,,,,,,614e2446523bb49af662fb62,29,2022-02-12_12h31.13.016,lexical_decision_task_DD,2021.2.3,Linux x86_64,60.0024001,,,,,,,,,,,0.737,1,,,,,,,,,,,,,,z,1,0.737,,,,,,,,0.308333333,-0.27037037,0,0,0,,0,62,62,160,1,VEETS,HB,old,z,./images/VEETSHB.png,,,,,,,,,,,,,,,,,,,,,,,,,,,,,,,,,,,
,,,,,,,,,,,,,,,,,614e2446523bb49af662fb62,29,2022-02-12_12h31.13.016,lexical_decision_task_DD,2021.2.3,Linux x86_64,60.0024001,,,,,,,,,,,0.7044,1,,,,,,,,,,,,,,m,1,0.7044,,,,,,,,0.308333333,-0.27037037,0,0,0,,0,63,63,8,1,TULIP,LB,old,m,./images/TULIPLB.png,,,,,,,,,,,,,,,,,,,,,,,,,,,,,,,,,,,
,,,,,,,,,,,,,,,,,614e2446523bb49af662fb62,29,2022-02-12_12h31.13.016,lexical_decision_task_DD,2021.2.3,Linux x86_64,60.0024001,,,,,,,,,,,0.7699,1,,,,,,,,,,,,,,z,1,0.7699,,,,,,,,0.308333333,-0.27037037,0,0,0,,0,64,64,127,1,NINDY,HB,old,z,./images/NINDYHB.png,,,,,,,,,,,,,,,,,,,,,,,,,,,,,,,,,,,
,,,,,,,,,,,,,,,,,614e2446523bb49af662fb62,29,2022-02-12_12h31.13.016,lexical_decision_task_DD,2021.2.3,Linux x86_64,60.0024001,,,,,,,,,,,0.9374,0,,,,,,,,,,,,,,m,0,0.9374,,,,,,,,0.308333333,-0.27037037,0,0,0,,0,65,65,166,1,SHORY,HB,old,z,./images/SHORYHB.png,,,,,,,,,,,,,,,,,,,,,,,,,,,,,,,,,,,
,,,,,,,,,,,,,,,,,614e2446523bb49af662fb62,29,2022-02-12_12h31.13.016,lexical_decision_task_DD,2021.2.3,Linux x86_64,60.0024001,,,,,,,,,,,0.6021,1,,,,,,,,,,,,,,m,1,0.6021,,,,,,,,0.308333333,-0.27037037,0,0,0,,0,66,66,45,1,KITTEN,C,old,m,./images/KITTEN.png,,,,,,,,,,,,,,,,,,,,,,,,,,,,,,,,,,,
,,,,,,,,,,,,,,,,,614e2446523bb49af662fb62,29,2022-02-12_12h31.13.016,lexical_decision_task_DD,2021.2.3,Linux x86_64,60.0024001,,,,,,,,,,,0.7535,1,,,,,,,,,,,,,,m,1,0.7535,,,,,,,,0.308333333,-0.27037037,0,0,0,,0,67,67,49,1,DRUMS,HB,old,m,./images/DRUMSHB.png,,,,,,,,,,,,,,,,,,,,,,,,,,,,,,,,,,,
,,,,,,,,,,,,,,,,,614e2446523bb49af662fb62,29,2022-02-12_12h31.13.016,lexical_decision_task_DD,2021.2.3,Linux x86_64,60.0024001,,,,,,,,,,,0.7163,1,,,,,,,,,,,,,,m,1,0.7163,,,,,,,,0.308333333,-0.27037037,0,0,0,,0,68,68,12,1,SHORE,C,old,m,./images/SHORE.png,,,,,,,,,,,,,,,,,,,,,,,,,,,,,,,,,,,
,,,,,,,,,,,,,,,,,614e2446523bb49af662fb62,29,2022-02-12_12h31.13.016,lexical_decision_task_DD,2021.2.3,Linux x86_64,60.0024001,,,,,,,,,,,0.6032,1,,,,,,,,,,,,,,m,1,0.6032,,,,,,,,0.308333333,-0.27037037,0,0,0,,0,69,69,6,1,SQUARE,C,old,m,./images/SQUARE.png,,,,,,,,,,,,,,,,,,,,,,,,,,,,,,,,,,,
,,,,,,,,,,,,,,,,,614e2446523bb49af662fb62,29,2022-02-12_12h31.13.016,lexical_decision_task_DD,2021.2.3,Linux x86_64,60.0024001,,,,,,,,,,,0.5547,1,,,,,,,,,,,,,,m,1,0.5547,,,,,,,,0.308333333,-0.27037037,0,0,0,,0,70,70,29,1,CRUMB,LB,old,m,./images/CRUMBLB.png,,,,,,,,,,,,,,,,,,,,,,,,,,,,,,,,,,,
,,,,,,,,,,,,,,,,,614e2446523bb49af662fb62,29,2022-02-12_12h31.13.016,lexical_decision_task_DD,2021.2.3,Linux x86_64,60.0024001,,,,,,,,,,,0.9198,1,,,,,,,,,,,,,,z,1,0.9198,,,,,,,,0.308333333,-0.27037037,0,0,0,,0,71,71,136,1,WERVE,HB,old,z,./images/WERVEHB.png,,,,,,,,,,,,,,,,,,,,,,,,,,,,,,,,,,,
,,,,,,,,,,,,,,,,,614e2446523bb49af662fb62,29,2022-02-12_12h31.13.016,lexical_decision_task_DD,2021.2.3,Linux x86_64,60.0024001,,,,,,,,,,,0.8367,1,,,,,,,,,,,,,,z,1,0.8367,,,,,,,,0.308333333,-0.27037037,0,0,0,,0,72,72,157,1,INLER,HB,old,z,./images/INLERHB.png,,,,,,,,,,,,,,,,,,,,,,,,,,,,,,,,,,,
,,,,,,,,,,,,,,,,,614e2446523bb49af662fb62,29,2022-02-12_12h31.13.016,lexical_decision_task_DD,2021.2.3,Linux x86_64,60.0024001,,,,,,,,,,,0.6719,1,,,,,,,,,,,,,,m,1,0.6719,,,,,,,,0.308333333,-0.27037037,0,0,0,,0,73,73,50,1,MALLET,LB,old,m,./images/MALLETLB.png,,,,,,,,,,,,,,,,,,,,,,,,,,,,,,,,,,,
,,,,,,,,,,,,,,,,,614e2446523bb49af662fb62,29,2022-02-12_12h31.13.016,lexical_decision_task_DD,2021.2.3,Linux x86_64,60.0024001,,,,,,,,,,,0.6535,1,,,,,,,,,,,,,,z,1,0.6535,,,,,,,,0.308333333,-0.27037037,0,0,0,,0,74,74,132,1,SCIFF,C,old,z,./images/SCIFF.png,,,,,,,,,,,,,,,,,,,,,,,,,,,,,,,,,,,
,,,,,,,,,,,,,,,,,614e2446523bb49af662fb62,29,2022-02-12_12h31.13.016,lexical_decision_task_DD,2021.2.3,Linux x86_64,60.0024001,,,,,,,,,,,0.7046,1,,,,,,,,,,,,,,m,1,0.7046,,,,,,,,0.308333333,-0.27037037,0,0,0,,0,75,75,5,1,PASTA,LB,old,m,./images/PASTALB.png,,,,,,,,,,,,,,,,,,,,,,,,,,,,,,,,,,,
,,,,,,,,,,,,,,,,,614e2446523bb49af662fb62,29,2022-02-12_12h31.13.016,lexical_decision_task_DD,2021.2.3,Linux x86_64,60.0024001,,,,,,,,,,,0.6692,1,,,,,,,,,,,,,,m,1,0.6692,,,,,,,,0.308333333,-0.27037037,0,0,0,,0,76,76,47,1,BERRY,LB,old,m,./images/BERRYLB.png,,,,,,,,,,,,,,,,,,,,,,,,,,,,,,,,,,,
,,,,,,,,,,,,,,,,,614e2446523bb49af662fb62,29,2022-02-12_12h31.13.016,lexical_decision_task_DD,2021.2.3,Linux x86_64,60.0024001,,,,,,,,,,,0.5013,1,,,,,,,,,,,,,,m,1,0.5013,,,,,,,,0.308333333,-0.27037037,0,0,0,,0,77,77,57,1,MOOSE,C,old,m,./images/MOOSE.png,,,,,,,,,,,,,,,,,,,,,,,,,,,,,,,,,,,
,,,,,,,,,,,,,,,,,614e2446523bb49af662fb62,29,2022-02-12_12h31.13.016,lexical_decision_task_DD,2021.2.3,Linux x86_64,60.0024001,,,,,,,,,,,0.7056,1,,,,,,,,,,,,,,z,1,0.7056,,,,,,,,0.308333333,-0.27037037,0,0,0,,0,78,78,101,1,GLEET,LB,old,z,./images/GLEETLB.png,,,,,,,,,,,,,,,,,,,,,,,,,,,,,,,,,,,
,,,,,,,,,,,,,,,,,614e2446523bb49af662fb62,29,2022-02-12_12h31.13.016,lexical_decision_task_DD,2021.2.3,Linux x86_64,60.0024001,,,,,,,,,,,0.6376,1,,,,,,,,,,,,,,m,1,0.6376,,,,,,,,0.308333333,-0.27037037,0,0,0,,0,79,79,34,1,CANYON,HB,old,m,./images/CANYONHB.png,,,,,,,,,,,,,,,,,,,,,,,,,,,,,,,,,,,
,,,,,,,,,,,,,,,,,614e2446523bb49af662fb62,29,2022-02-12_12h31.13.016,lexical_decision_task_DD,2021.2.3,Linux x86_64,60.0024001,,,,,,,,,,,0.7853,1,,,,,,,,,,,,,,m,1,0.7853,,,,,,,,0.308333333,-0.27037037,0,0,0,,0,80,80,21,1,KIDNEY,C,old,m,./images/KIDNEY.png,,,,,,,,,,,,,,,,,,,,,,,,,,,,,,,,,,,
,,,,,,,,,,,,,,,,,614e2446523bb49af662fb62,29,2022-02-12_12h31.13.016,lexical_decision_task_DD,2021.2.3,Linux x86_64,60.0024001,,,,,,,,,,,0.9037,1,,,,,,,,,,,,,,m,1,0.9037,,,,,,,,0.308333333,-0.27037037,0,0,0,,0,81,81,58,1,BABOON,HB,old,m,./images/BABOONHB.png,,,,,,,,,,,,,,,,,,,,,,,,,,,,,,,,,,,
,,,,,,,,,,,,,,,,,614e2446523bb49af662fb62,29,2022-02-12_12h31.13.016,lexical_decision_task_DD,2021.2.3,Linux x86_64,60.0024001,,,,,,,,,,,0.6032,1,,,,,,,,,,,,,,m,1,0.6032,,,,,,,,0.308333333,-0.27037037,0,0,0,,0,82,82,77,1,COUCH,LB,old,m,./images/COUCHLB.png,,,,,,,,,,,,,,,,,,,,,,,,,,,,,,,,,,,
,,,,,,,,,,,,,,,,,614e2446523bb49af662fb62,29,2022-02-12_12h31.13.016,lexical_decision_task_DD,2021.2.3,Linux x86_64,60.0024001,,,,,,,,,,,0.8877,0,,,,,,,,,,,,,,m,0,0.8877,,,,,,,,0.308333333,-0.27037037,0,0,0,space,0,83,83,128,1,GRIFT,LB,old,z,./images/GRIFTLB.png,0.8389,,,,,,,,,,,,,,,,,,,,,,,,,,,,,,,,,,
,,,,,,,,,,,,,,,,,614e2446523bb49af662fb62,29,2022-02-12_12h31.13.016,lexical_decision_task_DD,2021.2.3,Linux x86_64,60.0024001,,,,,,,,,,,0.7216,1,,,,,,,,,,,,,,z,1,0.7216,,,,,,,,0.308333333,-0.27037037,0,0,0,,0,84,84,116,1,BALGY,LB,old,z,./images/BALGYLB.png,,,,,,,,,,,,,,,,,,,,,,,,,,,,,,,,,,,
,,,,,,,,,,,,,,,,,614e2446523bb49af662fb62,29,2022-02-12_12h31.13.016,lexical_decision_task_DD,2021.2.3,Linux x86_64,60.0024001,,,,,,,,,,,0.6866,1,,,,,,,,,,,,,,z,1,0.6866,,,,,,,,0.308333333,-0.27037037,0,0,0,,0,85,85,153,1,CLUPS,C,old,z,./images/CLUPS.png,,,,,,,,,,,,,,,,,,,,,,,,,,,,,,,,,,,
,,,,,,,,,,,,,,,,,614e2446523bb49af662fb62,29,2022-02-12_12h31.13.016,lexical_decision_task_DD,2021.2.3,Linux x86_64,60.0024001,,,,,,,,,,,0.7212,1,,,,,,,,,,,,,,z,1,0.7212,,,,,,,,0.308333333,-0.27037037,0,0,0,,0,86,86,100,1,DRIBS,HB,old,z,./images/DRIBSHB.png,,,,,,,,,,,,,,,,,,,,,,,,,,,,,,,,,,,
,,,,,,,,,,,,,,,,,614e2446523bb49af662fb62,29,2022-02-12_12h31.13.016,lexical_decision_task_DD,2021.2.3,Linux x86_64,60.0024001,,,,,,,,,,,0.9864,1,,,,,,,,,,,,,,z,1,0.9864,,,,,,,,0.308333333,-0.27037037,0,0,0,,0,87,87,94,1,BLANS,HB,old,z,./images/BLANSHB.png,,,,,,,,,,,,,,,,,,,,,,,,,,,,,,,,,,,
,,,,,,,,,,,,,,,,,614e2446523bb49af662fb62,29,2022-02-12_12h31.13.016,lexical_decision_task_DD,2021.2.3,Linux x86_64,60.0024001,,,,,,,,,,,0.6226,1,,,,,,,,,,,,,,m,1,0.6226,,,,,,,,0.308333333,-0.27037037,0,0,0,,0,88,88,62,1,PURSE,LB,old,m,./images/PURSELB.png,,,,,,,,,,,,,,,,,,,,,,,,,,,,,,,,,,,
,,,,,,,,,,,,,,,,,614e2446523bb49af662fb62,29,2022-02-12_12h31.13.016,lexical_decision_task_DD,2021.2.3,Linux x86_64,60.0024001,,,,,,,,,,,0.7374,1,,,,,,,,,,,,,,m,1,0.7374,,,,,,,,0.308333333,-0.27037037,0,0,0,,0,89,89,82,1,SUNSET,HB,old,m,./images/SUNSETHB.png,,,,,,,,,,,,,,,,,,,,,,,,,,,,,,,,,,,
,,,,,,,,,,,,,,,,,614e2446523bb49af662fb62,29,2022-02-12_12h31.13.016,lexical_decision_task_DD,2021.2.3,Linux x86_64,60.0024001,,,,,,,,,,,0.6698,1,,,,,,,,,,,,,,z,1,0.6698,,,,,,,,0.308333333,-0.27037037,0,0,0,,0,90,90,161,1,BLAPS,LB,old,z,./images/BLAPSLB.png,,,,,,,,,,,,,,,,,,,,,,,,,,,,,,,,,,,
,,,,,,,,,,,,,,,,,614e2446523bb49af662fb62,29,2022-02-12_12h31.13.016,lexical_decision_task_DD,2021.2.3,Linux x86_64,60.0024001,,,,,,,,,,,0.7715,1,,,,,,,,,,,,,,z,1,0.7715,,,,,,,,0.308333333,-0.27037037,0,0,0,,0,91,91,137,1,JOOST,LB,old,z,./images/JOOSTLB.png,,,,,,,,,,,,,,,,,,,,,,,,,,,,,,,,,,,
,,,,,,,,,,,,,,,,,614e2446523bb49af662fb62,29,2022-02-12_12h31.13.016,lexical_decision_task_DD,2021.2.3,Linux x86_64,60.0024001,,,,,,,,,,,0.7208,1,,,,,,,,,,,,,,z,1,0.7208,,,,,,,,0.308333333,-0.27037037,0,0,0,,0,92,92,158,1,EGECT,LB,old,z,./images/EGECTLB.png,,,,,,,,,,,,,,,,,,,,,,,,,,,,,,,,,,,
,,,,,,,,,,,,,,,,,614e2446523bb49af662fb62,29,2022-02-12_12h31.13.016,lexical_decision_task_DD,2021.2.3,Linux x86_64,60.0024001,,,,,,,,,,,0.6024,1,,,,,,,,,,,,,,z,1,0.6024,,,,,,,,0.308333333,-0.27037037,0,0,0,,0,93,93,108,1,GRUET,C,old,z,./images/GRUET.png,,,,,,,,,,,,,,,,,,,,,,,,,,,,,,,,,,,
,,,,,,,,,,,,,,,,,614e2446523bb49af662fb62,29,2022-02-12_12h31.13.016,lexical_decision_task_DD,2021.2.3,Linux x86_64,60.0024001,,,,,,,,,,,0.6048,1,,,,,,,,,,,,,,z,1,0.6048,,,,,,,,0.308333333,-0.27037037,0,0,0,,0,94,94,151,1,TINKY,HB,old,z,./images/TINKYHB.png,,,,,,,,,,,,,,,,,,,,,,,,,,,,,,,,,,,
,,,,,,,,,,,,,,,,,614e2446523bb49af662fb62,29,2022-02-12_12h31.13.016,lexical_decision_task_DD,2021.2.3,Linux x86_64,60.0024001,,,,,,,,,,,0.6341,1,,,,,,,,,,,,,,z,1,0.6341,,,,,,,,0.308333333,-0.27037037,0,0,0,,0,95,95,117,1,STEEG,C,old,z,./images/STEEG.png,,,,,,,,,,,,,,,,,,,,,,,,,,,,,,,,,,,
,,,,,,,,,,,,,,,,,614e2446523bb49af662fb62,29,2022-02-12_12h31.13.016,lexical_decision_task_DD,2021.2.3,Linux x86_64,60.0024001,,,,,,,,,,,0.6187,1,,,,,,,,,,,,,,m,1,0.6187,,,,,,,,0.308333333,-0.27037037,0,0,0,,0,96,96,0,1,TOMATO,C,old,m,./images/TOMATO.png,,,,,,,,,,,,,,,,,,,,,,,,,,,,,,,,,,,
,,,,,,,,,,,,,,,,,614e2446523bb49af662fb62,29,2022-02-12_12h31.13.016,lexical_decision_task_DD,2021.2.3,Linux x86_64,60.0024001,,,,,,,,,,,0.7552,1,,,,,,,,,,,,,,z,1,0.7552,,,,,,,,0.308333333,-0.27037037,0,0,0,,0,97,97,109,1,BURGE,HB,old,z,./images/BURGEHB.png,,,,,,,,,,,,,,,,,,,,,,,,,,,,,,,,,,,
,,,,,,,,,,,,,,,,,614e2446523bb49af662fb62,29,2022-02-12_12h31.13.016,lexical_decision_task_DD,2021.2.3,Linux x86_64,60.0024001,,,,,,,,,,,0.8205,1,,,,,,,,,,,,,,z,1,0.8205,,,,,,,,0.308333333,-0.27037037,0,0,0,,0,98,98,89,1,DRIEK,LB,old,z,./images/DRIEKLB.png,,,,,,,,,,,,,,,,,,,,,,,,,,,,,,,,,,,
,,,,,,,,,,,,,,,,,614e2446523bb49af662fb62,29,2022-02-12_12h31.13.016,lexical_decision_task_DD,2021.2.3,Linux x86_64,60.0024001,,,,,,,,,,,0.6858,1,,,,,,,,,,,,,,z,1,0.6858,,,,,,,,0.308333333,-0.27037037,0,0,0,,0,99,99,96,1,KEAMS,C,old,z,./images/KEAMS.png,,,,,,,,,,,,,,,,,,,,,,,,,,,,,,,,,,,
,,,,,,,,,,,,,,,,,614e2446523bb49af662fb62,29,2022-02-12_12h31.13.016,lexical_decision_task_DD,2021.2.3,Linux x86_64,60.0024001,,,,,,,,,,,0.9673,1,,,,,,,,,,,,,,z,1,0.9673,,,,,,,,0.308333333,-0.27037037,0,0,0,,0,100,100,84,1,HAXES,C,old,z,./images/HAXES.png,,,,,,,,,,,,,,,,,,,,,,,,,,,,,,,,,,,
,,,,,,,,,,,,,,,,,614e2446523bb49af662fb62,29,2022-02-12_12h31.13.016,lexical_decision_task_DD,2021.2.3,Linux x86_64,60.0024001,,,,,,,,,,,0.5892,1,,,,,,,,,,,,,,m,1,0.5892,,,,,,,,0.308333333,-0.27037037,0,0,0,,0,101,101,44,1,LIZARD,LB,old,m,./images/LIZARDLB.png,,,,,,,,,,,,,,,,,,,,,,,,,,,,,,,,,,,
,,,,,,,,,,,,,,,,,614e2446523bb49af662fb62,29,2022-02-12_12h31.13.016,lexical_decision_task_DD,2021.2.3,Linux x86_64,60.0024001,,,,,,,,,,,0.6359,1,,,,,,,,,,,,,,z,1,0.6359,,,,,,,,0.308333333,-0.27037037,0,0,0,,0,102,102,99,1,BACKY,C,old,z,./images/BACKY.png,,,,,,,,,,,,,,,,,,,,,,,,,,,,,,,,,,,
,,,,,,,,,,,,,,,,,614e2446523bb49af662fb62,29,2022-02-12_12h31.13.016,lexical_decision_task_DD,2021.2.3,Linux x86_64,60.0024001,,,,,,,,,,,0.6033,1,,,,,,,,,,,,,,m,1,0.6033,,,,,,,,0.308333333,-0.27037037,0,0,0,,0,103,103,41,1,STRING,LB,old,m,./images/STRINGLB.png,,,,,,,,,,,,,,,,,,,,,,,,,,,,,,,,,,,
,,,,,,,,,,,,,,,,,614e2446523bb49af662fb62,29,2022-02-12_12h31.13.016,lexical_decision_task_DD,2021.2.3,Linux x86_64,60.0024001,,,,,,,,,,,0.5693,1,,,,,,,,,,,,,,m,1,0.5693,,,,,,,,0.308333333,-0.27037037,0,0,0,,0,104,104,66,1,SWEAT,C,old,m,./images/SWEAT.png,,,,,,,,,,,,,,,,,,,,,,,,,,,,,,,,,,,
,,,,,,,,,,,,,,,,,614e2446523bb49af662fb62,29,2022-02-12_12h31.13.016,lexical_decision_task_DD,2021.2.3,Linux x86_64,60.0024001,,,,,,,,,,,0.6203,1,,,,,,,,,,,,,,m,1,0.6203,,,,,,,,0.308333333,-0.27037037,0,0,0,,0,105,105,38,1,LADDER,LB,old,m,./images/LADDERLB.png,,,,,,,,,,,,,,,,,,,,,,,,,,,,,,,,,,,
,,,,,,,,,,,,,,,,,614e2446523bb49af662fb62,29,2022-02-12_12h31.13.016,lexical_decision_task_DD,2021.2.3,Linux x86_64,60.0024001,,,,,,,,,,,0.5367,1,,,,,,,,,,,,,,m,1,0.5367,,,,,,,,0.308333333,-0.27037037,0,0,0,,0,106,106,15,1,GREASE,C,old,m,./images/GREASE.png,,,,,,,,,,,,,,,,,,,,,,,,,,,,,,,,,,,
,,,,,,,,,,,,,,,,,614e2446523bb49af662fb62,29,2022-02-12_12h31.13.016,lexical_decision_task_DD,2021.2.3,Linux x86_64,60.0024001,,,,,,,,,,,0.853,1,,,,,,,,,,,,,,z,1,0.853,,,,,,,,0.308333333,-0.27037037,0,0,0,,0,107,107,106,1,CLUMS,HB,old,z,./images/CLUMSHB.png,,,,,,,,,,,,,,,,,,,,,,,,,,,,,,,,,,,
,,,,,,,,,,,,,,,,,614e2446523bb49af662fb62,29,2022-02-12_12h31.13.016,lexical_decision_task_DD,2021.2.3,Linux x86_64,60.0024001,,,,,,,,,,,0.7715,1,,,,,,,,,,,,,,z,1,0.7715,,,,,,,,0.308333333,-0.27037037,0,0,0,,0,108,108,88,1,GLUSH,HB,old,z,./images/GLUSHHB.png,,,,,,,,,,,,,,,,,,,,,,,,,,,,,,,,,,,
,,,,,,,,,,,,,,,,,614e2446523bb49af662fb62,29,2022-02-12_12h31.13.016,lexical_decision_task_DD,2021.2.3,Linux x86_64,60.0024001,,,,,,,,,,,0.736,1,,,,,,,,,,,,,,z,1,0.736,,,,,,,,0.308333333,-0.27037037,0,0,0,,0,109,109,162,1,LEICH,C,old,z,./images/LEICH.png,,,,,,,,,,,,,,,,,,,,,,,,,,,,,,,,,,,
,,,,,,,,,,,,,,,,,614e2446523bb49af662fb62,29,2022-02-12_12h31.13.016,lexical_decision_task_DD,2021.2.3,Linux x86_64,60.0024001,,,,,,,,,,,0.5855,1,,,,,,,,,,,,,,z,1,0.5855,,,,,,,,0.308333333,-0.27037037,0,0,0,,0,110,110,87,1,TRING,C,old,z,./images/TRING.png,,,,,,,,,,,,,,,,,,,,,,,,,,,,,,,,,,,
,,,,,,,,,,,,,,,,,614e2446523bb49af662fb62,29,2022-02-12_12h31.13.016,lexical_decision_task_DD,2021.2.3,Linux x86_64,60.0024001,,,,,,,,,,,0.5854,1,,,,,,,,,,,,,,m,1,0.5854,,,,,,,,0.308333333,-0.27037037,0,0,0,,0,111,111,30,1,STORM,C,old,m,./images/STORM.png,,,,,,,,,,,,,,,,,,,,,,,,,,,,,,,,,,,
,,,,,,,,,,,,,,,,,614e2446523bb49af662fb62,29,2022-02-12_12h31.13.016,lexical_decision_task_DD,2021.2.3,Linux x86_64,60.0024001,,,,,,,,,,,0.5692,1,,,,,,,,,,,,,,z,1,0.5692,,,,,,,,0.308333333,-0.27037037,0,0,0,,0,112,112,105,1,MOKER,C,old,z,./images/MOKER.png,,,,,,,,,,,,,,,,,,,,,,,,,,,,,,,,,,,
,,,,,,,,,,,,,,,,,614e2446523bb49af662fb62,29,2022-02-12_12h31.13.016,lexical_decision_task_DD,2021.2.3,Linux x86_64,60.0024001,,,,,,,,,,,1.2374,1,,,,,,,,,,,,,,m,1,1.2374,,,,,,,,0.308333333,-0.27037037,0,0,0,,0,113,113,46,1,PEARL,HB,old,m,./images/PEARLHB.png,,,,,,,,,,,,,,,,,,,,,,,,,,,,,,,,,,,
,,,,,,,,,,,,,,,,,614e2446523bb49af662fb62,29,2022-02-12_12h31.13.016,lexical_decision_task_DD,2021.2.3,Linux x86_64,60.0024001,,,,,,,,,,,1.0545,0,,,,,,,,,,,,,,z,0,1.0545,,,,,,,,0.308333333,-0.27037037,0,0,0,,0,114,114,43,1,MOSQUE,HB,old,m,./images/MOSQUEHB.png,,,,,,,,,,,,,,,,,,,,,,,,,,,,,,,,,,,
,,,,,,,,,,,,,,,,,614e2446523bb49af662fb62,29,2022-02-12_12h31.13.016,lexical_decision_task_DD,2021.2.3,Linux x86_64,60.0024001,,,,,,,,,,,0.7531,1,,,,,,,,,,,,,,z,1,0.7531,,,,,,,,0.308333333,-0.27037037,0,0,0,,0,115,115,149,1,VEASE,LB,old,z,./images/VEASELB.png,,,,,,,,,,,,,,,,,,,,,,,,,,,,,,,,,,,
,,,,,,,,,,,,,,,,,614e2446523bb49af662fb62,29,2022-02-12_12h31.13.016,lexical_decision_task_DD,2021.2.3,Linux x86_64,60.0024001,,,,,,,,,,,0.8397,1,,,,,,,,,,,,,,z,1,0.8397,,,,,,,,0.308333333,-0.27037037,0,0,0,,0,116,116,91,1,SHENS,HB,old,z,./images/SHENSHB.png,,,,,,,,,,,,,,,,,,,,,,,,,,,,,,,,,,,
,,,,,,,,,,,,,,,,,614e2446523bb49af662fb62,29,2022-02-12_12h31.13.016,lexical_decision_task_DD,2021.2.3,Linux x86_64,60.0024001,,,,,,,,,,,0.9009,1,,,,,,,,,,,,,,z,1,0.9009,,,,,,,,0.308333333,-0.27037037,0,0,0,,0,117,117,159,1,CUDDY,C,old,z,./images/CUDDY.png,,,,,,,,,,,,,,,,,,,,,,,,,,,,,,,,,,,
,,,,,,,,,,,,,,,,,614e2446523bb49af662fb62,29,2022-02-12_12h31.13.016,lexical_decision_task_DD,2021.2.3,Linux x86_64,60.0024001,,,,,,,,,,,1.0213,1,,,,,,,,,,,,,,z,1,1.0213,,,,,,,,0.308333333,-0.27037037,0,0,0,,0,118,118,113,1,LINEW,LB,old,z,./images/LINEWLB.png,,,,,,,,,,,,,,,,,,,,,,,,,,,,,,,,,,,
,,,,,,,,,,,,,,,,,614e2446523bb49af662fb62,29,2022-02-12_12h31.13.016,lexical_decision_task_DD,2021.2.3,Linux x86_64,60.0024001,,,,,,,,,,,0.6524,1,,,,,,,,,,,,,,m,1,0.6524,,,,,,,,0.308333333,-0.27037037,0,0,0,,0,119,119,36,1,THROAT,C,old,m,./images/THROAT.png,,,,,,,,,,,,,,,,,,,,,,,,,,,,,,,,,,,
,,,,,,,,,,,,,,,,,614e2446523bb49af662fb62,29,2022-02-12_12h31.13.016,lexical_decision_task_DD,2021.2.3,Linux x86_64,60.0024001,,,,,,,,,,,0.7195,1,,,,,,,,,,,,,,z,1,0.7195,,,,,,,,0.308333333,-0.27037037,0,0,0,,0,120,120,123,1,SEDGE,C,old,z,./images/SEDGE.png,,,,,,,,,,,,,,,,,,,,,,,,,,,,,,,,,,,
,,,,,,,,,,,,,,,,,614e2446523bb49af662fb62,29,2022-02-12_12h31.13.016,lexical_decision_task_DD,2021.2.3,Linux x86_64,60.0024001,,,,,,,,,,,0.6535,1,,,,,,,,,,,,,,m,1,0.6535,,,,,,,,0.308333333,-0.27037037,0,0,0,,0,121,121,32,1,BARREL,LB,old,m,./images/BARRELLB.png,,,,,,,,,,,,,,,,,,,,,,,,,,,,,,,,,,,
,,,,,,,,,,,,,,,,,614e2446523bb49af662fb62,29,2022-02-12_12h31.13.016,lexical_decision_task_DD,2021.2.3,Linux x86_64,60.0024001,,,,,,,,,,,0.6848,1,,,,,,,,,,,,,,m,1,0.6848,,,,,,,,0.308333333,-0.27037037,0,0,0,,0,122,122,24,1,SCREW,C,old,m,./images/SCREW.png,,,,,,,,,,,,,,,,,,,,,,,,,,,,,,,,,,,
,,,,,,,,,,,,,,,,,614e2446523bb49af662fb62,29,2022-02-12_12h31.13.016,lexical_decision_task_DD,2021.2.3,Linux x86_64,60.0024001,,,,,,,,,,,0.787,1,,,,,,,,,,,,,,m,1,0.787,,,,,,,,0.308333333,-0.27037037,0,0,0,,0,123,123,71,1,PIMPLE,LB,old,m,./images/PIMPLELB.png,,,,,,,,,,,,,,,,,,,,,,,,,,,,,,,,,,,
,,,,,,,,,,,,,,,,,614e2446523bb49af662fb62,29,2022-02-12_12h31.13.016,lexical_decision_task_DD,2021.2.3,Linux x86_64,60.0024001,,,,,,,,,,,0.8388,1,,,,,,,,,,,,,,m,1,0.8388,,,,,,,,0.308333333,-0.27037037,0,0,0,,0,124,124,17,1,SKIING,LB,old,m,./images/SKIINGLB.png,,,,,,,,,,,,,,,,,,,,,,,,,,,,,,,,,,,
,,,,,,,,,,,,,,,,,614e2446523bb49af662fb62,29,2022-02-12_12h31.13.016,lexical_decision_task_DD,2021.2.3,Linux x86_64,60.0024001,,,,,,,,,,,0.72,1,,,,,,,,,,,,,,z,1,0.72,,,,,,,,0.308333333,-0.27037037,0,0,0,space,0,125,125,148,1,JOMS,HB,old,z,./images/JOMSHB.png,0.8733,,,,,,,,,,,,,,,,,,,,,,,,,,,,,,,,,,
,,,,,,,,,,,,,,,,,614e2446523bb49af662fb62,29,2022-02-12_12h31.13.016,lexical_decision_task_DD,2021.2.3,Linux x86_64,60.0024001,,,,,,,,,,,0.7038,1,,,,,,,,,,,,,,z,1,0.7038,,,,,,,,0.308333333,-0.27037037,0,0,0,,0,126,126,114,1,RIKES,C,old,z,./images/RIKES.png,,,,,,,,,,,,,,,,,,,,,,,,,,,,,,,,,,,
,,,,,,,,,,,,,,,,,614e2446523bb49af662fb62,29,2022-02-12_12h31.13.016,lexical_decision_task_DD,2021.2.3,Linux x86_64,60.0024001,,,,,,,,,,,0.5845,1,,,,,,,,,,,,,,m,1,0.5845,,,,,,,,0.308333333,-0.27037037,0,0,0,,0,127,127,81,1,POODLE,C,old,m,./images/POODLE.png,,,,,,,,,,,,,,,,,,,,,,,,,,,,,,,,,,,
,,,,,,,,,,,,,,,,,614e2446523bb49af662fb62,29,2022-02-12_12h31.13.016,lexical_decision_task_DD,2021.2.3,Linux x86_64,60.0024001,,,,,,,,,,,0.7873,1,,,,,,,,,,,,,,z,1,0.7873,,,,,,,,0.308333333,-0.27037037,0,0,0,,0,128,128,139,1,BLEAR,HB,old,z,./images/BLEARHB.png,,,,,,,,,,,,,,,,,,,,,,,,,,,,,,,,,,,
,,,,,,,,,,,,,,,,,614e2446523bb49af662fb62,29,2022-02-12_12h31.13.016,lexical_decision_task_DD,2021.2.3,Linux x86_64,60.0024001,,,,,,,,,,,0.6364,1,,,,,,,,,,,,,,m,1,0.6364,,,,,,,,0.308333333,-0.27037037,0,0,0,,0,129,129,69,1,COOKER,C,old,m,./images/COOKER.png,,,,,,,,,,,,,,,,,,,,,,,,,,,,,,,,,,,
,,,,,,,,,,,,,,,,,614e2446523bb49af662fb62,29,2022-02-12_12h31.13.016,lexical_decision_task_DD,2021.2.3,Linux x86_64,60.0024001,,,,,,,,,,,0.7694,1,,,,,,,,,,,,,,m,1,0.7694,,,,,,,,0.308333333,-0.27037037,0,0,0,,0,130,130,4,1,MUSCLE,HB,old,m,./images/MUSCLEHB.png,,,,,,,,,,,,,,,,,,,,,,,,,,,,,,,,,,,
,,,,,,,,,,,,,,,,,614e2446523bb49af662fb62,29,2022-02-12_12h31.13.016,lexical_decision_task_DD,2021.2.3,Linux x86_64,60.0024001,,,,,,,,,,,0.6199,1,,,,,,,,,,,,,,z,1,0.6199,,,,,,,,0.308333333,-0.27037037,0,0,0,,0,131,131,143,1,MONGS,LB,old,z,./images/MONGSLB.png,,,,,,,,,,,,,,,,,,,,,,,,,,,,,,,,,,,
,,,,,,,,,,,,,,,,,614e2446523bb49af662fb62,29,2022-02-12_12h31.13.016,lexical_decision_task_DD,2021.2.3,Linux x86_64,60.0024001,,,,,,,,,,,0.7877,1,,,,,,,,,,,,,,m,1,0.7877,,,,,,,,0.308333333,-0.27037037,0,0,0,,0,132,132,10,1,BELLY,HB,old,m,./images/BELLYHB.png,,,,,,,,,,,,,,,,,,,,,,,,,,,,,,,,,,,
,,,,,,,,,,,,,,,,,614e2446523bb49af662fb62,29,2022-02-12_12h31.13.016,lexical_decision_task_DD,2021.2.3,Linux x86_64,60.0024001,,,,,,,,,,,0.8191,1,,,,,,,,,,,,,,z,1,0.8191,,,,,,,,0.308333333,-0.27037037,0,0,0,,0,133,133,104,1,GITTY,LB,old,z,./images/GITTYLB.png,,,,,,,,,,,,,,,,,,,,,,,,,,,,,,,,,,,
,,,,,,,,,,,,,,,,,614e2446523bb49af662fb62,29,2022-02-12_12h31.13.016,lexical_decision_task_DD,2021.2.3,Linux x86_64,60.0024001,,,,,,,,,,,0.8198,1,,,,,,,,,,,,,,m,1,0.8198,,,,,,,,0.308333333,-0.27037037,0,0,0,,0,134,134,27,1,ATTIC,C,old,m,./images/ATTIC.png,,,,,,,,,,,,,,,,,,,,,,,,,,,,,,,,,,,
,,,,,,,,,,,,,,,,,614e2446523bb49af662fb62,29,2022-02-12_12h31.13.016,lexical_decision_task_DD,2021.2.3,Linux x86_64,60.0024001,,,,,,,,,,,0.6529,1,,,,,,,,,,,,,,m,1,0.6529,,,,,,,,0.308333333,-0.27037037,0,0,0,,0,135,135,68,1,TORCH,LB,old,m,./images/TORCHLB.png,,,,,,,,,,,,,,,,,,,,,,,,,,,,,,,,,,,
,,,,,,,,,,,,,,,,,614e2446523bb49af662fb62,29,2022-02-12_12h31.13.016,lexical_decision_task_DD,2021.2.3,Linux x86_64,60.0024001,,,,,,,,,,,0.7026,1,,,,,,,,,,,,,,z,1,0.7026,,,,,,,,0.308333333,-0.27037037,0,0,0,,0,136,136,144,1,NAIRY,C,old,z,./images/NAIRY.png,,,,,,,,,,,,,,,,,,,,,,,,,,,,,,,,,,,
,,,,,,,,,,,,,,,,,614e2446523bb49af662fb62,29,2022-02-12_12h31.13.016,lexical_decision_task_DD,2021.2.3,Linux x86_64,60.0024001,,,,,,,,,,,0.8344,1,,,,,,,,,,,,,,z,1,0.8344,,,,,,,,0.308333333,-0.27037037,0,0,0,,0,137,137,141,1,PLEET,C,old,z,./images/PLEET.png,,,,,,,,,,,,,,,,,,,,,,,,,,,,,,,,,,,
,,,,,,,,,,,,,,,,,614e2446523bb49af662fb62,29,2022-02-12_12h31.13.016,lexical_decision_task_DD,2021.2.3,Linux x86_64,60.0024001,,,,,,,,,,,0.6537,1,,,,,,,,,,,,,,m,1,0.6537,,,,,,,,0.308333333,-0.27037037,0,0,0,,0,138,138,14,1,PICKLE,LB,old,m,./images/PICKLELB.png,,,,,,,,,,,,,,,,,,,,,,,,,,,,,,,,,,,
,,,,,,,,,,,,,,,,,614e2446523bb49af662fb62,29,2022-02-12_12h31.13.016,lexical_decision_task_DD,2021.2.3,Linux x86_64,60.0024001,,,,,,,,,,,0.8039,1,,,,,,,,,,,,,,z,1,0.8039,,,,,,,,0.308333333,-0.27037037,0,0,0,,0,139,139,130,1,CRILL,HB,old,z,./images/CRILLHB.png,,,,,,,,,,,,,,,,,,,,,,,,,,,,,,,,,,,
,,,,,,,,,,,,,,,,,614e2446523bb49af662fb62,29,2022-02-12_12h31.13.016,lexical_decision_task_DD,2021.2.3,Linux x86_64,60.0024001,,,,,,,,,,,0.5882,1,,,,,,,,,,,,,,m,1,0.5882,,,,,,,,0.308333333,-0.27037037,0,0,0,,0,140,140,26,1,SMOKER,LB,old,m,./images/SMOKERLB.png,,,,,,,,,,,,,,,,,,,,,,,,,,,,,,,,,,,
,,,,,,,,,,,,,,,,,614e2446523bb49af662fb62,29,2022-02-12_12h31.13.016,lexical_decision_task_DD,2021.2.3,Linux x86_64,60.0024001,,,,,,,,,,,0.6702,1,,,,,,,,,,,,,,m,1,0.6702,,,,,,,,0.308333333,-0.27037037,0,0,0,,0,141,141,7,1,PAINT,HB,old,m,./images/PAINTHB.png,,,,,,,,,,,,,,,,,,,,,,,,,,,,,,,,,,,
,,,,,,,,,,,,,,,,,614e2446523bb49af662fb62,29,2022-02-12_12h31.13.016,lexical_decision_task_DD,2021.2.3,Linux x86_64,60.0024001,,,,,,,,,,,0.7346,1,,,,,,,,,,,,,,m,1,0.7346,,,,,,,,0.308333333,-0.27037037,0,0,0,,0,142,142,13,1,MOTOR,HB,old,m,./images/MOTORHB.png,,,,,,,,,,,,,,,,,,,,,,,,,,,,,,,,,,,
,,,,,,,,,,,,,,,,,614e2446523bb49af662fb62,29,2022-02-12_12h31.13.016,lexical_decision_task_DD,2021.2.3,Linux x86_64,60.0024001,,,,,,,,,,,0.7038,1,,,,,,,,,,,,,,z,1,0.7038,,,,,,,,0.308333333,-0.27037037,0,0,0,,0,143,143,163,1,GAMBA,HB,old,z,./images/GAMBAHB.png,,,,,,,,,,,,,,,,,,,,,,,,,,,,,,,,,,,
,,,,,,,,,,,,,,,,,614e2446523bb49af662fb62,29,2022-02-12_12h31.13.016,lexical_decision_task_DD,2021.2.3,Linux x86_64,60.0024001,,,,,,,,,,,0.7355,1,,,,,,,,,,,,,,z,1,0.7355,,,,,,,,0.308333333,-0.27037037,0,0,0,,0,144,144,156,1,HIXES,C,old,z,./images/HIXES.png,,,,,,,,,,,,,,,,,,,,,,,,,,,,,,,,,,,
,,,,,,,,,,,,,,,,,614e2446523bb49af662fb62,29,2022-02-12_12h31.13.016,lexical_decision_task_DD,2021.2.3,Linux x86_64,60.0024001,,,,,,,,,,,0.6874,1,,,,,,,,,,,,,,m,1,0.6874,,,,,,,,0.308333333,-0.27037037,0,0,0,,0,145,145,74,1,CEMENT,LB,old,m,./images/CEMENTLB.png,,,,,,,,,,,,,,,,,,,,,,,,,,,,,,,,,,,
,,,,,,,,,,,,,,,,,614e2446523bb49af662fb62,29,2022-02-12_12h31.13.016,lexical_decision_task_DD,2021.2.3,Linux x86_64,60.0024001,,,,,,,,,,,0.8704,1,,,,,,,,,,,,,,z,1,0.8704,,,,,,,,0.308333333,-0.27037037,0,0,0,,0,146,146,142,1,PLASK,HB,old,z,./images/PLASKHB.png,,,,,,,,,,,,,,,,,,,,,,,,,,,,,,,,,,,
,,,,,,,,,,,,,,,,,614e2446523bb49af662fb62,29,2022-02-12_12h31.13.016,lexical_decision_task_DD,2021.2.3,Linux x86_64,60.0024001,,,,,,,,,,,0.7708,1,,,,,,,,,,,,,,z,1,0.7708,,,,,,,,0.308333333,-0.27037037,0,0,0,,0,147,147,145,1,LAMEL,HB,old,z,./images/LAMELHB.png,,,,,,,,,,,,,,,,,,,,,,,,,,,,,,,,,,,
,,,,,,,,,,,,,,,,,614e2446523bb49af662fb62,29,2022-02-12_12h31.13.016,lexical_decision_task_DD,2021.2.3,Linux x86_64,60.0024001,,,,,,,,,,,0.6515,1,,,,,,,,,,,,,,z,1,0.6515,,,,,,,,0.308333333,-0.27037037,0,0,0,,0,148,148,138,1,PLICE,C,old,z,./images/PLICE.png,,,,,,,,,,,,,,,,,,,,,,,,,,,,,,,,,,,
,,,,,,,,,,,,,,,,,614e2446523bb49af662fb62,29,2022-02-12_12h31.13.016,lexical_decision_task_DD,2021.2.3,Linux x86_64,60.0024001,,,,,,,,,,,0.7874,0,,,,,,,,,,,,,,z,0,0.7874,,,,,,,,0.308333333,-0.27037037,0,0,0,,0,149,149,76,1,INFANT,HB,old,m,./images/INFANTHB.png,,,,,,,,,,,,,,,,,,,,,,,,,,,,,,,,,,,
,,,,,,,,,,,,,,,,,614e2446523bb49af662fb62,29,2022-02-12_12h31.13.016,lexical_decision_task_DD,2021.2.3,Linux x86_64,60.0024001,,,,,,,,,,,0.9704,1,,,,,,,,,,,,,,z,1,0.9704,,,,,,,,0.308333333,-0.27037037,0,0,0,,0,150,150,86,1,AIFED,LB,old,z,./images/AIFEDLB.png,,,,,,,,,,,,,,,,,,,,,,,,,,,,,,,,,,,
,,,,,,,,,,,,,,,,,614e2446523bb49af662fb62,29,2022-02-12_12h31.13.016,lexical_decision_task_DD,2021.2.3,Linux x86_64,60.0024001,,,,,,,,,,,0.7544,1,,,,,,,,,,,,,,m,1,0.7544,,,,,,,,0.308333333,-0.27037037,0,0,0,,0,151,151,40,1,SWING,HB,old,m,./images/SWINGHB.png,,,,,,,,,,,,,,,,,,,,,,,,,,,,,,,,,,,
,,,,,,,,,,,,,,,,,614e2446523bb49af662fb62,29,2022-02-12_12h31.13.016,lexical_decision_task_DD,2021.2.3,Linux x86_64,60.0024001,,,,,,,,,,,0.8546,1,,,,,,,,,,,,,,m,1,0.8546,,,,,,,,0.308333333,-0.27037037,0,0,0,,0,152,152,67,1,SAILOR,HB,old,m,./images/SAILORHB.png,,,,,,,,,,,,,,,,,,,,,,,,,,,,,,,,,,,
,,,,,,,,,,,,,,,,,614e2446523bb49af662fb62,29,2022-02-12_12h31.13.016,lexical_decision_task_DD,2021.2.3,Linux x86_64,60.0024001,,,,,,,,,,,0.6538,1,,,,,,,,,,,,,,m,1,0.6538,,,,,,,,0.308333333,-0.27037037,0,0,0,,0,153,153,59,1,BURIAL,LB,old,m,./images/BURIALLB.png,,,,,,,,,,,,,,,,,,,,,,,,,,,,,,,,,,,
,,,,,,,,,,,,,,,,,614e2446523bb49af662fb62,29,2022-02-12_12h31.13.016,lexical_decision_task_DD,2021.2.3,Linux x86_64,60.0024001,,,,,,,,,,,0.6697,1,,,,,,,,,,,,,,z,1,0.6697,,,,,,,,0.308333333,-0.27037037,0,0,0,,0,154,154,125,1,MOOKY,LB,old,z,./images/MOOKYLB.png,,,,,,,,,,,,,,,,,,,,,,,,,,,,,,,,,,,
,,,,,,,,,,,,,,,,,614e2446523bb49af662fb62,29,2022-02-12_12h31.13.016,lexical_decision_task_DD,2021.2.3,Linux x86_64,60.0024001,,,,,,,,,,,0.7537,1,,,,,,,,,,,,,,m,1,0.7537,,,,,,,,0.308333333,-0.27037037,0,0,0,,0,155,155,52,1,BANNER,HB,old,m,./images/BANNERHB.png,,,,,,,,,,,,,,,,,,,,,,,,,,,,,,,,,,,
,,,,,,,,,,,,,,,,,614e2446523bb49af662fb62,29,2022-02-12_12h31.13.016,lexical_decision_task_DD,2021.2.3,Linux x86_64,60.0024001,,,,,,,,,,,0.6179,1,,,,,,,,,,,,,,z,1,0.6179,,,,,,,,0.308333333,-0.27037037,0,0,0,,0,156,156,135,1,JOODY,C,old,z,./images/JOODY.png,,,,,,,,,,,,,,,,,,,,,,,,,,,,,,,,,,,
,,,,,,,,,,,,,,,,,614e2446523bb49af662fb62,29,2022-02-12_12h31.13.016,lexical_decision_task_DD,2021.2.3,Linux x86_64,60.0024001,,,,,,,,,,,0.722,1,,,,,,,,,,,,,,m,1,0.722,,,,,,,,0.308333333,-0.27037037,0,0,0,,0,157,157,79,1,CRUST,HB,old,m,./images/CRUSTHB.png,,,,,,,,,,,,,,,,,,,,,,,,,,,,,,,,,,,
,,,,,,,,,,,,,,,,,614e2446523bb49af662fb62,29,2022-02-12_12h31.13.016,lexical_decision_task_DD,2021.2.3,Linux x86_64,60.0024001,,,,,,,,,,,0.6368,0,,,,,,,,,,,,,,z,0,0.6368,,,,,,,,0.308333333,-0.27037037,0,0,0,,0,158,158,20,1,CRADLE,LB,old,m,./images/CRADLELB.png,,,,,,,,,,,,,,,,,,,,,,,,,,,,,,,,,,,
,,,,,,,,,,,,,,,,,614e2446523bb49af662fb62,29,2022-02-12_12h31.13.016,lexical_decision_task_DD,2021.2.3,Linux x86_64,60.0024001,,,,,,,,,,,1.304,0,,,,,,,,,,,,,,z,0,1.304,,,,,,,,0.308333333,-0.27037037,0,0,0,,0,159,159,16,1,PENCE,HB,old,m,./images/PENCEHB.png,,,,,,,,,,,,,,,,,,,,,,,,,,,,,,,,,,,
,,,,,,,,,,,,,,,,,614e2446523bb49af662fb62,29,2022-02-12_12h31.13.016,lexical_decision_task_DD,2021.2.3,Linux x86_64,60.0024001,,,,,,,,,,,0.7034,1,,,,,,,,,,,,,,z,1,0.7034,,,,,,,,0.308333333,-0.27037037,0,0,0,,0,160,160,102,1,DULLE,C,old,z,./images/DULLE.png,,,,,,,,,,,,,,,,,,,,,,,,,,,,,,,,,,,
,,,,,,,,,,,,,,,,,614e2446523bb49af662fb62,29,2022-02-12_12h31.13.016,lexical_decision_task_DD,2021.2.3,Linux x86_64,60.0024001,,,,,,,,,,,1.1709,1,,,,,,,,,,,,,,m,1,1.1709,,,,,,,,0.308333333,-0.27037037,0,0,0,,0,161,161,61,1,CANDLE,HB,old,m,./images/CANDLEHB.png,,,,,,,,,,,,,,,,,,,,,,,,,,,,,,,,,,,
,,,,,,,,,,,,,,,,,614e2446523bb49af662fb62,29,2022-02-12_12h31.13.016,lexical_decision_task_DD,2021.2.3,Linux x86_64,60.0024001,,,,,,,,,,,0.7056,1,,,,,,,,,,,,,,m,1,0.7056,,,,,,,,0.308333333,-0.27037037,0,0,0,,0,162,162,28,1,FALCON,HB,old,m,./images/FALCONHB.png,,,,,,,,,,,,,,,,,,,,,,,,,,,,,,,,,,,
,,,,,,,,,,,,,,,,,614e2446523bb49af662fb62,29,2022-02-12_12h31.13.016,lexical_decision_task_DD,2021.2.3,Linux x86_64,60.0024001,,,,,,,,,,,0.635,1,,,,,,,,,,,,,,m,1,0.635,,,,,,,,0.308333333,-0.27037037,0,0,0,,0,163,163,39,1,SHELF,C,old,m,./images/SHELF.png,,,,,,,,,,,,,,,,,,,,,,,,,,,,,,,,,,,
,,,,,,,,,,,,,,,,,614e2446523bb49af662fb62,29,2022-02-12_12h31.13.016,lexical_decision_task_DD,2021.2.3,Linux x86_64,60.0024001,,,,,,,,,,,0.5515,1,,,,,,,,,,,,,,m,1,0.5515,,,,,,,,0.308333333,-0.27037037,0,0,0,,0,164,164,42,1,FOLDER,C,old,m,./images/FOLDER.png,,,,,,,,,,,,,,,,,,,,,,,,,,,,,,,,,,,
,,,,,,,,,,,,,,,,,614e2446523bb49af662fb62,29,2022-02-12_12h31.13.016,lexical_decision_task_DD,2021.2.3,Linux x86_64,60.0024001,,,,,,,,,,,0.7211,1,,,,,,,,,,,,,,z,1,0.7211,,,,,,,,0.308333333,-0.27037037,0,0,0,,0,165,165,120,1,RINED,C,old,z,./images/RINED.png,,,,,,,,,,,,,,,,,,,,,,,,,,,,,,,,,,,
,,,,,,,,,,,,,,,,,614e2446523bb49af662fb62,29,2022-02-12_12h31.13.016,lexical_decision_task_DD,2021.2.3,Linux x86_64,60.0024001,,,,,,,,,,,0.7037,1,,,,,,,,,,,,,,z,1,0.7037,,,,,,,,0.308333333,-0.27037037,0,0,0,,0,166,166,115,1,MAWNS,HB,old,z,./images/MAWNSHB.png,,,,,,,,,,,,,,,,,,,,,,,,,,,,,,,,,,,
,,,,,,,,,,,,,,,,,614e2446523bb49af662fb62,29,2022-02-12_12h31.13.016,lexical_decision_task_DD,2021.2.3,Linux x86_64,60.0024001,,,,,,,,,,,0.8041,1,,,,,,,,,,,,,,z,1,0.8041,,,,,,,,0.308333333,-0.27037037,0,0,0,,0,167,167,152,1,FRAIN,LB,old,z,./images/FRAINLB.png,,,,,,,,,,,,,,,,,,,,,,,,,,,,,,,,,,,
,,,,,,,,,,,,,,,,,614e2446523bb49af662fb62,29,2022-02-12_12h31.13.016,lexical_decision_task_DD,2021.2.3,Linux x86_64,60.0024001,,,,,,,,,,,,,,,,,,,,,,,,,,,,,,,,,,,,,,,,,,,,,,,,How likely will it be that you will recognize the words presented very blurred on a scale of 0 (not likely) to 100 (most likely)?,,,,,0.001851852,-0.439814815,1,0,0,jol_adv,6,3.3705,0,0,0,2,1,,,,,,,,,,,,,,,,,,,,,
,,,,,,,,,,,,,,,,,614e2446523bb49af662fb62,29,2022-02-12_12h31.13.016,lexical_decision_task_DD,2021.2.3,Linux x86_64,60.0024001,,,,,,,,,,,,,,,,,,,,,,,,,,,,,,,,,,,,,,,,,,,,,,,,How likely will it be that you will recognize the words presented clearly on a scale of 0 (not likely) to 100 (most likely)?,,,,,,,,,,,6,0.5788,0,1,1,0,1,,,,,,,,,,,,,,,,,,,,,
,,,,,,,,,,,,,,,,,614e2446523bb49af662fb62,29,2022-02-12_12h31.13.016,lexical_decision_task_DD,2021.2.3,Linux x86_64,60.0024001,,,,,,,,,,,,,,,,,,,,,,,,,,,,,,,,,,,,,,,,,,,,,,,,How likely will it be that you will recognize the words presented slighly blurred on a scale of 0 (not likely) to 100 (most likely)?,,,,,,,,,,,6,3.3129,0,2,2,1,1,,,,,,,,,,,,,,,,,,,,,
,0.114814815,-0.400925926,1,0,0,instr_done_button,,,,,,1,test,"In the next phase you will be presented with the words from the the first phase. Your job is to decide whether you remember seeing the word or not. If you remember seeing the word press ""old"" or type ""m"". If you do not remember seeing the word press ""new"" or type ""z"". Please press the space bar or click on continue to begin. ",,,614e2446523bb49af662fb62,29,2022-02-12_12h31.13.016,lexical_decision_task_DD,2021.2.3,Linux x86_64,60.0024001,,,,,,,,,,,,,,,,,,,,,,,,,,,,,,,,,,,,,,,,,,,,,,,,,,,,,,,,,,,,,,,,,,0,0,0,0,1,,,,,,,,,,,,,,,,
,0.081481481,-0.4,1,0,0,instr_done_button,,,,,,1,test,"In the next phase you will be presented with the words from the the first phase. Your job is to decide whether you remember seeing the word or not. If you remember seeing the word press ""old"" or type ""m"". If you do not remember seeing the word press ""new"" or type ""z"". Please press the space bar or click on continue to begin. ",,,614e2446523bb49af662fb62,29,2022-02-12_12h31.13.016,lexical_decision_task_DD,2021.2.3,Linux x86_64,60.0024001,,,,,,,,,,,,,,,,,,,,,,,,,,,,,,,,,,,,,,,,,,,,,,,,,,,,,,,,,,,,,,,,,,1,0,1,0,1,,,,,,,,,,,,,,,,
space,0.074074074,-0.113888889,0,0,0,,,,,,,1,test,"In the next phase you will be presented with the words from the the first phase. Your job is to decide whether you remember seeing the word or not. If you remember seeing the word press ""old"" or type ""m"". If you do not remember seeing the word press ""new"" or type ""z"". Please press the space bar or click on continue to begin. ",,,614e2446523bb49af662fb62,29,2022-02-12_12h31.13.016,lexical_decision_task_DD,2021.2.3,Linux x86_64,60.0024001,,,,,,,,,,,,,,,,,,,,,,,,,,,,,,,,,,,,,,,,,,,,,,,,,,,,,,,,,,,,,,,,,,2,0,2,0,1,1.9241,,,,,,,,,,,,,,,
space,0.083333333,-0.113888889,0,0,0,,,,,,,1,test,"In the next phase you will be presented with the words from the the first phase. Your job is to decide whether you remember seeing the word or not. If you remember seeing the word press ""old"" or type ""m"". If you do not remember seeing the word press ""new"" or type ""z"". Please press the space bar or click on continue to begin. ",,,614e2446523bb49af662fb62,29,2022-02-12_12h31.13.016,lexical_decision_task_DD,2021.2.3,Linux x86_64,60.0024001,,,,,,,,,,,,,,,,,,,,,,,,,,,,,,,,,,,,,,,,,,,,,,,,,,,,,,,,,,,,,,,,,,3,0,3,0,1,1.5412,,,,,,,,,,,,,,,
space,0.220043573,-0.064270153,0,0,0,,,,,,,1,test,"In the next phase you will be presented with the words from the the first phase. Your job is to decide whether you remember seeing the word or not. If you remember seeing the word press ""old"" or type ""m"". If you do not remember seeing the word press ""new"" or type ""z"". Please press the space bar or click on continue to begin. ",,,614e2446523bb49af662fb62,29,2022-02-12_12h31.13.016,lexical_decision_task_DD,2021.2.3,Linux x86_64,60.0024001,,,,,,,,,,,,,,,,,,,,,,,,,,,,,,,,,,,,,,,,,,,,,,,,,,,,,,,,,,,,,,,,,,4,0,4,0,1,8.1553,,,,,,,,,,,,,,,
,,,,,,,,,,,,,,,,,614e2446523bb49af662fb62,29,2022-02-12_12h31.13.016,lexical_decision_task_DD,2021.2.3,Linux x86_64,60.0024001,,,,,,,,,,,1.4873,0,,,,,,,,,,,,,,,,,,,,,,,,0.220043573,-0.064270153,0,0,0,,,,,,,POODLE,C,m,m,./images/POODLE.png,,,,,,,,,,,,,,,,,,,,,z,0,1.4873,,,,,,,,0,0,0,81,1
,,,,,,,,,,,,,,,,,614e2446523bb49af662fb62,29,2022-02-12_12h31.13.016,lexical_decision_task_DD,2021.2.3,Linux x86_64,60.0024001,,,,,,,,,,,1.789,0,,,,,,,,,,,,,,,,,,,,,,,,0.220043573,-0.064270153,0,0,0,,,,,,,FINGER,C,m,m,./images/FINGER.png,,,,,,,,,,,,,,,,,,,,,z,0,1.789,,,,,,,,0,1,1,3,1
,,,,,,,,,,,,,,,,,614e2446523bb49af662fb62,29,2022-02-12_12h31.13.016,lexical_decision_task_DD,2021.2.3,Linux x86_64,60.0024001,,,,,,,,,,,0.9896,1,,,,,,,,,,,,,,,,,,,,,,,,0.220043573,-0.064270153,0,0,0,,,,,,,SUNSET,HB,m,m,./images/SUNSETHB.png,,,,,,,,,,,,,,,,,,,,,m,1,0.9896,,,,,,,,0,2,2,82,1
,,,,,,,,,,,,,,,,,614e2446523bb49af662fb62,29,2022-02-12_12h31.13.016,lexical_decision_task_DD,2021.2.3,Linux x86_64,60.0024001,,,,,,,,,,,0.8074,1,,,,,,,,,,,,,,,,,,,,,,,,0.220043573,-0.064270153,0,0,0,,,,,,,CURRY,C,z,m,./images/CURRY.png,,,,,,,,,,,,,,,,,,,,,z,1,0.8074,,,,,,,,0,3,3,144,1
,,,,,,,,,,,,,,,,,614e2446523bb49af662fb62,29,2022-02-12_12h31.13.016,lexical_decision_task_DD,2021.2.3,Linux x86_64,60.0024001,,,,,,,,,,,1.2559,1,,,,,,,,,,,,,,,,,,,,,,,,0.220043573,-0.064270153,0,0,0,,,,,,,PILOT,LB,z,m,./images/PILOTLB.png,,,,,,,,,,,,,,,,,,,,,z,1,1.2559,,,,,,,,0,4,4,134,1
,,,,,,,,,,,,,,,,,614e2446523bb49af662fb62,29,2022-02-12_12h31.13.016,lexical_decision_task_DD,2021.2.3,Linux x86_64,60.0024001,,,,,,,,,,,0.8232,1,,,,,,,,,,,,,,,,,,,,,,,,0.220043573,-0.064270153,0,0,0,,,,,,,BUBBLE,LB,z,m,./images/BUBBLELB.png,,,,,,,,,,,,,,,,,,,,,z,1,0.8232,,,,,,,,0,5,5,155,1
,,,,,,,,,,,,,,,,,614e2446523bb49af662fb62,29,2022-02-12_12h31.13.016,lexical_decision_task_DD,2021.2.3,Linux x86_64,60.0024001,,,,,,,,,,,0.7085,1,,,,,,,,,,,,,,,,,,,,,,,,0.220043573,-0.064270153,0,0,0,,,,,,,MALLET,LB,m,m,./images/MALLETLB.png,,,,,,,,,,,,,,,,,,,,,m,1,0.7085,,,,,,,,0,6,6,50,1
,,,,,,,,,,,,,,,,,614e2446523bb49af662fb62,29,2022-02-12_12h31.13.016,lexical_decision_task_DD,2021.2.3,Linux x86_64,60.0024001,,,,,,,,,,,0.8223,1,,,,,,,,,,,,,,,,,,,,,,,,0.220043573,-0.064270153,0,0,0,,,,,,,MIRROR,C,m,m,./images/MIRROR.png,,,,,,,,,,,,,,,,,,,,,m,1,0.8223,,,,,,,,0,7,7,63,1
,,,,,,,,,,,,,,,,,614e2446523bb49af662fb62,29,2022-02-12_12h31.13.016,lexical_decision_task_DD,2021.2.3,Linux x86_64,60.0024001,,,,,,,,,,,0.8733,0,,,,,,,,,,,,,,,,,,,,,,,,0.220043573,-0.064270153,0,0,0,,,,,,,PASTA,LB,m,m,./images/PASTALB.png,,,,,,,,,,,,,,,,,,,,,z,0,0.8733,,,,,,,,0,8,8,5,1
,,,,,,,,,,,,,,,,,614e2446523bb49af662fb62,29,2022-02-12_12h31.13.016,lexical_decision_task_DD,2021.2.3,Linux x86_64,60.0024001,,,,,,,,,,,0.6564,1,,,,,,,,,,,,,,,,,,,,,,,,0.220043573,-0.064270153,0,0,0,,,,,,,BISHOP,HB,z,m,./images/BISHOPHB.png,,,,,,,,,,,,,,,,,,,,,z,1,0.6564,,,,,,,,0,9,9,133,1
,,,,,,,,,,,,,,,,,614e2446523bb49af662fb62,29,2022-02-12_12h31.13.016,lexical_decision_task_DD,2021.2.3,Linux x86_64,60.0024001,,,,,,,,,,,0.8388,1,,,,,,,,,,,,,,,,,,,,,,,,0.220043573,-0.064270153,0,0,0,,,,,,,DESERT,HB,z,m,./images/DESERTHB.png,,,,,,,,,,,,,,,,,,,,,z,1,0.8388,,,,,,,,0,10,10,136,1
,,,,,,,,,,,,,,,,,614e2446523bb49af662fb62,29,2022-02-12_12h31.13.016,lexical_decision_task_DD,2021.2.3,Linux x86_64,60.0024001,,,,,,,,,,,1.0432,0,,,,,,,,,,,,,,,,,,,,,,,,0.220043573,-0.064270153,0,0,0,,,,,,,COUCH,LB,m,m,./images/COUCHLB.png,,,,,,,,,,,,,,,,,,,,,z,0,1.0432,,,,,,,,0,11,11,77,1
,,,,,,,,,,,,,,,,,614e2446523bb49af662fb62,29,2022-02-12_12h31.13.016,lexical_decision_task_DD,2021.2.3,Linux x86_64,60.0024001,,,,,,,,,,,1.0895,1,,,,,,,,,,,,,,,,,,,,,,,,0.220043573,-0.064270153,0,0,0,,,,,,,SWING,HB,m,m,./images/SWINGHB.png,,,,,,,,,,,,,,,,,,,,,m,1,1.0895,,,,,,,,0,12,12,40,1
,,,,,,,,,,,,,,,,,614e2446523bb49af662fb62,29,2022-02-12_12h31.13.016,lexical_decision_task_DD,2021.2.3,Linux x86_64,60.0024001,,,,,,,,,,,1.5382,1,,,,,,,,,,,,,,,,,,,,,,,,0.220043573,-0.064270153,0,0,0,,,,,,,TOWEL,HB,z,m,./images/TOWELHB.png,,,,,,,,,,,,,,,,,,,,,z,1,1.5382,,,,,,,,0,13,13,85,1
,,,,,,,,,,,,,,,,,614e2446523bb49af662fb62,29,2022-02-12_12h31.13.016,lexical_decision_task_DD,2021.2.3,Linux x86_64,60.0024001,,,,,,,,,,,0.7586,1,,,,,,,,,,,,,,,,,,,,,,,,0.220043573,-0.064270153,0,0,0,,,,,,,CANDLE,HB,m,m,./images/CANDLEHB.png,,,,,,,,,,,,,,,,,,,,,m,1,0.7586,,,,,,,,0,14,14,61,1
,,,,,,,,,,,,,,,,,614e2446523bb49af662fb62,29,2022-02-12_12h31.13.016,lexical_decision_task_DD,2021.2.3,Linux x86_64,60.0024001,,,,,,,,,,,1.0062,0,,,,,,,,,,,,,,,,,,,,,,,,0.220043573,-0.064270153,0,0,0,,,,,,,MUSCLE,HB,m,m,./images/MUSCLEHB.png,,,,,,,,,,,,,,,,,,,,,z,0,1.0062,,,,,,,,0,15,15,4,1
,,,,,,,,,,,,,,,,,614e2446523bb49af662fb62,29,2022-02-12_12h31.13.016,lexical_decision_task_DD,2021.2.3,Linux x86_64,60.0024001,,,,,,,,,,,0.7587,1,,,,,,,,,,,,,,,,,,,,,,,,0.220043573,-0.064270153,0,0,0,,,,,,,CHERRY,C,z,m,./images/CHERRY.png,,,,,,,,,,,,,,,,,,,,,z,1,0.7587,,,,,,,,0,16,16,138,1
,,,,,,,,,,,,,,,,,614e2446523bb49af662fb62,29,2022-02-12_12h31.13.016,lexical_decision_task_DD,2021.2.3,Linux x86_64,60.0024001,,,,,,,,,,,1.4559,0,,,,,,,,,,,,,,,,,,,,,,,,0.220043573,-0.064270153,0,0,0,,,,,,,PEARL,HB,m,m,./images/PEARLHB.png,,,,,,,,,,,,,,,,,,,,,z,0,1.4559,,,,,,,,0,17,17,46,1
,,,,,,,,,,,,,,,,,614e2446523bb49af662fb62,29,2022-02-12_12h31.13.016,lexical_decision_task_DD,2021.2.3,Linux x86_64,60.0024001,,,,,,,,,,,0.689,1,,,,,,,,,,,,,,,,,,,,,,,,0.220043573,-0.064270153,0,0,0,,,,,,,TOMATO,C,m,m,./images/TOMATO.png,,,,,,,,,,,,,,,,,,,,,m,1,0.689,,,,,,,,0,18,18,0,1
,,,,,,,,,,,,,,,,,614e2446523bb49af662fb62,29,2022-02-12_12h31.13.016,lexical_decision_task_DD,2021.2.3,Linux x86_64,60.0024001,,,,,,,,,,,1.3581,1,,,,,,,,,,,,,,,,,,,,,,,,0.220043573,-0.064270153,0,0,0,,,,,,,JUMPER,LB,z,m,./images/JUMPERLB.png,,,,,,,,,,,,,,,,,,,,,z,1,1.3581,,,,,,,,0,19,19,158,1
,,,,,,,,,,,,,,,,,614e2446523bb49af662fb62,29,2022-02-12_12h31.13.016,lexical_decision_task_DD,2021.2.3,Linux x86_64,60.0024001,,,,,,,,,,,0.7223,1,,,,,,,,,,,,,,,,,,,,,,,,0.220043573,-0.064270153,0,0,0,,,,,,,SHELF,C,m,m,./images/SHELF.png,,,,,,,,,,,,,,,,,,,,,m,1,0.7223,,,,,,,,0,20,20,39,1
,,,,,,,,,,,,,,,,,614e2446523bb49af662fb62,29,2022-02-12_12h31.13.016,lexical_decision_task_DD,2021.2.3,Linux x86_64,60.0024001,,,,,,,,,,,0.706,1,,,,,,,,,,,,,,,,,,,,,,,,0.220043573,-0.064270153,0,0,0,,,,,,,SKIING,LB,m,m,./images/SKIINGLB.png,,,,,,,,,,,,,,,,,,,,,m,1,0.706,,,,,,,,0,21,21,17,1
,,,,,,,,,,,,,,,,,614e2446523bb49af662fb62,29,2022-02-12_12h31.13.016,lexical_decision_task_DD,2021.2.3,Linux x86_64,60.0024001,,,,,,,,,,,0.8545,0,,,,,,,,,,,,,,,,,,,,,,,,0.220043573,-0.064270153,0,0,0,,,,,,,MOTOR,HB,m,m,./images/MOTORHB.png,,,,,,,,,,,,,,,,,,,,,z,0,0.8545,,,,,,,,0,22,22,13,1
,,,,,,,,,,,,,,,,,614e2446523bb49af662fb62,29,2022-02-12_12h31.13.016,lexical_decision_task_DD,2021.2.3,Linux x86_64,60.0024001,,,,,,,,,,,0.7056,0,,,,,,,,,,,,,,,,,,,,,,,,0.220043573,-0.064270153,0,0,0,,,,,,,SQUARE,C,m,m,./images/SQUARE.png,,,,,,,,,,,,,,,,,,,,,z,0,0.7056,,,,,,,,0,23,23,6,1
,,,,,,,,,,,,,,,,,614e2446523bb49af662fb62,29,2022-02-12_12h31.13.016,lexical_decision_task_DD,2021.2.3,Linux x86_64,60.0024001,,,,,,,,,,,0.8076,1,,,,,,,,,,,,,,,,,,,,,,,,0.220043573,-0.064270153,0,0,0,,,,,,,SNAKE,HB,z,m,./images/SNAKEHB.png,,,,,,,,,,,,,,,,,,,,,z,1,0.8076,,,,,,,,0,24,24,124,1
,,,,,,,,,,,,,,,,,614e2446523bb49af662fb62,29,2022-02-12_12h31.13.016,lexical_decision_task_DD,2021.2.3,Linux x86_64,60.0024001,,,,,,,,,,,0.7066,1,,,,,,,,,,,,,,,,,,,,,,,,0.220043573,-0.064270153,0,0,0,,,,,,,PURSE,LB,m,m,./images/PURSELB.png,,,,,,,,,,,,,,,,,,,,,m,1,0.7066,,,,,,,,0,25,25,62,1
,,,,,,,,,,,,,,,,,614e2446523bb49af662fb62,29,2022-02-12_12h31.13.016,lexical_decision_task_DD,2021.2.3,Linux x86_64,60.0024001,,,,,,,,,,,0.8719,0,,,,,,,,,,,,,,,,,,,,,,,,0.220043573,-0.064270153,0,0,0,,,,,,,BURIAL,LB,m,m,./images/BURIALLB.png,,,,,,,,,,,,,,,,,,,,,z,0,0.8719,,,,,,,,0,26,26,59,1
,,,,,,,,,,,,,,,,,614e2446523bb49af662fb62,29,2022-02-12_12h31.13.016,lexical_decision_task_DD,2021.2.3,Linux x86_64,60.0024001,,,,,,,,,,,0.9393,1,,,,,,,,,,,,,,,,,,,,,,,,0.220043573,-0.064270153,0,0,0,,,,,,,HOCKEY,LB,z,m,./images/HOCKEYLB.png,,,,,,,,,,,,,,,,,,,,,z,1,0.9393,,,,,,,,0,27,27,116,1
,,,,,,,,,,,,,,,,,614e2446523bb49af662fb62,29,2022-02-12_12h31.13.016,lexical_decision_task_DD,2021.2.3,Linux x86_64,60.0024001,,,,,,,,,,,0.84,0,,,,,,,,,,,,,,,,,,,,,,,,0.220043573,-0.064270153,0,0,0,,,,,,,PACKET,LB,m,m,./images/PACKETLB.png,,,,,,,,,,,,,,,,,,,,,z,0,0.84,,,,,,,,0,28,28,56,1
,,,,,,,,,,,,,,,,,614e2446523bb49af662fb62,29,2022-02-12_12h31.13.016,lexical_decision_task_DD,2021.2.3,Linux x86_64,60.0024001,,,,,,,,,,,0.8432,1,,,,,,,,,,,,,,,,,,,,,,,,0.220043573,-0.064270153,0,0,0,,,,,,,NOOSE,C,m,m,./images/NOOSE.png,,,,,,,,,,,,,,,,,,,,,m,1,0.8432,,,,,,,,0,29,29,72,1
,,,,,,,,,,,,,,,,,614e2446523bb49af662fb62,29,2022-02-12_12h31.13.016,lexical_decision_task_DD,2021.2.3,Linux x86_64,60.0024001,,,,,,,,,,,0.823,1,,,,,,,,,,,,,,,,,,,,,,,,0.220043573,-0.064270153,0,0,0,,,,,,,POSTER,LB,z,m,./images/POSTERLB.png,,,,,,,,,,,,,,,,,,,,,z,1,0.823,,,,,,,,0,30,30,137,1
,,,,,,,,,,,,,,,,,614e2446523bb49af662fb62,29,2022-02-12_12h31.13.016,lexical_decision_task_DD,2021.2.3,Linux x86_64,60.0024001,,,,,,,,,,,0.8279,1,,,,,,,,,,,,,,,,,,,,,,,,0.220043573,-0.064270153,0,0,0,,,,,,,STOOL,HB,z,m,./images/STOOLHB.png,,,,,,,,,,,,,,,,,,,,,z,1,0.8279,,,,,,,,0,31,31,127,1
,,,,,,,,,,,,,,,,,614e2446523bb49af662fb62,29,2022-02-12_12h31.13.016,lexical_decision_task_DD,2021.2.3,Linux x86_64,60.0024001,,,,,,,,,,,1.5058,1,,,,,,,,,,,,,,,,,,,,,,,,0.220043573,-0.064270153,0,0,0,,,,,,,CHALK,HB,z,m,./images/CHALKHB.png,,,,,,,,,,,,,,,,,,,,,z,1,1.5058,,,,,,,,0,32,32,109,1
,,,,,,,,,,,,,,,,,614e2446523bb49af662fb62,29,2022-02-12_12h31.13.016,lexical_decision_task_DD,2021.2.3,Linux x86_64,60.0024001,,,,,,,,,,,1.3053,0,,,,,,,,,,,,,,,,,,,,,,,,0.220043573,-0.064270153,0,0,0,,,,,,,STORM,C,m,m,./images/STORM.png,,,,,,,,,,,,,,,,,,,,,z,0,1.3053,,,,,,,,0,33,33,30,1
,,,,,,,,,,,,,,,,,614e2446523bb49af662fb62,29,2022-02-12_12h31.13.016,lexical_decision_task_DD,2021.2.3,Linux x86_64,60.0024001,,,,,,,,,,,1.0225,0,,,,,,,,,,,,,,,,,,,,,,,,0.220043573,-0.064270153,0,0,0,,,,,,,SPORT,C,m,m,./images/SPORT.png,,,,,,,,,,,,,,,,,,,,,z,0,1.0225,,,,,,,,0,34,34,48,1
,,,,,,,,,,,,,,,,,614e2446523bb49af662fb62,29,2022-02-12_12h31.13.016,lexical_decision_task_DD,2021.2.3,Linux x86_64,60.0024001,,,,,,,,,,,0.8223,0,,,,,,,,,,,,,,,,,,,,,,,,0.220043573,-0.064270153,0,0,0,,,,,,,SWEAT,C,m,m,./images/SWEAT.png,,,,,,,,,,,,,,,,,,,,,z,0,0.8223,,,,,,,,0,35,35,66,1
,,,,,,,,,,,,,,,,,614e2446523bb49af662fb62,29,2022-02-12_12h31.13.016,lexical_decision_task_DD,2021.2.3,Linux x86_64,60.0024001,,,,,,,,,,,0.6548,1,,,,,,,,,,,,,,,,,,,,,,,,0.220043573,-0.064270153,0,0,0,,,,,,,URINE,HB,m,m,./images/URINEHB.png,,,,,,,,,,,,,,,,,,,,,m,1,0.6548,,,,,,,,0,36,36,70,1
,,,,,,,,,,,,,,,,,614e2446523bb49af662fb62,29,2022-02-12_12h31.13.016,lexical_decision_task_DD,2021.2.3,Linux x86_64,60.0024001,,,,,,,,,,,0.6887,0,,,,,,,,,,,,,,,,,,,,,,,,0.220043573,-0.064270153,0,0,0,,,,,,,SHORE,C,m,m,./images/SHORE.png,,,,,,,,,,,,,,,,,,,,,z,0,0.6887,,,,,,,,0,37,37,12,1
,,,,,,,,,,,,,,,,,614e2446523bb49af662fb62,29,2022-02-12_12h31.13.016,lexical_decision_task_DD,2021.2.3,Linux x86_64,60.0024001,,,,,,,,,,,0.9559,1,,,,,,,,,,,,,,,,,,,,,,,,0.220043573,-0.064270153,0,0,0,,,,,,,BRIDE,HB,z,m,./images/BRIDEHB.png,,,,,,,,,,,,,,,,,,,,,z,1,0.9559,,,,,,,,0,38,38,148,1
,,,,,,,,,,,,,,,,,614e2446523bb49af662fb62,29,2022-02-12_12h31.13.016,lexical_decision_task_DD,2021.2.3,Linux x86_64,60.0024001,,,,,,,,,,,0.7222,1,,,,,,,,,,,,,,,,,,,,,,,,0.220043573,-0.064270153,0,0,0,,,,,,,BUTTER,C,z,m,./images/BUTTER.png,,,,,,,,,,,,,,,,,,,,,z,1,0.7222,,,,,,,,0,39,39,111,1
,,,,,,,,,,,,,,,,,614e2446523bb49af662fb62,29,2022-02-12_12h31.13.016,lexical_decision_task_DD,2021.2.3,Linux x86_64,60.0024001,,,,,,,,,,,0.8412,1,,,,,,,,,,,,,,,,,,,,,,,,0.220043573,-0.064270153,0,0,0,,,,,,,COOKER,C,m,m,./images/COOKER.png,,,,,,,,,,,,,,,,,,,,,m,1,0.8412,,,,,,,,0,40,40,69,1
,,,,,,,,,,,,,,,,,614e2446523bb49af662fb62,29,2022-02-12_12h31.13.016,lexical_decision_task_DD,2021.2.3,Linux x86_64,60.0024001,,,,,,,,,,,1.0454,0,,,,,,,,,,,,,,,,,,,,,,,,0.220043573,-0.064270153,0,0,0,space,,,,,,CRUST,HB,m,m,./images/CRUSTHB.png,1.0381,,,,,,,,,,,,,,,,,,,,z,0,1.0454,,,,,,,,0,41,41,79,1
,,,,,,,,,,,,,,,,,614e2446523bb49af662fb62,29,2022-02-12_12h31.13.016,lexical_decision_task_DD,2021.2.3,Linux x86_64,60.0024001,,,,,,,,,,,1.7222,0,,,,,,,,,,,,,,,,,,,,,,,,0.220043573,-0.064270153,0,0,0,,,,,,,SAILOR,HB,m,m,./images/SAILORHB.png,,,,,,,,,,,,,,,,,,,,,z,0,1.7222,,,,,,,,0,42,42,67,1
,,,,,,,,,,,,,,,,,614e2446523bb49af662fb62,29,2022-02-12_12h31.13.016,lexical_decision_task_DD,2021.2.3,Linux x86_64,60.0024001,,,,,,,,,,,0.9739,0,,,,,,,,,,,,,,,,,,,,,,,,0.220043573,-0.064270153,0,0,0,,,,,,,BOILER,C,z,m,./images/BOILER.png,,,,,,,,,,,,,,,,,,,,,m,0,0.9739,,,,,,,,0,43,43,120,1
,,,,,,,,,,,,,,,,,614e2446523bb49af662fb62,29,2022-02-12_12h31.13.016,lexical_decision_task_DD,2021.2.3,Linux x86_64,60.0024001,,,,,,,,,,,0.8604,1,,,,,,,,,,,,,,,,,,,,,,,,0.220043573,-0.064270153,0,0,0,,,,,,,BRUSH,LB,z,m,./images/BRUSHLB.png,,,,,,,,,,,,,,,,,,,,,z,1,0.8604,,,,,,,,0,44,44,143,1
,,,,,,,,,,,,,,,,,614e2446523bb49af662fb62,29,2022-02-12_12h31.13.016,lexical_decision_task_DD,2021.2.3,Linux x86_64,60.0024001,,,,,,,,,,,0.6551,0,,,,,,,,,,,,,,,,,,,,,,,,0.220043573,-0.064270153,0,0,0,,,,,,,TORCH,LB,m,m,./images/TORCHLB.png,,,,,,,,,,,,,,,,,,,,,z,0,0.6551,,,,,,,,0,45,45,68,1
,,,,,,,,,,,,,,,,,614e2446523bb49af662fb62,29,2022-02-12_12h31.13.016,lexical_decision_task_DD,2021.2.3,Linux x86_64,60.0024001,,,,,,,,,,,1.0765,0,,,,,,,,,,,,,,,,,,,,,,,,0.220043573,-0.064270153,0,0,0,,,,,,,BASKET,LB,z,m,./images/BASKETLB.png,,,,,,,,,,,,,,,,,,,,,m,0,1.0765,,,,,,,,0,46,46,128,1
,,,,,,,,,,,,,,,,,614e2446523bb49af662fb62,29,2022-02-12_12h31.13.016,lexical_decision_task_DD,2021.2.3,Linux x86_64,60.0024001,,,,,,,,,,,0.9621,1,,,,,,,,,,,,,,,,,,,,,,,,0.220043573,-0.064270153,0,0,0,,,,,,,PARCEL,C,z,m,./images/PARCEL.png,,,,,,,,,,,,,,,,,,,,,z,1,0.9621,,,,,,,,0,47,47,102,1
,,,,,,,,,,,,,,,,,614e2446523bb49af662fb62,29,2022-02-12_12h31.13.016,lexical_decision_task_DD,2021.2.3,Linux x86_64,60.0024001,,,,,,,,,,,0.8217,0,,,,,,,,,,,,,,,,,,,,,,,,0.220043573,-0.064270153,0,0,0,,,,,,,GREASE,C,m,m,./images/GREASE.png,,,,,,,,,,,,,,,,,,,,,z,0,0.8217,,,,,,,,0,48,48,15,1
,,,,,,,,,,,,,,,,,614e2446523bb49af662fb62,29,2022-02-12_12h31.13.016,lexical_decision_task_DD,2021.2.3,Linux x86_64,60.0024001,,,,,,,,,,,0.7231,1,,,,,,,,,,,,,,,,,,,,,,,,0.220043573,-0.064270153,0,0,0,,,,,,,WHISKY,LB,z,m,./images/WHISKYLB.png,,,,,,,,,,,,,,,,,,,,,z,1,0.7231,,,,,,,,0,49,49,167,1
,,,,,,,,,,,,,,,,,614e2446523bb49af662fb62,29,2022-02-12_12h31.13.016,lexical_decision_task_DD,2021.2.3,Linux x86_64,60.0024001,,,,,,,,,,,0.7211,1,,,,,,,,,,,,,,,,,,,,,,,,0.220043573,-0.064270153,0,0,0,,,,,,,PENCE,HB,m,m,./images/PENCEHB.png,,,,,,,,,,,,,,,,,,,,,m,1,0.7211,,,,,,,,0,50,50,16,1
,,,,,,,,,,,,,,,,,614e2446523bb49af662fb62,29,2022-02-12_12h31.13.016,lexical_decision_task_DD,2021.2.3,Linux x86_64,60.0024001,,,,,,,,,,,0.7569,1,,,,,,,,,,,,,,,,,,,,,,,,0.220043573,-0.064270153,0,0,0,,,,,,,JAGUAR,C,m,m,./images/JAGUAR.png,,,,,,,,,,,,,,,,,,,,,m,1,0.7569,,,,,,,,0,51,51,18,1
,,,,,,,,,,,,,,,,,614e2446523bb49af662fb62,29,2022-02-12_12h31.13.016,lexical_decision_task_DD,2021.2.3,Linux x86_64,60.0024001,,,,,,,,,,,0.7562,1,,,,,,,,,,,,,,,,,,,,,,,,0.220043573,-0.064270153,0,0,0,,,,,,,CLOTH,LB,z,m,./images/CLOTHLB.png,,,,,,,,,,,,,,,,,,,,,z,1,0.7562,,,,,,,,0,52,52,107,1
,,,,,,,,,,,,,,,,,614e2446523bb49af662fb62,29,2022-02-12_12h31.13.016,lexical_decision_task_DD,2021.2.3,Linux x86_64,60.0024001,,,,,,,,,,,0.6917,1,,,,,,,,,,,,,,,,,,,,,,,,0.220043573,-0.064270153,0,0,0,,,,,,,BOXER,HB,z,m,./images/BOXERHB.png,,,,,,,,,,,,,,,,,,,,,z,1,0.6917,,,,,,,,0,53,53,88,1
,,,,,,,,,,,,,,,,,614e2446523bb49af662fb62,29,2022-02-12_12h31.13.016,lexical_decision_task_DD,2021.2.3,Linux x86_64,60.0024001,,,,,,,,,,,0.7237,1,,,,,,,,,,,,,,,,,,,,,,,,0.220043573,-0.064270153,0,0,0,,,,,,,MEDAL,LB,z,m,./images/MEDALLB.png,,,,,,,,,,,,,,,,,,,,,z,1,0.7237,,,,,,,,0,54,54,95,1
,,,,,,,,,,,,,,,,,614e2446523bb49af662fb62,29,2022-02-12_12h31.13.016,lexical_decision_task_DD,2021.2.3,Linux x86_64,60.0024001,,,,,,,,,,,0.824,1,,,,,,,,,,,,,,,,,,,,,,,,0.220043573,-0.064270153,0,0,0,,,,,,,BABOON,HB,m,m,./images/BABOONHB.png,,,,,,,,,,,,,,,,,,,,,m,1,0.824,,,,,,,,0,55,55,58,1
,,,,,,,,,,,,,,,,,614e2446523bb49af662fb62,29,2022-02-12_12h31.13.016,lexical_decision_task_DD,2021.2.3,Linux x86_64,60.0024001,,,,,,,,,,,0.873,1,,,,,,,,,,,,,,,,,,,,,,,,0.220043573,-0.064270153,0,0,0,,,,,,,MOOSE,C,m,m,./images/MOOSE.png,,,,,,,,,,,,,,,,,,,,,m,1,0.873,,,,,,,,0,56,56,57,1
,,,,,,,,,,,,,,,,,614e2446523bb49af662fb62,29,2022-02-12_12h31.13.016,lexical_decision_task_DD,2021.2.3,Linux x86_64,60.0024001,,,,,,,,,,,0.6885,1,,,,,,,,,,,,,,,,,,,,,,,,0.220043573,-0.064270153,0,0,0,,,,,,,DONKEY,HB,z,m,./images/DONKEYHB.png,,,,,,,,,,,,,,,,,,,,,z,1,0.6885,,,,,,,,0,57,57,103,1
,,,,,,,,,,,,,,,,,614e2446523bb49af662fb62,29,2022-02-12_12h31.13.016,lexical_decision_task_DD,2021.2.3,Linux x86_64,60.0024001,,,,,,,,,,,0.9556,1,,,,,,,,,,,,,,,,,,,,,,,,0.220043573,-0.064270153,0,0,0,,,,,,,LAGOON,LB,z,m,./images/LAGOONLB.png,,,,,,,,,,,,,,,,,,,,,z,1,0.9556,,,,,,,,0,58,58,131,1
,,,,,,,,,,,,,,,,,614e2446523bb49af662fb62,29,2022-02-12_12h31.13.016,lexical_decision_task_DD,2021.2.3,Linux x86_64,60.0024001,,,,,,,,,,,0.7229,1,,,,,,,,,,,,,,,,,,,,,,,,0.220043573,-0.064270153,0,0,0,,,,,,,PEBBLE,HB,z,m,./images/PEBBLEHB.png,,,,,,,,,,,,,,,,,,,,,z,1,0.7229,,,,,,,,0,59,59,166,1
,,,,,,,,,,,,,,,,,614e2446523bb49af662fb62,29,2022-02-12_12h31.13.016,lexical_decision_task_DD,2021.2.3,Linux x86_64,60.0024001,,,,,,,,,,,1.0071,1,,,,,,,,,,,,,,,,,,,,,,,,0.220043573,-0.064270153,0,0,0,,,,,,,BELLY,HB,m,m,./images/BELLYHB.png,,,,,,,,,,,,,,,,,,,,,m,1,1.0071,,,,,,,,0,60,60,10,1
,,,,,,,,,,,,,,,,,614e2446523bb49af662fb62,29,2022-02-12_12h31.13.016,lexical_decision_task_DD,2021.2.3,Linux x86_64,60.0024001,,,,,,,,,,,0.5936,1,,,,,,,,,,,,,,,,,,,,,,,,0.220043573,-0.064270153,0,0,0,,,,,,,ENGINE,LB,z,m,./images/ENGINELB.png,,,,,,,,,,,,,,,,,,,,,z,1,0.5936,,,,,,,,0,61,61,122,1
,,,,,,,,,,,,,,,,,614e2446523bb49af662fb62,29,2022-02-12_12h31.13.016,lexical_decision_task_DD,2021.2.3,Linux x86_64,60.0024001,,,,,,,,,,,0.6718,1,,,,,,,,,,,,,,,,,,,,,,,,0.220043573,-0.064270153,0,0,0,,,,,,,STAIN,C,z,m,./images/STAIN.png,,,,,,,,,,,,,,,,,,,,,z,1,0.6718,,,,,,,,0,62,62,90,1
,,,,,,,,,,,,,,,,,614e2446523bb49af662fb62,29,2022-02-12_12h31.13.016,lexical_decision_task_DD,2021.2.3,Linux x86_64,60.0024001,,,,,,,,,,,1.623,0,,,,,,,,,,,,,,,,,,,,,,,,0.220043573,-0.064270153,0,0,0,,,,,,,CRADLE,LB,m,m,./images/CRADLELB.png,,,,,,,,,,,,,,,,,,,,,z,0,1.623,,,,,,,,0,63,63,20,1
,,,,,,,,,,,,,,,,,614e2446523bb49af662fb62,29,2022-02-12_12h31.13.016,lexical_decision_task_DD,2021.2.3,Linux x86_64,60.0024001,,,,,,,,,,,0.7907,1,,,,,,,,,,,,,,,,,,,,,,,,0.220043573,-0.064270153,0,0,0,,,,,,,CHAIN,C,z,m,./images/CHAIN.png,,,,,,,,,,,,,,,,,,,,,z,1,0.7907,,,,,,,,0,64,64,126,1
,,,,,,,,,,,,,,,,,614e2446523bb49af662fb62,29,2022-02-12_12h31.13.016,lexical_decision_task_DD,2021.2.3,Linux x86_64,60.0024001,,,,,,,,,,,1.0888,1,,,,,,,,,,,,,,,,,,,,,,,,0.220043573,-0.064270153,0,0,0,,,,,,,CANOE,HB,z,m,./images/CANOEHB.png,,,,,,,,,,,,,,,,,,,,,z,1,1.0888,,,,,,,,0,65,65,142,1
,,,,,,,,,,,,,,,,,614e2446523bb49af662fb62,29,2022-02-12_12h31.13.016,lexical_decision_task_DD,2021.2.3,Linux x86_64,60.0024001,,,,,,,,,,,0.7891,1,,,,,,,,,,,,,,,,,,,,,,,,0.220043573,-0.064270153,0,0,0,,,,,,,STOVE,LB,z,m,./images/STOVELB.png,,,,,,,,,,,,,,,,,,,,,z,1,0.7891,,,,,,,,0,66,66,86,1
,,,,,,,,,,,,,,,,,614e2446523bb49af662fb62,29,2022-02-12_12h31.13.016,lexical_decision_task_DD,2021.2.3,Linux x86_64,60.0024001,,,,,,,,,,,0.7928,1,,,,,,,,,,,,,,,,,,,,,,,,0.220043573,-0.064270153,0,0,0,,,,,,,PARADE,LB,z,m,./images/PARADELB.png,,,,,,,,,,,,,,,,,,,,,z,1,0.7928,,,,,,,,0,67,67,101,1
,,,,,,,,,,,,,,,,,614e2446523bb49af662fb62,29,2022-02-12_12h31.13.016,lexical_decision_task_DD,2021.2.3,Linux x86_64,60.0024001,,,,,,,,,,,0.8564,0,,,,,,,,,,,,,,,,,,,,,,,,0.220043573,-0.064270153,0,0,0,,,,,,,CLIFF,LB,z,m,./images/CLIFFLB.png,,,,,,,,,,,,,,,,,,,,,m,0,0.8564,,,,,,,,0,68,68,92,1
,,,,,,,,,,,,,,,,,614e2446523bb49af662fb62,29,2022-02-12_12h31.13.016,lexical_decision_task_DD,2021.2.3,Linux x86_64,60.0024001,,,,,,,,,,,0.8237,1,,,,,,,,,,,,,,,,,,,,,,,,0.220043573,-0.064270153,0,0,0,,,,,,,GRAIN,C,m,m,./images/GRAIN.png,,,,,,,,,,,,,,,,,,,,,m,1,0.8237,,,,,,,,0,69,69,75,1
,,,,,,,,,,,,,,,,,614e2446523bb49af662fb62,29,2022-02-12_12h31.13.016,lexical_decision_task_DD,2021.2.3,Linux x86_64,60.0024001,,,,,,,,,,,0.6945,1,,,,,,,,,,,,,,,,,,,,,,,,0.220043573,-0.064270153,0,0,0,,,,,,,WEASEL,LB,m,m,./images/WEASELLB.png,,,,,,,,,,,,,,,,,,,,,m,1,0.6945,,,,,,,,0,70,70,80,1
,,,,,,,,,,,,,,,,,614e2446523bb49af662fb62,29,2022-02-12_12h31.13.016,lexical_decision_task_DD,2021.2.3,Linux x86_64,60.0024001,,,,,,,,,,,0.9557,1,,,,,,,,,,,,,,,,,,,,,,,,0.220043573,-0.064270153,0,0,0,,,,,,,CEMENT,LB,m,m,./images/CEMENTLB.png,,,,,,,,,,,,,,,,,,,,,m,1,0.9557,,,,,,,,0,71,71,74,1
,,,,,,,,,,,,,,,,,614e2446523bb49af662fb62,29,2022-02-12_12h31.13.016,lexical_decision_task_DD,2021.2.3,Linux x86_64,60.0024001,,,,,,,,,,,0.9224,1,,,,,,,,,,,,,,,,,,,,,,,,0.220043573,-0.064270153,0,0,0,,,,,,,BLOKE,C,z,m,./images/BLOKE.png,,,,,,,,,,,,,,,,,,,,,z,1,0.9224,,,,,,,,0,72,72,96,1
,,,,,,,,,,,,,,,,,614e2446523bb49af662fb62,29,2022-02-12_12h31.13.016,lexical_decision_task_DD,2021.2.3,Linux x86_64,60.0024001,,,,,,,,,,,0.9911,0,,,,,,,,,,,,,,,,,,,,,,,,0.220043573,-0.064270153,0,0,0,,,,,,,STRING,LB,m,m,./images/STRINGLB.png,,,,,,,,,,,,,,,,,,,,,z,0,0.9911,,,,,,,,0,73,73,41,1
,,,,,,,,,,,,,,,,,614e2446523bb49af662fb62,29,2022-02-12_12h31.13.016,lexical_decision_task_DD,2021.2.3,Linux x86_64,60.0024001,,,,,,,,,,,1.3566,0,,,,,,,,,,,,,,,,,,,,,,,,0.220043573,-0.064270153,0,0,0,,,,,,,WRIST,HB,m,m,./images/WRISTHB.png,,,,,,,,,,,,,,,,,,,,,z,0,1.3566,,,,,,,,0,74,74,25,1
,,,,,,,,,,,,,,,,,614e2446523bb49af662fb62,29,2022-02-12_12h31.13.016,lexical_decision_task_DD,2021.2.3,Linux x86_64,60.0024001,,,,,,,,,,,0.8061,1,,,,,,,,,,,,,,,,,,,,,,,,0.220043573,-0.064270153,0,0,0,,,,,,,POKER,HB,z,m,./images/POKERHB.png,,,,,,,,,,,,,,,,,,,,,z,1,0.8061,,,,,,,,0,75,75,151,1
,,,,,,,,,,,,,,,,,614e2446523bb49af662fb62,29,2022-02-12_12h31.13.016,lexical_decision_task_DD,2021.2.3,Linux x86_64,60.0024001,,,,,,,,,,,0.8892,1,,,,,,,,,,,,,,,,,,,,,,,,0.220043573,-0.064270153,0,0,0,,,,,,,BERRY,LB,m,m,./images/BERRYLB.png,,,,,,,,,,,,,,,,,,,,,m,1,0.8892,,,,,,,,0,76,76,47,1
,,,,,,,,,,,,,,,,,614e2446523bb49af662fb62,29,2022-02-12_12h31.13.016,lexical_decision_task_DD,2021.2.3,Linux x86_64,60.0024001,,,,,,,,,,,0.7239,0,,,,,,,,,,,,,,,,,,,,,,,,0.220043573,-0.064270153,0,0,0,,,,,,,HEATER,LB,z,m,./images/HEATERLB.png,,,,,,,,,,,,,,,,,,,,,m,0,0.7239,,,,,,,,0,77,77,140,1
,,,,,,,,,,,,,,,,,614e2446523bb49af662fb62,29,2022-02-12_12h31.13.016,lexical_decision_task_DD,2021.2.3,Linux x86_64,60.0024001,,,,,,,,,,,0.7223,1,,,,,,,,,,,,,,,,,,,,,,,,0.220043573,-0.064270153,0,0,0,,,,,,,GLOVE,HB,z,m,./images/GLOVEHB.png,,,,,,,,,,,,,,,,,,,,,z,1,0.7223,,,,,,,,0,78,78,157,1
,,,,,,,,,,,,,,,,,614e2446523bb49af662fb62,29,2022-02-12_12h31.13.016,lexical_decision_task_DD,2021.2.3,Linux x86_64,60.0024001,,,,,,,,,,,0.6075,1,,,,,,,,,,,,,,,,,,,,,,,,0.220043573,-0.064270153,0,0,0,,,,,,,MIDGET,HB,z,m,./images/MIDGETHB.png,,,,,,,,,,,,,,,,,,,,,z,1,0.6075,,,,,,,,0,79,79,160,1
,,,,,,,,,,,,,,,,,614e2446523bb49af662fb62,29,2022-02-12_12h31.13.016,lexical_decision_task_DD,2021.2.3,Linux x86_64,60.0024001,,,,,,,,,,,0.7226,1,,,,,,,,,,,,,,,,,,,,,,,,0.220043573,-0.064270153,0,0,0,,,,,,,WALNUT,C,z,m,./images/WALNUT.png,,,,,,,,,,,,,,,,,,,,,z,1,0.7226,,,,,,,,0,80,80,84,1
,,,,,,,,,,,,,,,,,614e2446523bb49af662fb62,29,2022-02-12_12h31.13.016,lexical_decision_task_DD,2021.2.3,Linux x86_64,60.0024001,,,,,,,,,,,0.8389,1,,,,,,,,,,,,,,,,,,,,,,,,0.220043573,-0.064270153,0,0,0,,,,,,,PLANK,HB,m,m,./images/PLANKHB.png,,,,,,,,,,,,,,,,,,,,,m,1,0.8389,,,,,,,,0,81,81,1,1
,,,,,,,,,,,,,,,,,614e2446523bb49af662fb62,29,2022-02-12_12h31.13.016,lexical_decision_task_DD,2021.2.3,Linux x86_64,60.0024001,,,,,,,,,,,0.7059,1,,,,,,,,,,,,,,,,,,,,,,,,0.220043573,-0.064270153,0,0,0,,,,,,,CLOWN,HB,z,m,./images/CLOWNHB.png,,,,,,,,,,,,,,,,,,,,,z,1,0.7059,,,,,,,,0,82,82,106,1
,,,,,,,,,,,,,,,,,614e2446523bb49af662fb62,29,2022-02-12_12h31.13.016,lexical_decision_task_DD,2021.2.3,Linux x86_64,60.0024001,,,,,,,,,,,0.839,1,,,,,,,,,,,,,,,,,,,,,,,,0.220043573,-0.064270153,0,0,0,space,,,,,,MAGGOT,C,m,m,./images/MAGGOT.png,0.9244,,,,,,,,,,,,,,,,,,,,m,1,0.839,,,,,,,,0,83,83,33,1
,,,,,,,,,,,,,,,,,614e2446523bb49af662fb62,29,2022-02-12_12h31.13.016,lexical_decision_task_DD,2021.2.3,Linux x86_64,60.0024001,,,,,,,,,,,0.708,1,,,,,,,,,,,,,,,,,,,,,,,,0.220043573,-0.064270153,0,0,0,,,,,,,PISTOL,LB,z,m,./images/PISTOLLB.png,,,,,,,,,,,,,,,,,,,,,z,1,0.708,,,,,,,,0,84,84,113,1
,,,,,,,,,,,,,,,,,614e2446523bb49af662fb62,29,2022-02-12_12h31.13.016,lexical_decision_task_DD,2021.2.3,Linux x86_64,60.0024001,,,,,,,,,,,0.9059,0,,,,,,,,,,,,,,,,,,,,,,,,0.220043573,-0.064270153,0,0,0,,,,,,,BROOM,C,z,m,./images/BROOM.png,,,,,,,,,,,,,,,,,,,,,m,0,0.9059,,,,,,,,0,85,85,162,1
,,,,,,,,,,,,,,,,,614e2446523bb49af662fb62,29,2022-02-12_12h31.13.016,lexical_decision_task_DD,2021.2.3,Linux x86_64,60.0024001,,,,,,,,,,,0.6117,1,,,,,,,,,,,,,,,,,,,,,,,,0.220043573,-0.064270153,0,0,0,,,,,,,SPINE,LB,z,m,./images/SPINELB.png,,,,,,,,,,,,,,,,,,,,,z,1,0.6117,,,,,,,,0,86,86,149,1
,,,,,,,,,,,,,,,,,614e2446523bb49af662fb62,29,2022-02-12_12h31.13.016,lexical_decision_task_DD,2021.2.3,Linux x86_64,60.0024001,,,,,,,,,,,0.6231,0,,,,,,,,,,,,,,,,,,,,,,,,0.220043573,-0.064270153,0,0,0,,,,,,,CRUMB,LB,m,m,./images/CRUMBLB.png,,,,,,,,,,,,,,,,,,,,,z,0,0.6231,,,,,,,,0,87,87,29,1
,,,,,,,,,,,,,,,,,614e2446523bb49af662fb62,29,2022-02-12_12h31.13.016,lexical_decision_task_DD,2021.2.3,Linux x86_64,60.0024001,,,,,,,,,,,0.7739,0,,,,,,,,,,,,,,,,,,,,,,,,0.220043573,-0.064270153,0,0,0,,,,,,,LITTER,C,m,m,./images/LITTER.png,,,,,,,,,,,,,,,,,,,,,z,0,0.7739,,,,,,,,0,88,88,78,1
,,,,,,,,,,,,,,,,,614e2446523bb49af662fb62,29,2022-02-12_12h31.13.016,lexical_decision_task_DD,2021.2.3,Linux x86_64,60.0024001,,,,,,,,,,,1.5057,0,,,,,,,,,,,,,,,,,,,,,,,,0.220043573,-0.064270153,0,0,0,,,,,,,LADDER,LB,m,m,./images/LADDERLB.png,,,,,,,,,,,,,,,,,,,,,z,0,1.5057,,,,,,,,0,89,89,38,1
,,,,,,,,,,,,,,,,,614e2446523bb49af662fb62,29,2022-02-12_12h31.13.016,lexical_decision_task_DD,2021.2.3,Linux x86_64,60.0024001,,,,,,,,,,,0.8064,1,,,,,,,,,,,,,,,,,,,,,,,,0.220043573,-0.064270153,0,0,0,,,,,,,GRANNY,LB,z,m,./images/GRANNYLB.png,,,,,,,,,,,,,,,,,,,,,z,1,0.8064,,,,,,,,0,90,90,104,1
,,,,,,,,,,,,,,,,,614e2446523bb49af662fb62,29,2022-02-12_12h31.13.016,lexical_decision_task_DD,2021.2.3,Linux x86_64,60.0024001,,,,,,,,,,,0.6889,1,,,,,,,,,,,,,,,,,,,,,,,,0.220043573,-0.064270153,0,0,0,,,,,,,KIDNEY,C,m,m,./images/KIDNEY.png,,,,,,,,,,,,,,,,,,,,,m,1,0.6889,,,,,,,,0,91,91,21,1
,,,,,,,,,,,,,,,,,614e2446523bb49af662fb62,29,2022-02-12_12h31.13.016,lexical_decision_task_DD,2021.2.3,Linux x86_64,60.0024001,,,,,,,,,,,0.7388,0,,,,,,,,,,,,,,,,,,,,,,,,0.220043573,-0.064270153,0,0,0,,,,,,,PAINT,HB,m,m,./images/PAINTHB.png,,,,,,,,,,,,,,,,,,,,,z,0,0.7388,,,,,,,,0,92,92,7,1
,,,,,,,,,,,,,,,,,614e2446523bb49af662fb62,29,2022-02-12_12h31.13.016,lexical_decision_task_DD,2021.2.3,Linux x86_64,60.0024001,,,,,,,,,,,1.9937,1,,,,,,,,,,,,,,,,,,,,,,,,0.220043573,-0.064270153,0,0,0,,,,,,,SAUCE,C,z,m,./images/SAUCE.png,,,,,,,,,,,,,,,,,,,,,z,1,1.9937,,,,,,,,0,93,93,135,1
,,,,,,,,,,,,,,,,,614e2446523bb49af662fb62,29,2022-02-12_12h31.13.016,lexical_decision_task_DD,2021.2.3,Linux x86_64,60.0024001,,,,,,,,,,,0.9271,1,,,,,,,,,,,,,,,,,,,,,,,,0.220043573,-0.064270153,0,0,0,,,,,,,STATUE,C,z,m,./images/STATUE.png,,,,,,,,,,,,,,,,,,,,,z,1,0.9271,,,,,,,,0,94,94,150,1
,,,,,,,,,,,,,,,,,614e2446523bb49af662fb62,29,2022-02-12_12h31.13.016,lexical_decision_task_DD,2021.2.3,Linux x86_64,60.0024001,,,,,,,,,,,0.8398,1,,,,,,,,,,,,,,,,,,,,,,,,0.220043573,-0.064270153,0,0,0,,,,,,,JELLY,HB,m,m,./images/JELLYHB.png,,,,,,,,,,,,,,,,,,,,,m,1,0.8398,,,,,,,,0,95,95,64,1
,,,,,,,,,,,,,,,,,614e2446523bb49af662fb62,29,2022-02-12_12h31.13.016,lexical_decision_task_DD,2021.2.3,Linux x86_64,60.0024001,,,,,,,,,,,0.673,0,,,,,,,,,,,,,,,,,,,,,,,,0.220043573,-0.064270153,0,0,0,,,,,,,FARMER,LB,m,m,./images/FARMERLB.png,,,,,,,,,,,,,,,,,,,,,z,0,0.673,,,,,,,,0,96,96,65,1
,,,,,,,,,,,,,,,,,614e2446523bb49af662fb62,29,2022-02-12_12h31.13.016,lexical_decision_task_DD,2021.2.3,Linux x86_64,60.0024001,,,,,,,,,,,0.8552,0,,,,,,,,,,,,,,,,,,,,,,,,0.220043573,-0.064270153,0,0,0,,,,,,,BAMBOO,LB,z,m,./images/BAMBOOLB.png,,,,,,,,,,,,,,,,,,,,,m,0,0.8552,,,,,,,,0,97,97,89,1
,,,,,,,,,,,,,,,,,614e2446523bb49af662fb62,29,2022-02-12_12h31.13.016,lexical_decision_task_DD,2021.2.3,Linux x86_64,60.0024001,,,,,,,,,,,1.1233,1,,,,,,,,,,,,,,,,,,,,,,,,0.220043573,-0.064270153,0,0,0,,,,,,,WHEEL,LB,z,m,./images/WHEELLB.png,,,,,,,,,,,,,,,,,,,,,z,1,1.1233,,,,,,,,0,98,98,161,1
,,,,,,,,,,,,,,,,,614e2446523bb49af662fb62,29,2022-02-12_12h31.13.016,lexical_decision_task_DD,2021.2.3,Linux x86_64,60.0024001,,,,,,,,,,,0.6719,1,,,,,,,,,,,,,,,,,,,,,,,,0.220043573,-0.064270153,0,0,0,,,,,,,ARTIST,HB,z,m,./images/ARTISTHB.png,,,,,,,,,,,,,,,,,,,,,z,1,0.6719,,,,,,,,0,99,99,145,1
,,,,,,,,,,,,,,,,,614e2446523bb49af662fb62,29,2022-02-12_12h31.13.016,lexical_decision_task_DD,2021.2.3,Linux x86_64,60.0024001,,,,,,,,,,,0.856,1,,,,,,,,,,,,,,,,,,,,,,,,0.220043573,-0.064270153,0,0,0,,,,,,,THROAT,C,m,m,./images/THROAT.png,,,,,,,,,,,,,,,,,,,,,m,1,0.856,,,,,,,,0,100,100,36,1
,,,,,,,,,,,,,,,,,614e2446523bb49af662fb62,29,2022-02-12_12h31.13.016,lexical_decision_task_DD,2021.2.3,Linux x86_64,60.0024001,,,,,,,,,,,0.6894,0,,,,,,,,,,,,,,,,,,,,,,,,0.220043573,-0.064270153,0,0,0,,,,,,,PICKLE,LB,m,m,./images/PICKLELB.png,,,,,,,,,,,,,,,,,,,,,z,0,0.6894,,,,,,,,0,101,101,14,1
,,,,,,,,,,,,,,,,,614e2446523bb49af662fb62,29,2022-02-12_12h31.13.016,lexical_decision_task_DD,2021.2.3,Linux x86_64,60.0024001,,,,,,,,,,,1.0384,1,,,,,,,,,,,,,,,,,,,,,,,,0.220043573,-0.064270153,0,0,0,,,,,,,MOSQUE,HB,m,m,./images/MOSQUEHB.png,,,,,,,,,,,,,,,,,,,,,m,1,1.0384,,,,,,,,0,102,102,43,1
,,,,,,,,,,,,,,,,,614e2446523bb49af662fb62,29,2022-02-12_12h31.13.016,lexical_decision_task_DD,2021.2.3,Linux x86_64,60.0024001,,,,,,,,,,,0.6267,0,,,,,,,,,,,,,,,,,,,,,,,,0.220043573,-0.064270153,0,0,0,,,,,,,FOLDER,C,m,m,./images/FOLDER.png,,,,,,,,,,,,,,,,,,,,,z,0,0.6267,,,,,,,,0,103,103,42,1
,,,,,,,,,,,,,,,,,614e2446523bb49af662fb62,29,2022-02-12_12h31.13.016,lexical_decision_task_DD,2021.2.3,Linux x86_64,60.0024001,,,,,,,,,,,0.956,0,,,,,,,,,,,,,,,,,,,,,,,,0.220043573,-0.064270153,0,0,0,,,,,,,BEARD,LB,m,m,./images/BEARDLB.png,,,,,,,,,,,,,,,,,,,,,z,0,0.956,,,,,,,,0,104,104,2,1
,,,,,,,,,,,,,,,,,614e2446523bb49af662fb62,29,2022-02-12_12h31.13.016,lexical_decision_task_DD,2021.2.3,Linux x86_64,60.0024001,,,,,,,,,,,0.8056,1,,,,,,,,,,,,,,,,,,,,,,,,0.220043573,-0.064270153,0,0,0,,,,,,,BARREL,LB,m,m,./images/BARRELLB.png,,,,,,,,,,,,,,,,,,,,,m,1,0.8056,,,,,,,,0,105,105,32,1
,,,,,,,,,,,,,,,,,614e2446523bb49af662fb62,29,2022-02-12_12h31.13.016,lexical_decision_task_DD,2021.2.3,Linux x86_64,60.0024001,,,,,,,,,,,0.7064,1,,,,,,,,,,,,,,,,,,,,,,,,0.220043573,-0.064270153,0,0,0,,,,,,,FERRY,C,z,m,./images/FERRY.png,,,,,,,,,,,,,,,,,,,,,z,1,0.7064,,,,,,,,0,106,106,141,1
,,,,,,,,,,,,,,,,,614e2446523bb49af662fb62,29,2022-02-12_12h31.13.016,lexical_decision_task_DD,2021.2.3,Linux x86_64,60.0024001,,,,,,,,,,,1.073,1,,,,,,,,,,,,,,,,,,,,,,,,0.220043573,-0.064270153,0,0,0,,,,,,,DRUMS,HB,m,m,./images/DRUMSHB.png,,,,,,,,,,,,,,,,,,,,,m,1,1.073,,,,,,,,0,107,107,49,1
,,,,,,,,,,,,,,,,,614e2446523bb49af662fb62,29,2022-02-12_12h31.13.016,lexical_decision_task_DD,2021.2.3,Linux x86_64,60.0024001,,,,,,,,,,,0.6893,1,,,,,,,,,,,,,,,,,,,,,,,,0.220043573,-0.064270153,0,0,0,,,,,,,PLANET,LB,z,m,./images/PLANETLB.png,,,,,,,,,,,,,,,,,,,,,z,1,0.6893,,,,,,,,0,108,108,164,1
,,,,,,,,,,,,,,,,,614e2446523bb49af662fb62,29,2022-02-12_12h31.13.016,lexical_decision_task_DD,2021.2.3,Linux x86_64,60.0024001,,,,,,,,,,,0.6229,1,,,,,,,,,,,,,,,,,,,,,,,,0.220043573,-0.064270153,0,0,0,,,,,,,ARROW,C,z,m,./images/ARROW.png,,,,,,,,,,,,,,,,,,,,,z,1,0.6229,,,,,,,,0,109,109,153,1
,,,,,,,,,,,,,,,,,614e2446523bb49af662fb62,29,2022-02-12_12h31.13.016,lexical_decision_task_DD,2021.2.3,Linux x86_64,60.0024001,,,,,,,,,,,0.74,1,,,,,,,,,,,,,,,,,,,,,,,,0.220043573,-0.064270153,0,0,0,,,,,,,BANNER,HB,m,m,./images/BANNERHB.png,,,,,,,,,,,,,,,,,,,,,m,1,0.74,,,,,,,,0,110,110,52,1
,,,,,,,,,,,,,,,,,614e2446523bb49af662fb62,29,2022-02-12_12h31.13.016,lexical_decision_task_DD,2021.2.3,Linux x86_64,60.0024001,,,,,,,,,,,0.6754,0,,,,,,,,,,,,,,,,,,,,,,,,0.220043573,-0.064270153,0,0,0,,,,,,,TWINS,C,m,m,./images/TWINS.png,,,,,,,,,,,,,,,,,,,,,z,0,0.6754,,,,,,,,0,111,111,60,1
,,,,,,,,,,,,,,,,,614e2446523bb49af662fb62,29,2022-02-12_12h31.13.016,lexical_decision_task_DD,2021.2.3,Linux x86_64,60.0024001,,,,,,,,,,,0.7239,1,,,,,,,,,,,,,,,,,,,,,,,,0.220043573,-0.064270153,0,0,0,,,,,,,SHIELD,C,z,m,./images/SHIELD.png,,,,,,,,,,,,,,,,,,,,,z,1,0.7239,,,,,,,,0,112,112,132,1
,,,,,,,,,,,,,,,,,614e2446523bb49af662fb62,29,2022-02-12_12h31.13.016,lexical_decision_task_DD,2021.2.3,Linux x86_64,60.0024001,,,,,,,,,,,0.7734,0,,,,,,,,,,,,,,,,,,,,,,,,0.220043573,-0.064270153,0,0,0,,,,,,,FENCE,LB,z,m,./images/FENCELB.png,,,,,,,,,,,,,,,,,,,,,m,0,0.7734,,,,,,,,0,113,113,98,1
,,,,,,,,,,,,,,,,,614e2446523bb49af662fb62,29,2022-02-12_12h31.13.016,lexical_decision_task_DD,2021.2.3,Linux x86_64,60.0024001,,,,,,,,,,,0.8226,1,,,,,,,,,,,,,,,,,,,,,,,,0.220043573,-0.064270153,0,0,0,,,,,,,WALRUS,LB,m,m,./images/WALRUSLB.png,,,,,,,,,,,,,,,,,,,,,m,1,0.8226,,,,,,,,0,114,114,23,1
,,,,,,,,,,,,,,,,,614e2446523bb49af662fb62,29,2022-02-12_12h31.13.016,lexical_decision_task_DD,2021.2.3,Linux x86_64,60.0024001,,,,,,,,,,,0.8233,0,,,,,,,,,,,,,,,,,,,,,,,,0.220043573,-0.064270153,0,0,0,,,,,,,ONION,C,m,m,./images/ONION.png,,,,,,,,,,,,,,,,,,,,,z,0,0.8233,,,,,,,,0,115,115,51,1
,,,,,,,,,,,,,,,,,614e2446523bb49af662fb62,29,2022-02-12_12h31.13.016,lexical_decision_task_DD,2021.2.3,Linux x86_64,60.0024001,,,,,,,,,,,0.6718,1,,,,,,,,,,,,,,,,,,,,,,,,0.220043573,-0.064270153,0,0,0,,,,,,,GRAPE,HB,z,m,./images/GRAPEHB.png,,,,,,,,,,,,,,,,,,,,,z,1,0.6718,,,,,,,,0,116,116,100,1
,,,,,,,,,,,,,,,,,614e2446523bb49af662fb62,29,2022-02-12_12h31.13.016,lexical_decision_task_DD,2021.2.3,Linux x86_64,60.0024001,,,,,,,,,,,0.9415,1,,,,,,,,,,,,,,,,,,,,,,,,0.220043573,-0.064270153,0,0,0,,,,,,,VALLEY,LB,z,m,./images/VALLEYLB.png,,,,,,,,,,,,,,,,,,,,,z,1,0.9415,,,,,,,,0,117,117,152,1
,,,,,,,,,,,,,,,,,614e2446523bb49af662fb62,29,2022-02-12_12h31.13.016,lexical_decision_task_DD,2021.2.3,Linux x86_64,60.0024001,,,,,,,,,,,0.8723,1,,,,,,,,,,,,,,,,,,,,,,,,0.220043573,-0.064270153,0,0,0,,,,,,,QUILL,HB,m,m,./images/QUILLHB.png,,,,,,,,,,,,,,,,,,,,,m,1,0.8723,,,,,,,,0,118,118,31,1
,,,,,,,,,,,,,,,,,614e2446523bb49af662fb62,29,2022-02-12_12h31.13.016,lexical_decision_task_DD,2021.2.3,Linux x86_64,60.0024001,,,,,,,,,,,1.0395,1,,,,,,,,,,,,,,,,,,,,,,,,0.220043573,-0.064270153,0,0,0,,,,,,,COLLAR,C,z,m,./images/COLLAR.png,,,,,,,,,,,,,,,,,,,,,z,1,1.0395,,,,,,,,0,119,119,99,1
,,,,,,,,,,,,,,,,,614e2446523bb49af662fb62,29,2022-02-12_12h31.13.016,lexical_decision_task_DD,2021.2.3,Linux x86_64,60.0024001,,,,,,,,,,,0.6731,1,,,,,,,,,,,,,,,,,,,,,,,,0.220043573,-0.064270153,0,0,0,,,,,,,DIVER,C,z,m,./images/DIVER.png,,,,,,,,,,,,,,,,,,,,,z,1,0.6731,,,,,,,,0,120,120,93,1
,,,,,,,,,,,,,,,,,614e2446523bb49af662fb62,29,2022-02-12_12h31.13.016,lexical_decision_task_DD,2021.2.3,Linux x86_64,60.0024001,,,,,,,,,,,0.7914,0,,,,,,,,,,,,,,,,,,,,,,,,0.220043573,-0.064270153,0,0,0,,,,,,,MAMMAL,LB,z,m,./images/MAMMALLB.png,,,,,,,,,,,,,,,,,,,,,m,0,0.7914,,,,,,,,0,121,121,146,1
,,,,,,,,,,,,,,,,,614e2446523bb49af662fb62,29,2022-02-12_12h31.13.016,lexical_decision_task_DD,2021.2.3,Linux x86_64,60.0024001,,,,,,,,,,,0.6943,1,,,,,,,,,,,,,,,,,,,,,,,,0.220043573,-0.064270153,0,0,0,,,,,,,STREAM,LB,z,m,./images/STREAMLB.png,,,,,,,,,,,,,,,,,,,,,z,1,0.6943,,,,,,,,0,122,122,125,1
,,,,,,,,,,,,,,,,,614e2446523bb49af662fb62,29,2022-02-12_12h31.13.016,lexical_decision_task_DD,2021.2.3,Linux x86_64,60.0024001,,,,,,,,,,,0.9568,0,,,,,,,,,,,,,,,,,,,,,,,,0.220043573,-0.064270153,0,0,0,,,,,,,TIGER,HB,z,m,./images/TIGERHB.png,,,,,,,,,,,,,,,,,,,,,m,0,0.9568,,,,,,,,0,123,123,121,1
,,,,,,,,,,,,,,,,,614e2446523bb49af662fb62,29,2022-02-12_12h31.13.016,lexical_decision_task_DD,2021.2.3,Linux x86_64,60.0024001,,,,,,,,,,,0.6244,1,,,,,,,,,,,,,,,,,,,,,,,,0.220043573,-0.064270153,0,0,0,,,,,,,GARDEN,HB,z,m,./images/GARDENHB.png,,,,,,,,,,,,,,,,,,,,,z,1,0.6244,,,,,,,,0,124,124,94,1
,,,,,,,,,,,,,,,,,614e2446523bb49af662fb62,29,2022-02-12_12h31.13.016,lexical_decision_task_DD,2021.2.3,Linux x86_64,60.0024001,,,,,,,,,,,0.7398,1,,,,,,,,,,,,,,,,,,,,,,,,0.220043573,-0.064270153,0,0,0,space,,,,,,BUNNY,HB,z,m,./images/BUNNYHB.png,0.8063,,,,,,,,,,,,,,,,,,,,z,1,0.7398,,,,,,,,0,125,125,97,1
,,,,,,,,,,,,,,,,,614e2446523bb49af662fb62,29,2022-02-12_12h31.13.016,lexical_decision_task_DD,2021.2.3,Linux x86_64,60.0024001,,,,,,,,,,,0.6774,1,,,,,,,,,,,,,,,,,,,,,,,,0.220043573,-0.064270153,0,0,0,,,,,,,SLOPE,C,z,m,./images/SLOPE.png,,,,,,,,,,,,,,,,,,,,,z,1,0.6774,,,,,,,,0,126,126,114,1
,,,,,,,,,,,,,,,,,614e2446523bb49af662fb62,29,2022-02-12_12h31.13.016,lexical_decision_task_DD,2021.2.3,Linux x86_64,60.0024001,,,,,,,,,,,0.8563,0,,,,,,,,,,,,,,,,,,,,,,,,0.220043573,-0.064270153,0,0,0,,,,,,,DRILL,C,z,m,./images/DRILL.png,,,,,,,,,,,,,,,,,,,,,m,0,0.8563,,,,,,,,0,127,127,165,1
,,,,,,,,,,,,,,,,,614e2446523bb49af662fb62,29,2022-02-12_12h31.13.016,lexical_decision_task_DD,2021.2.3,Linux x86_64,60.0024001,,,,,,,,,,,0.5561,1,,,,,,,,,,,,,,,,,,,,,,,,0.220043573,-0.064270153,0,0,0,,,,,,,CLOUD,LB,z,m,./images/CLOUDLB.png,,,,,,,,,,,,,,,,,,,,,z,1,0.5561,,,,,,,,0,128,128,110,1
