key_resp.keys,key_resp.rt,instr_done_touch.x,instr_done_touch.y,instr_done_touch.leftButton,instr_done_touch.midButton,instr_done_touch.rightButton,instruction_pages.thisRepN,instruction_pages.thisTrialN,instruction_pages.thisN,instruction_pages.thisIndex,instruction_pages.ran,pageN,phase,instruct_text,has_image,instruct_image,participant,age,date,expName,psychopyVersion,OS,frameRate,response.keys,response.corr,response.rt,touch_resp.x,touch_resp.y,touch_resp.leftButton,touch_resp.midButton,touch_resp.rightButton,touch_resp.time,touch_resp.clicked_name,rt,corr,practrials.thisRepN,practrials.thisTrialN,practrials.thisN,practrials.thisIndex,practrials.ran,TrialID,Target,corrAns,end_of_practice_trials_pages.thisRepN,end_of_practice_trials_pages.thisTrialN,end_of_practice_trials_pages.thisN,end_of_practice_trials_pages.thisIndex,end_of_practice_trials_pages.ran,key_resp_2.keys,key_resp_2.corr,key_resp_2.rt,targ_click.x,targ_click.y,targ_click.leftButton,targ_click.midButton,targ_click.rightButton,targ_click.time,targ_click.clicked_name,break_done_touch.x,break_done_touch.y,break_done_touch.leftButton,break_done_touch.midButton,break_done_touch.rightButton,break_done_keyboard.keys,maintrials.thisRepN,maintrials.thisTrialN,maintrials.thisN,maintrials.thisIndex,maintrials.ran,string,blur,study,lex,stim_path,break_done_keyboard.rt,mouse_2.x,mouse_2.y,mouse_2.leftButton,mouse_2.midButton,mouse_2.rightButton,mouse_2.clicked_name,slider.response,slider.rt,trials.thisRepN,trials.thisTrialN,trials.thisN,trials.thisIndex,trials.ran,test_instructions.thisRepN,test_instructions.thisTrialN,test_instructions.thisN,test_instructions.thisIndex,test_instructions.ran,instr_done_touch.clicked_name,key_resp_3.keys,key_resp_3.corr,key_resp_3.rt,test_click.x,test_click.y,test_click.leftButton,test_click.midButton,test_click.rightButton,test_click.time,test_click.clicked_name,test_phase.thisRepN,test_phase.thisTrialN,test_phase.thisN,test_phase.thisIndex,test_phase.ran
space,20.0068,0.514322917,-0.10546875,0,0,0,0,0,0,0,1,1,instructions,"INSTRUCTIONS
At the start of each trial, look at the plus sign  (+) in the center of the screen.  This tells you that a trial is about to begin and where to look. Second, the plus sign will disappear and a string of letters will appear. Your task is to determine if the string of letters is a word or not. If the item is a word press the M key (on keyboard)  or touch the word button (phone/tablet).  If the item is not a word,  press the  Z key (on keyboard)  or touch the nonword button (on phone/tablet). 
Press the space bar or touch  continue.",0,,5bea65135b7ff700013c946c,51,2022-02-12_17h56.16.751,lexical_decision_task_DD_L3,2021.2.3,Win32,59.97720866,,,,,,,,,,,,,,,,,,,,,,,,,,,,,,,,,,,,,,,,,,,,,,,,,,,,,,,,,,,,,,,,,,,,,,,,,,,,,,,,,,,,,,
space,5.1801,0.514322917,-0.10546875,0,0,0,0,1,1,1,1,2,instructions,"If your device has a keyboard, press the 'Z' key for nonwords and the 'M' key for words.





Press the space bar or touch the button below to continue.",0,keyboard-example.gif,5bea65135b7ff700013c946c,51,2022-02-12_17h56.16.751,lexical_decision_task_DD_L3,2021.2.3,Win32,59.97720866,,,,,,,,,,,,,,,,,,,,,,,,,,,,,,,,,,,,,,,,,,,,,,,,,,,,,,,,,,,,,,,,,,,,,,,,,,,,,,,,,,,,,,
space,1.775,0.514322917,-0.10546875,0,0,0,0,2,2,2,1,3,instructions,"If you are using a touchscreen only device, use the buttons on the screen. Do not use the mouse.





Press the space bar or touch the button below to continue.",0,touchscreen-example.gif,5bea65135b7ff700013c946c,51,2022-02-12_17h56.16.751,lexical_decision_task_DD_L3,2021.2.3,Win32,59.97720866,,,,,,,,,,,,,,,,,,,,,,,,,,,,,,,,,,,,,,,,,,,,,,,,,,,,,,,,,,,,,,,,,,,,,,,,,,,,,,,,,,,,,,
space,9.9781,0.514322917,-0.10546875,0,0,0,0,3,3,3,1,4,instructions,"It is very important that you respond as quickly and accurately as possible, as each letter string will only be on the screen for two seconds. If you do not respond within this time, the message 'Too slow!' will be displayed and the experiment will progress to the next letter string. The first 20 trials will be practice trials and you will receive feedback on your answers. 

Press the space bar or touch the button below to start the practice trials.",0,,5bea65135b7ff700013c946c,51,2022-02-12_17h56.16.751,lexical_decision_task_DD_L3,2021.2.3,Win32,59.97720866,,,,,,,,,,,,,,,,,,,,,,,,,,,,,,,,,,,,,,,,,,,,,,,,,,,,,,,,,,,,,,,,,,,,,,,,,,,,,,,,,,,,,,
,,,,,,,,,,,,,,,,,5bea65135b7ff700013c946c,51,2022-02-12_17h56.16.751,lexical_decision_task_DD_L3,2021.2.3,Win32,59.97720866,z,1,1.118,,,,,,,,1.118,1,0,0,0,10,1,1001,INLADE,z,,,,,,,,,,,,,,,,,,,,,,,,,,,,,,,,,,,,,,,,,,,,,,,,,,,,,,,,,,,,,,,,,,
,,,,,,,,,,,,,,,,,5bea65135b7ff700013c946c,51,2022-02-12_17h56.16.751,lexical_decision_task_DD_L3,2021.2.3,Win32,59.97720866,z,1,0.6336,,,,,,,,0.6336,1,0,1,1,14,1,1001,THRALE,z,,,,,,,,,,,,,,,,,,,,,,,,,,,,,,,,,,,,,,,,,,,,,,,,,,,,,,,,,,,,,,,,,,
,,,,,,,,,,,,,,,,,5bea65135b7ff700013c946c,51,2022-02-12_17h56.16.751,lexical_decision_task_DD_L3,2021.2.3,Win32,59.97720866,m,1,0.8018,,,,,,,,0.8018,1,0,2,2,5,1,1001,OBTAIN,m,,,,,,,,,,,,,,,,,,,,,,,,,,,,,,,,,,,,,,,,,,,,,,,,,,,,,,,,,,,,,,,,,,
,,,,,,,,,,,,,,,,,5bea65135b7ff700013c946c,51,2022-02-12_17h56.16.751,lexical_decision_task_DD_L3,2021.2.3,Win32,59.97720866,m,1,0.5939,,,,,,,,0.5939,1,0,3,3,7,1,1001,VOLUME,m,,,,,,,,,,,,,,,,,,,,,,,,,,,,,,,,,,,,,,,,,,,,,,,,,,,,,,,,,,,,,,,,,,
,,,,,,,,,,,,,,,,,5bea65135b7ff700013c946c,51,2022-02-12_17h56.16.751,lexical_decision_task_DD_L3,2021.2.3,Win32,59.97720866,z,0,0.6829,,,,,,,,0.6829,0,0,4,4,6,1,1001,ZOMBIE,m,,,,,,,,,,,,,,,,,,,,,,,,,,,,,,,,,,,,,,,,,,,,,,,,,,,,,,,,,,,,,,,,,,
,,,,,,,,,,,,,,,,,5bea65135b7ff700013c946c,51,2022-02-12_17h56.16.751,lexical_decision_task_DD_L3,2021.2.3,Win32,59.97720866,m,1,0.6374,,,,,,,,0.6374,1,0,5,5,1,1,1001,ADJUST,m,,,,,,,,,,,,,,,,,,,,,,,,,,,,,,,,,,,,,,,,,,,,,,,,,,,,,,,,,,,,,,,,,,
,,,,,,,,,,,,,,,,,5bea65135b7ff700013c946c,51,2022-02-12_17h56.16.751,lexical_decision_task_DD_L3,2021.2.3,Win32,59.97720866,m,1,0.7062,,,,,,,,0.7062,1,0,6,6,4,1,1001,SQUEAK,m,,,,,,,,,,,,,,,,,,,,,,,,,,,,,,,,,,,,,,,,,,,,,,,,,,,,,,,,,,,,,,,,,,
,,,,,,,,,,,,,,,,,5bea65135b7ff700013c946c,51,2022-02-12_17h56.16.751,lexical_decision_task_DD_L3,2021.2.3,Win32,59.97720866,z,1,0.6716,,,,,,,,0.6716,1,0,7,7,11,1,1001,RASHET,z,,,,,,,,,,,,,,,,,,,,,,,,,,,,,,,,,,,,,,,,,,,,,,,,,,,,,,,,,,,,,,,,,,
,,,,,,,,,,,,,,,,,5bea65135b7ff700013c946c,51,2022-02-12_17h56.16.751,lexical_decision_task_DD_L3,2021.2.3,Win32,59.97720866,m,1,0.6676,,,,,,,,0.6676,1,0,8,8,2,1,1001,ALMOND,m,,,,,,,,,,,,,,,,,,,,,,,,,,,,,,,,,,,,,,,,,,,,,,,,,,,,,,,,,,,,,,,,,,
,,,,,,,,,,,,,,,,,5bea65135b7ff700013c946c,51,2022-02-12_17h56.16.751,lexical_decision_task_DD_L3,2021.2.3,Win32,59.97720866,m,1,0.6367,,,,,,,,0.6367,1,0,9,9,0,1,1001,UTOPIA,m,,,,,,,,,,,,,,,,,,,,,,,,,,,,,,,,,,,,,,,,,,,,,,,,,,,,,,,,,,,,,,,,,,
,,,,,,,,,,,,,,,,,5bea65135b7ff700013c946c,51,2022-02-12_17h56.16.751,lexical_decision_task_DD_L3,2021.2.3,Win32,59.97720866,z,1,0.7742,,,,,,,,0.7742,1,0,10,10,15,1,1001,WHAISE,z,,,,,,,,,,,,,,,,,,,,,,,,,,,,,,,,,,,,,,,,,,,,,,,,,,,,,,,,,,,,,,,,,,
,,,,,,,,,,,,,,,,,5bea65135b7ff700013c946c,51,2022-02-12_17h56.16.751,lexical_decision_task_DD_L3,2021.2.3,Win32,59.97720866,z,1,0.8017,,,,,,,,0.8017,1,0,11,11,9,1,1001,FARINY,z,,,,,,,,,,,,,,,,,,,,,,,,,,,,,,,,,,,,,,,,,,,,,,,,,,,,,,,,,,,,,,,,,,
,,,,,,,,,,,,,,,,,5bea65135b7ff700013c946c,51,2022-02-12_17h56.16.751,lexical_decision_task_DD_L3,2021.2.3,Win32,59.97720866,z,1,0.751,,,,,,,,0.751,1,0,12,12,8,1,1001,ASLERT,z,,,,,,,,,,,,,,,,,,,,,,,,,,,,,,,,,,,,,,,,,,,,,,,,,,,,,,,,,,,,,,,,,,
,,,,,,,,,,,,,,,,,5bea65135b7ff700013c946c,51,2022-02-12_17h56.16.751,lexical_decision_task_DD_L3,2021.2.3,Win32,59.97720866,m,1,0.602,,,,,,,,0.602,1,0,13,13,3,1,1001,MATRIX,m,,,,,,,,,,,,,,,,,,,,,,,,,,,,,,,,,,,,,,,,,,,,,,,,,,,,,,,,,,,,,,,,,,
,,,,,,,,,,,,,,,,,5bea65135b7ff700013c946c,51,2022-02-12_17h56.16.751,lexical_decision_task_DD_L3,2021.2.3,Win32,59.97720866,z,1,0.7395,,,,,,,,0.7395,1,0,14,14,12,1,1001,SPRINY,z,,,,,,,,,,,,,,,,,,,,,,,,,,,,,,,,,,,,,,,,,,,,,,,,,,,,,,,,,,,,,,,,,,
,,,,,,,,,,,,,,,,,5bea65135b7ff700013c946c,51,2022-02-12_17h56.16.751,lexical_decision_task_DD_L3,2021.2.3,Win32,59.97720866,z,1,0.6188,,,,,,,,0.6188,1,0,15,15,13,1,1001,ROUPET,z,,,,,,,,,,,,,,,,,,,,,,,,,,,,,,,,,,,,,,,,,,,,,,,,,,,,,,,,,,,,,,,,,,
space,5.7025,0.514322917,-0.10546875,0,0,0,,,,,,1,end_of_practice,"You have completed the practice trials. During the experimental trials, you will not receive feedback. 
Before you begin, please ensure that you are in a comfortable and quiet location and will not be disturbed for about 15 minutes, as we cannot use your data if you do not complete all the trials. 
 When you are ready to start the experimental trials, please press space or touch the button below.",,,5bea65135b7ff700013c946c,51,2022-02-12_17h56.16.751,lexical_decision_task_DD_L3,2021.2.3,Win32,59.97720866,,,,,,,,,,,,,,,,,,,,,0,0,0,0,1,,,,,,,,,,,,,,,,,,,,,,,,,,,,,,,,,,,,,,,,,,,,,,,,,,,,,,,,,,,,,
,,,,,,,,,,,,,,,,,5bea65135b7ff700013c946c,51,2022-02-12_17h56.16.751,lexical_decision_task_DD_L3,2021.2.3,Win32,59.97720866,,,,,,,,,,,0.6976,1,,,,,,,,,,,,,,m,1,0.6976,,,,,,,,0.514322917,-0.10546875,0,0,0,,0,0,0,40,1,SWING,C,old,m,./images/SWING.png,,,,,,,,,,,,,,,,,,,,,,,,,,,,,,,,,,,
,,,,,,,,,,,,,,,,,5bea65135b7ff700013c946c,51,2022-02-12_17h56.16.751,lexical_decision_task_DD_L3,2021.2.3,Win32,59.97720866,,,,,,,,,,,0.759,1,,,,,,,,,,,,,,z,1,0.759,,,,,,,,0.514322917,-0.10546875,0,0,0,,0,1,1,136,1,WERVE,HB,old,z,./images/WERVEHB.png,,,,,,,,,,,,,,,,,,,,,,,,,,,,,,,,,,,
,,,,,,,,,,,,,,,,,5bea65135b7ff700013c946c,51,2022-02-12_17h56.16.751,lexical_decision_task_DD_L3,2021.2.3,Win32,59.97720866,,,,,,,,,,,0.8241,1,,,,,,,,,,,,,,z,1,0.8241,,,,,,,,0.514322917,-0.10546875,0,0,0,,0,2,2,93,1,SMONE,C,old,z,./images/SMONE.png,,,,,,,,,,,,,,,,,,,,,,,,,,,,,,,,,,,
,,,,,,,,,,,,,,,,,5bea65135b7ff700013c946c,51,2022-02-12_17h56.16.751,lexical_decision_task_DD_L3,2021.2.3,Win32,59.97720866,,,,,,,,,,,0.8558,1,,,,,,,,,,,,,,z,1,0.8558,,,,,,,,0.514322917,-0.10546875,0,0,0,,0,3,3,113,1,LINEW,LB,old,z,./images/LINEWLB.png,,,,,,,,,,,,,,,,,,,,,,,,,,,,,,,,,,,
,,,,,,,,,,,,,,,,,5bea65135b7ff700013c946c,51,2022-02-12_17h56.16.751,lexical_decision_task_DD_L3,2021.2.3,Win32,59.97720866,,,,,,,,,,,0.8056,1,,,,,,,,,,,,,,m,1,0.8056,,,,,,,,0.514322917,-0.10546875,0,0,0,,0,4,4,60,1,TWINS,LB,old,m,./images/TWINSLB.png,,,,,,,,,,,,,,,,,,,,,,,,,,,,,,,,,,,
,,,,,,,,,,,,,,,,,5bea65135b7ff700013c946c,51,2022-02-12_17h56.16.751,lexical_decision_task_DD_L3,2021.2.3,Win32,59.97720866,,,,,,,,,,,0.8674,1,,,,,,,,,,,,,,m,1,0.8674,,,,,,,,0.514322917,-0.10546875,0,0,0,,0,5,5,30,1,STORM,LB,old,m,./images/STORMLB.png,,,,,,,,,,,,,,,,,,,,,,,,,,,,,,,,,,,
,,,,,,,,,,,,,,,,,5bea65135b7ff700013c946c,51,2022-02-12_17h56.16.751,lexical_decision_task_DD_L3,2021.2.3,Win32,59.97720866,,,,,,,,,,,0.7559,1,,,,,,,,,,,,,,z,1,0.7559,,,,,,,,0.514322917,-0.10546875,0,0,0,,0,6,6,90,1,NEAST,C,old,z,./images/NEAST.png,,,,,,,,,,,,,,,,,,,,,,,,,,,,,,,,,,,
,,,,,,,,,,,,,,,,,5bea65135b7ff700013c946c,51,2022-02-12_17h56.16.751,lexical_decision_task_DD_L3,2021.2.3,Win32,59.97720866,,,,,,,,,,,0.7488,1,,,,,,,,,,,,,,z,1,0.7488,,,,,,,,0.514322917,-0.10546875,0,0,0,,0,7,7,111,1,HOSSE,C,old,z,./images/HOSSE.png,,,,,,,,,,,,,,,,,,,,,,,,,,,,,,,,,,,
,,,,,,,,,,,,,,,,,5bea65135b7ff700013c946c,51,2022-02-12_17h56.16.751,lexical_decision_task_DD_L3,2021.2.3,Win32,59.97720866,,,,,,,,,,,1.0053,1,,,,,,,,,,,,,,m,1,1.0053,,,,,,,,0.514322917,-0.10546875,0,0,0,,0,8,8,23,1,WALRUS,HB,old,m,./images/WALRUSHB.png,,,,,,,,,,,,,,,,,,,,,,,,,,,,,,,,,,,
,,,,,,,,,,,,,,,,,5bea65135b7ff700013c946c,51,2022-02-12_17h56.16.751,lexical_decision_task_DD_L3,2021.2.3,Win32,59.97720866,,,,,,,,,,,0.7686,1,,,,,,,,,,,,,,m,1,0.7686,,,,,,,,0.514322917,-0.10546875,0,0,0,,0,9,9,33,1,MAGGOT,LB,old,m,./images/MAGGOTLB.png,,,,,,,,,,,,,,,,,,,,,,,,,,,,,,,,,,,
,,,,,,,,,,,,,,,,,5bea65135b7ff700013c946c,51,2022-02-12_17h56.16.751,lexical_decision_task_DD_L3,2021.2.3,Win32,59.97720866,,,,,,,,,,,0.7234,1,,,,,,,,,,,,,,m,1,0.7234,,,,,,,,0.514322917,-0.10546875,0,0,0,,0,10,10,52,1,BANNER,C,old,m,./images/BANNER.png,,,,,,,,,,,,,,,,,,,,,,,,,,,,,,,,,,,
,,,,,,,,,,,,,,,,,5bea65135b7ff700013c946c,51,2022-02-12_17h56.16.751,lexical_decision_task_DD_L3,2021.2.3,Win32,59.97720866,,,,,,,,,,,0.6732,1,,,,,,,,,,,,,,m,1,0.6732,,,,,,,,0.514322917,-0.10546875,0,0,0,,0,11,11,34,1,CANYON,C,old,m,./images/CANYON.png,,,,,,,,,,,,,,,,,,,,,,,,,,,,,,,,,,,
,,,,,,,,,,,,,,,,,5bea65135b7ff700013c946c,51,2022-02-12_17h56.16.751,lexical_decision_task_DD_L3,2021.2.3,Win32,59.97720866,,,,,,,,,,,0.5905,1,,,,,,,,,,,,,,m,1,0.5905,,,,,,,,0.514322917,-0.10546875,0,0,0,,0,12,12,36,1,THROAT,LB,old,m,./images/THROATLB.png,,,,,,,,,,,,,,,,,,,,,,,,,,,,,,,,,,,
,,,,,,,,,,,,,,,,,5bea65135b7ff700013c946c,51,2022-02-12_17h56.16.751,lexical_decision_task_DD_L3,2021.2.3,Win32,59.97720866,,,,,,,,,,,0.9346,1,,,,,,,,,,,,,,z,1,0.9346,,,,,,,,0.514322917,-0.10546875,0,0,0,,0,13,13,160,1,VEETS,HB,old,z,./images/VEETSHB.png,,,,,,,,,,,,,,,,,,,,,,,,,,,,,,,,,,,
,,,,,,,,,,,,,,,,,5bea65135b7ff700013c946c,51,2022-02-12_17h56.16.751,lexical_decision_task_DD_L3,2021.2.3,Win32,59.97720866,,,,,,,,,,,0.8665,1,,,,,,,,,,,,,,m,1,0.8665,,,,,,,,0.514322917,-0.10546875,0,0,0,,0,14,14,74,1,CEMENT,HB,old,m,./images/CEMENTHB.png,,,,,,,,,,,,,,,,,,,,,,,,,,,,,,,,,,,
,,,,,,,,,,,,,,,,,5bea65135b7ff700013c946c,51,2022-02-12_17h56.16.751,lexical_decision_task_DD_L3,2021.2.3,Win32,59.97720866,,,,,,,,,,,0.7684,1,,,,,,,,,,,,,,m,1,0.7684,,,,,,,,0.514322917,-0.10546875,0,0,0,,0,15,15,6,1,SQUARE,LB,old,m,./images/SQUARELB.png,,,,,,,,,,,,,,,,,,,,,,,,,,,,,,,,,,,
,,,,,,,,,,,,,,,,,5bea65135b7ff700013c946c,51,2022-02-12_17h56.16.751,lexical_decision_task_DD_L3,2021.2.3,Win32,59.97720866,,,,,,,,,,,0.7401,1,,,,,,,,,,,,,,m,1,0.7401,,,,,,,,0.514322917,-0.10546875,0,0,0,,0,16,16,79,1,CRUST,C,old,m,./images/CRUST.png,,,,,,,,,,,,,,,,,,,,,,,,,,,,,,,,,,,
,,,,,,,,,,,,,,,,,5bea65135b7ff700013c946c,51,2022-02-12_17h56.16.751,lexical_decision_task_DD_L3,2021.2.3,Win32,59.97720866,,,,,,,,,,,0.6813,1,,,,,,,,,,,,,,z,1,0.6813,,,,,,,,0.514322917,-0.10546875,0,0,0,,0,17,17,149,1,VEASE,LB,old,z,./images/VEASELB.png,,,,,,,,,,,,,,,,,,,,,,,,,,,,,,,,,,,
,,,,,,,,,,,,,,,,,5bea65135b7ff700013c946c,51,2022-02-12_17h56.16.751,lexical_decision_task_DD_L3,2021.2.3,Win32,59.97720866,,,,,,,,,,,0.7024,1,,,,,,,,,,,,,,z,1,0.7024,,,,,,,,0.514322917,-0.10546875,0,0,0,,0,18,18,126,1,GUELS,C,old,z,./images/GUELS.png,,,,,,,,,,,,,,,,,,,,,,,,,,,,,,,,,,,
,,,,,,,,,,,,,,,,,5bea65135b7ff700013c946c,51,2022-02-12_17h56.16.751,lexical_decision_task_DD_L3,2021.2.3,Win32,59.97720866,,,,,,,,,,,0.573,1,,,,,,,,,,,,,,z,1,0.573,,,,,,,,0.514322917,-0.10546875,0,0,0,,0,19,19,86,1,AIFED,LB,old,z,./images/AIFEDLB.png,,,,,,,,,,,,,,,,,,,,,,,,,,,,,,,,,,,
,,,,,,,,,,,,,,,,,5bea65135b7ff700013c946c,51,2022-02-12_17h56.16.751,lexical_decision_task_DD_L3,2021.2.3,Win32,59.97720866,,,,,,,,,,,0.6916,1,,,,,,,,,,,,,,m,1,0.6916,,,,,,,,0.514322917,-0.10546875,0,0,0,,0,20,20,43,1,MOSQUE,C,old,m,./images/MOSQUE.png,,,,,,,,,,,,,,,,,,,,,,,,,,,,,,,,,,,
,,,,,,,,,,,,,,,,,5bea65135b7ff700013c946c,51,2022-02-12_17h56.16.751,lexical_decision_task_DD_L3,2021.2.3,Win32,59.97720866,,,,,,,,,,,0.9229,1,,,,,,,,,,,,,,m,1,0.9229,,,,,,,,0.514322917,-0.10546875,0,0,0,,0,21,21,17,1,SKIING,HB,old,m,./images/SKIINGHB.png,,,,,,,,,,,,,,,,,,,,,,,,,,,,,,,,,,,
,,,,,,,,,,,,,,,,,5bea65135b7ff700013c946c,51,2022-02-12_17h56.16.751,lexical_decision_task_DD_L3,2021.2.3,Win32,59.97720866,,,,,,,,,,,0.771,1,,,,,,,,,,,,,,m,1,0.771,,,,,,,,0.514322917,-0.10546875,0,0,0,,0,22,22,75,1,GRAIN,LB,old,m,./images/GRAINLB.png,,,,,,,,,,,,,,,,,,,,,,,,,,,,,,,,,,,
,,,,,,,,,,,,,,,,,5bea65135b7ff700013c946c,51,2022-02-12_17h56.16.751,lexical_decision_task_DD_L3,2021.2.3,Win32,59.97720866,,,,,,,,,,,0.7382,1,,,,,,,,,,,,,,z,1,0.7382,,,,,,,,0.514322917,-0.10546875,0,0,0,,0,23,23,128,1,GRIFT,LB,old,z,./images/GRIFTLB.png,,,,,,,,,,,,,,,,,,,,,,,,,,,,,,,,,,,
,,,,,,,,,,,,,,,,,5bea65135b7ff700013c946c,51,2022-02-12_17h56.16.751,lexical_decision_task_DD_L3,2021.2.3,Win32,59.97720866,,,,,,,,,,,0.7785,1,,,,,,,,,,,,,,m,1,0.7785,,,,,,,,0.514322917,-0.10546875,0,0,0,,0,24,24,72,1,NOOSE,LB,old,m,./images/NOOSELB.png,,,,,,,,,,,,,,,,,,,,,,,,,,,,,,,,,,,
,,,,,,,,,,,,,,,,,5bea65135b7ff700013c946c,51,2022-02-12_17h56.16.751,lexical_decision_task_DD_L3,2021.2.3,Win32,59.97720866,,,,,,,,,,,0.8079,1,,,,,,,,,,,,,,z,1,0.8079,,,,,,,,0.514322917,-0.10546875,0,0,0,,0,25,25,116,1,BALGY,LB,old,z,./images/BALGYLB.png,,,,,,,,,,,,,,,,,,,,,,,,,,,,,,,,,,,
,,,,,,,,,,,,,,,,,5bea65135b7ff700013c946c,51,2022-02-12_17h56.16.751,lexical_decision_task_DD_L3,2021.2.3,Win32,59.97720866,,,,,,,,,,,1.025,1,,,,,,,,,,,,,,z,1,1.025,,,,,,,,0.514322917,-0.10546875,0,0,0,,0,26,26,145,1,LAMEL,HB,old,z,./images/LAMELHB.png,,,,,,,,,,,,,,,,,,,,,,,,,,,,,,,,,,,
,,,,,,,,,,,,,,,,,5bea65135b7ff700013c946c,51,2022-02-12_17h56.16.751,lexical_decision_task_DD_L3,2021.2.3,Win32,59.97720866,,,,,,,,,,,0.7357,1,,,,,,,,,,,,,,z,1,0.7357,,,,,,,,0.514322917,-0.10546875,0,0,0,,0,27,27,102,1,DULLE,C,old,z,./images/DULLE.png,,,,,,,,,,,,,,,,,,,,,,,,,,,,,,,,,,,
,,,,,,,,,,,,,,,,,5bea65135b7ff700013c946c,51,2022-02-12_17h56.16.751,lexical_decision_task_DD_L3,2021.2.3,Win32,59.97720866,,,,,,,,,,,1.339,0,,,,,,,,,,,,,,m,0,1.339,,,,,,,,0.514322917,-0.10546875,0,0,0,,0,28,28,94,1,BLANS,HB,old,z,./images/BLANSHB.png,,,,,,,,,,,,,,,,,,,,,,,,,,,,,,,,,,,
,,,,,,,,,,,,,,,,,5bea65135b7ff700013c946c,51,2022-02-12_17h56.16.751,lexical_decision_task_DD_L3,2021.2.3,Win32,59.97720866,,,,,,,,,,,0.8398,1,,,,,,,,,,,,,,m,1,0.8398,,,,,,,,0.514322917,-0.10546875,0,0,0,,0,29,29,42,1,FOLDER,LB,old,m,./images/FOLDERLB.png,,,,,,,,,,,,,,,,,,,,,,,,,,,,,,,,,,,
,,,,,,,,,,,,,,,,,5bea65135b7ff700013c946c,51,2022-02-12_17h56.16.751,lexical_decision_task_DD_L3,2021.2.3,Win32,59.97720866,,,,,,,,,,,0.8296,1,,,,,,,,,,,,,,m,1,0.8296,,,,,,,,0.514322917,-0.10546875,0,0,0,,0,30,30,59,1,BURIAL,HB,old,m,./images/BURIALHB.png,,,,,,,,,,,,,,,,,,,,,,,,,,,,,,,,,,,
,,,,,,,,,,,,,,,,,5bea65135b7ff700013c946c,51,2022-02-12_17h56.16.751,lexical_decision_task_DD_L3,2021.2.3,Win32,59.97720866,,,,,,,,,,,0.666,1,,,,,,,,,,,,,,m,1,0.666,,,,,,,,0.514322917,-0.10546875,0,0,0,,0,31,31,37,1,BIRTH,C,old,m,./images/BIRTH.png,,,,,,,,,,,,,,,,,,,,,,,,,,,,,,,,,,,
,,,,,,,,,,,,,,,,,5bea65135b7ff700013c946c,51,2022-02-12_17h56.16.751,lexical_decision_task_DD_L3,2021.2.3,Win32,59.97720866,,,,,,,,,,,0.7411,1,,,,,,,,,,,,,,z,1,0.7411,,,,,,,,0.514322917,-0.10546875,0,0,0,,0,32,32,164,1,SGREW,LB,old,z,./images/SGREWLB.png,,,,,,,,,,,,,,,,,,,,,,,,,,,,,,,,,,,
,,,,,,,,,,,,,,,,,5bea65135b7ff700013c946c,51,2022-02-12_17h56.16.751,lexical_decision_task_DD_L3,2021.2.3,Win32,59.97720866,,,,,,,,,,,0.6972,1,,,,,,,,,,,,,,z,1,0.6972,,,,,,,,0.514322917,-0.10546875,0,0,0,,0,33,33,150,1,NOOLS,C,old,z,./images/NOOLS.png,,,,,,,,,,,,,,,,,,,,,,,,,,,,,,,,,,,
,,,,,,,,,,,,,,,,,5bea65135b7ff700013c946c,51,2022-02-12_17h56.16.751,lexical_decision_task_DD_L3,2021.2.3,Win32,59.97720866,,,,,,,,,,,1.11,1,,,,,,,,,,,,,,z,1,1.11,,,,,,,,0.514322917,-0.10546875,0,0,0,,0,34,34,157,1,INLER,HB,old,z,./images/INLERHB.png,,,,,,,,,,,,,,,,,,,,,,,,,,,,,,,,,,,
,,,,,,,,,,,,,,,,,5bea65135b7ff700013c946c,51,2022-02-12_17h56.16.751,lexical_decision_task_DD_L3,2021.2.3,Win32,59.97720866,,,,,,,,,,,0.7363,1,,,,,,,,,,,,,,z,1,0.7363,,,,,,,,0.514322917,-0.10546875,0,0,0,,0,35,35,120,1,RINED,C,old,z,./images/RINED.png,,,,,,,,,,,,,,,,,,,,,,,,,,,,,,,,,,,
,,,,,,,,,,,,,,,,,5bea65135b7ff700013c946c,51,2022-02-12_17h56.16.751,lexical_decision_task_DD_L3,2021.2.3,Win32,59.97720866,,,,,,,,,,,0.7125,1,,,,,,,,,,,,,,m,1,0.7125,,,,,,,,0.514322917,-0.10546875,0,0,0,,0,36,36,0,1,TOMATO,LB,old,m,./images/TOMATOLB.png,,,,,,,,,,,,,,,,,,,,,,,,,,,,,,,,,,,
,,,,,,,,,,,,,,,,,5bea65135b7ff700013c946c,51,2022-02-12_17h56.16.751,lexical_decision_task_DD_L3,2021.2.3,Win32,59.97720866,,,,,,,,,,,0.9073,1,,,,,,,,,,,,,,z,1,0.9073,,,,,,,,0.514322917,-0.10546875,0,0,0,,0,37,37,85,1,CHULK,HB,old,z,./images/CHULKHB.png,,,,,,,,,,,,,,,,,,,,,,,,,,,,,,,,,,,
,,,,,,,,,,,,,,,,,5bea65135b7ff700013c946c,51,2022-02-12_17h56.16.751,lexical_decision_task_DD_L3,2021.2.3,Win32,59.97720866,,,,,,,,,,,1.5284,1,,,,,,,,,,,,,,z,1,1.5284,,,,,,,,0.514322917,-0.10546875,0,0,0,,0,38,38,100,1,DRIBS,HB,old,z,./images/DRIBSHB.png,,,,,,,,,,,,,,,,,,,,,,,,,,,,,,,,,,,
,,,,,,,,,,,,,,,,,5bea65135b7ff700013c946c,51,2022-02-12_17h56.16.751,lexical_decision_task_DD_L3,2021.2.3,Win32,59.97720866,,,,,,,,,,,0.8447,1,,,,,,,,,,,,,,z,1,0.8447,,,,,,,,0.514322917,-0.10546875,0,0,0,,0,39,39,153,1,CLUPS,C,old,z,./images/CLUPS.png,,,,,,,,,,,,,,,,,,,,,,,,,,,,,,,,,,,
,,,,,,,,,,,,,,,,,5bea65135b7ff700013c946c,51,2022-02-12_17h56.16.751,lexical_decision_task_DD_L3,2021.2.3,Win32,59.97720866,,,,,,,,,,,0.6266,1,,,,,,,,,,,,,,z,1,0.6266,,,,,,,,0.514322917,-0.10546875,0,0,0,,0,40,40,161,1,BLAPS,LB,old,z,./images/BLAPSLB.png,,,,,,,,,,,,,,,,,,,,,,,,,,,,,,,,,,,
,,,,,,,,,,,,,,,,,5bea65135b7ff700013c946c,51,2022-02-12_17h56.16.751,lexical_decision_task_DD_L3,2021.2.3,Win32,59.97720866,,,,,,,,,,,0.7612,1,,,,,,,,,,,,,,m,1,0.7612,,,,,,,,0.514322917,-0.10546875,0,0,0,space,0,41,41,83,1,JUNGLE,HB,old,m,./images/JUNGLEHB.png,6.3791,,,,,,,,,,,,,,,,,,,,,,,,,,,,,,,,,,
,,,,,,,,,,,,,,,,,5bea65135b7ff700013c946c,51,2022-02-12_17h56.16.751,lexical_decision_task_DD_L3,2021.2.3,Win32,59.97720866,,,,,,,,,,,0.7085,1,,,,,,,,,,,,,,z,1,0.7085,,,,,,,,0.514322917,-0.10546875,0,0,0,,0,42,42,140,1,DOVET,LB,old,z,./images/DOVETLB.png,,,,,,,,,,,,,,,,,,,,,,,,,,,,,,,,,,,
,,,,,,,,,,,,,,,,,5bea65135b7ff700013c946c,51,2022-02-12_17h56.16.751,lexical_decision_task_DD_L3,2021.2.3,Win32,59.97720866,,,,,,,,,,,0.8362,1,,,,,,,,,,,,,,z,1,0.8362,,,,,,,,0.514322917,-0.10546875,0,0,0,,0,43,43,148,1,JOMS,HB,old,z,./images/JOMSHB.png,,,,,,,,,,,,,,,,,,,,,,,,,,,,,,,,,,,
,,,,,,,,,,,,,,,,,5bea65135b7ff700013c946c,51,2022-02-12_17h56.16.751,lexical_decision_task_DD_L3,2021.2.3,Win32,59.97720866,,,,,,,,,,,0.5237,1,,,,,,,,,,,,,,m,1,0.5237,,,,,,,,0.514322917,-0.10546875,0,0,0,,0,44,44,10,1,BELLY,C,old,m,./images/BELLY.png,,,,,,,,,,,,,,,,,,,,,,,,,,,,,,,,,,,
,,,,,,,,,,,,,,,,,5bea65135b7ff700013c946c,51,2022-02-12_17h56.16.751,lexical_decision_task_DD_L3,2021.2.3,Win32,59.97720866,,,,,,,,,,,0.9174,1,,,,,,,,,,,,,,z,1,0.9174,,,,,,,,0.514322917,-0.10546875,0,0,0,,0,45,45,88,1,GLUSH,HB,old,z,./images/GLUSHHB.png,,,,,,,,,,,,,,,,,,,,,,,,,,,,,,,,,,,
,,,,,,,,,,,,,,,,,5bea65135b7ff700013c946c,51,2022-02-12_17h56.16.751,lexical_decision_task_DD_L3,2021.2.3,Win32,59.97720866,,,,,,,,,,,0.8946,1,,,,,,,,,,,,,,m,1,0.8946,,,,,,,,0.514322917,-0.10546875,0,0,0,,0,46,46,69,1,COOKER,LB,old,m,./images/COOKERLB.png,,,,,,,,,,,,,,,,,,,,,,,,,,,,,,,,,,,
,,,,,,,,,,,,,,,,,5bea65135b7ff700013c946c,51,2022-02-12_17h56.16.751,lexical_decision_task_DD_L3,2021.2.3,Win32,59.97720866,,,,,,,,,,,0.7524,1,,,,,,,,,,,,,,m,1,0.7524,,,,,,,,0.514322917,-0.10546875,0,0,0,,0,47,47,35,1,PEACH,HB,old,m,./images/PEACHHB.png,,,,,,,,,,,,,,,,,,,,,,,,,,,,,,,,,,,
,,,,,,,,,,,,,,,,,5bea65135b7ff700013c946c,51,2022-02-12_17h56.16.751,lexical_decision_task_DD_L3,2021.2.3,Win32,59.97720866,,,,,,,,,,,0.6722,1,,,,,,,,,,,,,,m,1,0.6722,,,,,,,,0.514322917,-0.10546875,0,0,0,,0,48,48,22,1,MELON,C,old,m,./images/MELON.png,,,,,,,,,,,,,,,,,,,,,,,,,,,,,,,,,,,
,,,,,,,,,,,,,,,,,5bea65135b7ff700013c946c,51,2022-02-12_17h56.16.751,lexical_decision_task_DD_L3,2021.2.3,Win32,59.97720866,,,,,,,,,,,0.7575,1,,,,,,,,,,,,,,m,1,0.7575,,,,,,,,0.514322917,-0.10546875,0,0,0,,0,49,49,1,1,PLANK,C,old,m,./images/PLANK.png,,,,,,,,,,,,,,,,,,,,,,,,,,,,,,,,,,,
,,,,,,,,,,,,,,,,,5bea65135b7ff700013c946c,51,2022-02-12_17h56.16.751,lexical_decision_task_DD_L3,2021.2.3,Win32,59.97720866,,,,,,,,,,,0.608,1,,,,,,,,,,,,,,m,1,0.608,,,,,,,,0.514322917,-0.10546875,0,0,0,,0,50,50,15,1,GREASE,LB,old,m,./images/GREASELB.png,,,,,,,,,,,,,,,,,,,,,,,,,,,,,,,,,,,
,,,,,,,,,,,,,,,,,5bea65135b7ff700013c946c,51,2022-02-12_17h56.16.751,lexical_decision_task_DD_L3,2021.2.3,Win32,59.97720866,,,,,,,,,,,0.6767,1,,,,,,,,,,,,,,z,1,0.6767,,,,,,,,0.514322917,-0.10546875,0,0,0,,0,51,51,108,1,GRUET,C,old,z,./images/GRUET.png,,,,,,,,,,,,,,,,,,,,,,,,,,,,,,,,,,,
,,,,,,,,,,,,,,,,,5bea65135b7ff700013c946c,51,2022-02-12_17h56.16.751,lexical_decision_task_DD_L3,2021.2.3,Win32,59.97720866,,,,,,,,,,,1.1589,1,,,,,,,,,,,,,,z,1,1.1589,,,,,,,,0.514322917,-0.10546875,0,0,0,,0,52,52,115,1,MAWNS,HB,old,z,./images/MAWNSHB.png,,,,,,,,,,,,,,,,,,,,,,,,,,,,,,,,,,,
,,,,,,,,,,,,,,,,,5bea65135b7ff700013c946c,51,2022-02-12_17h56.16.751,lexical_decision_task_DD_L3,2021.2.3,Win32,59.97720866,,,,,,,,,,,0.7191,1,,,,,,,,,,,,,,z,1,0.7191,,,,,,,,0.514322917,-0.10546875,0,0,0,,0,53,53,92,1,PAIMS,LB,old,z,./images/PAIMSLB.png,,,,,,,,,,,,,,,,,,,,,,,,,,,,,,,,,,,
,,,,,,,,,,,,,,,,,5bea65135b7ff700013c946c,51,2022-02-12_17h56.16.751,lexical_decision_task_DD_L3,2021.2.3,Win32,59.97720866,,,,,,,,,,,0.9193,1,,,,,,,,,,,,,,m,1,0.9193,,,,,,,,0.514322917,-0.10546875,0,0,0,,0,54,54,8,1,TULIP,HB,old,m,./images/TULIPHB.png,,,,,,,,,,,,,,,,,,,,,,,,,,,,,,,,,,,
,,,,,,,,,,,,,,,,,5bea65135b7ff700013c946c,51,2022-02-12_17h56.16.751,lexical_decision_task_DD_L3,2021.2.3,Win32,59.97720866,,,,,,,,,,,0.6853,1,,,,,,,,,,,,,,m,1,0.6853,,,,,,,,0.514322917,-0.10546875,0,0,0,,0,55,55,78,1,LITTER,LB,old,m,./images/LITTERLB.png,,,,,,,,,,,,,,,,,,,,,,,,,,,,,,,,,,,
,,,,,,,,,,,,,,,,,5bea65135b7ff700013c946c,51,2022-02-12_17h56.16.751,lexical_decision_task_DD_L3,2021.2.3,Win32,59.97720866,,,,,,,,,,,0.7365,1,,,,,,,,,,,,,,m,1,0.7365,,,,,,,,0.514322917,-0.10546875,0,0,0,,0,56,56,53,1,CARPET,HB,old,m,./images/CARPETHB.png,,,,,,,,,,,,,,,,,,,,,,,,,,,,,,,,,,,
,,,,,,,,,,,,,,,,,5bea65135b7ff700013c946c,51,2022-02-12_17h56.16.751,lexical_decision_task_DD_L3,2021.2.3,Win32,59.97720866,,,,,,,,,,,0.6666,1,,,,,,,,,,,,,,m,1,0.6666,,,,,,,,0.514322917,-0.10546875,0,0,0,,0,57,57,81,1,POODLE,LB,old,m,./images/POODLELB.png,,,,,,,,,,,,,,,,,,,,,,,,,,,,,,,,,,,
,,,,,,,,,,,,,,,,,5bea65135b7ff700013c946c,51,2022-02-12_17h56.16.751,lexical_decision_task_DD_L3,2021.2.3,Win32,59.97720866,,,,,,,,,,,0.6554,1,,,,,,,,,,,,,,z,1,0.6554,,,,,,,,0.514322917,-0.10546875,0,0,0,,0,58,58,158,1,EGECT,LB,old,z,./images/EGECTLB.png,,,,,,,,,,,,,,,,,,,,,,,,,,,,,,,,,,,
,,,,,,,,,,,,,,,,,5bea65135b7ff700013c946c,51,2022-02-12_17h56.16.751,lexical_decision_task_DD_L3,2021.2.3,Win32,59.97720866,,,,,,,,,,,0.7726,1,,,,,,,,,,,,,,m,1,0.7726,,,,,,,,0.514322917,-0.10546875,0,0,0,,0,59,59,58,1,BABOON,C,old,m,./images/BABOON.png,,,,,,,,,,,,,,,,,,,,,,,,,,,,,,,,,,,
,,,,,,,,,,,,,,,,,5bea65135b7ff700013c946c,51,2022-02-12_17h56.16.751,lexical_decision_task_DD_L3,2021.2.3,Win32,59.97720866,,,,,,,,,,,1.1194,0,,,,,,,,,,,,,,m,0,1.1194,,,,,,,,0.514322917,-0.10546875,0,0,0,,0,60,60,110,1,CRUNK,LB,old,z,./images/CRUNKLB.png,,,,,,,,,,,,,,,,,,,,,,,,,,,,,,,,,,,
,,,,,,,,,,,,,,,,,5bea65135b7ff700013c946c,51,2022-02-12_17h56.16.751,lexical_decision_task_DD_L3,2021.2.3,Win32,59.97720866,,,,,,,,,,,0.9741,1,,,,,,,,,,,,,,m,1,0.9741,,,,,,,,0.514322917,-0.10546875,0,0,0,,0,61,61,27,1,ATTIC,LB,old,m,./images/ATTICLB.png,,,,,,,,,,,,,,,,,,,,,,,,,,,,,,,,,,,
,,,,,,,,,,,,,,,,,5bea65135b7ff700013c946c,51,2022-02-12_17h56.16.751,lexical_decision_task_DD_L3,2021.2.3,Win32,59.97720866,,,,,,,,,,,0.7924,1,,,,,,,,,,,,,,z,1,0.7924,,,,,,,,0.514322917,-0.10546875,0,0,0,,0,62,62,144,1,NAIRY,C,old,z,./images/NAIRY.png,,,,,,,,,,,,,,,,,,,,,,,,,,,,,,,,,,,
,,,,,,,,,,,,,,,,,5bea65135b7ff700013c946c,51,2022-02-12_17h56.16.751,lexical_decision_task_DD_L3,2021.2.3,Win32,59.97720866,,,,,,,,,,,0.6527,1,,,,,,,,,,,,,,m,1,0.6527,,,,,,,,0.514322917,-0.10546875,0,0,0,,0,63,63,28,1,FALCON,C,old,m,./images/FALCON.png,,,,,,,,,,,,,,,,,,,,,,,,,,,,,,,,,,,
,,,,,,,,,,,,,,,,,5bea65135b7ff700013c946c,51,2022-02-12_17h56.16.751,lexical_decision_task_DD_L3,2021.2.3,Win32,59.97720866,,,,,,,,,,,0.9203,1,,,,,,,,,,,,,,z,1,0.9203,,,,,,,,0.514322917,-0.10546875,0,0,0,,0,64,64,118,1,BAVEL,HB,old,z,./images/BAVELHB.png,,,,,,,,,,,,,,,,,,,,,,,,,,,,,,,,,,,
,,,,,,,,,,,,,,,,,5bea65135b7ff700013c946c,51,2022-02-12_17h56.16.751,lexical_decision_task_DD_L3,2021.2.3,Win32,59.97720866,,,,,,,,,,,1.2219,0,,,,,,,,,,,,,,z,0,1.2219,,,,,,,,0.514322917,-0.10546875,0,0,0,,0,65,65,38,1,LADDER,HB,old,m,./images/LADDERHB.png,,,,,,,,,,,,,,,,,,,,,,,,,,,,,,,,,,,
,,,,,,,,,,,,,,,,,5bea65135b7ff700013c946c,51,2022-02-12_17h56.16.751,lexical_decision_task_DD_L3,2021.2.3,Win32,59.97720866,,,,,,,,,,,0.6048,1,,,,,,,,,,,,,,m,1,0.6048,,,,,,,,0.514322917,-0.10546875,0,0,0,,0,66,66,12,1,SHORE,LB,old,m,./images/SHORELB.png,,,,,,,,,,,,,,,,,,,,,,,,,,,,,,,,,,,
,,,,,,,,,,,,,,,,,5bea65135b7ff700013c946c,51,2022-02-12_17h56.16.751,lexical_decision_task_DD_L3,2021.2.3,Win32,59.97720866,,,,,,,,,,,1.0703,1,,,,,,,,,,,,,,z,1,1.0703,,,,,,,,0.514322917,-0.10546875,0,0,0,,0,67,67,166,1,SHORY,HB,old,z,./images/SHORYHB.png,,,,,,,,,,,,,,,,,,,,,,,,,,,,,,,,,,,
,,,,,,,,,,,,,,,,,5bea65135b7ff700013c946c,51,2022-02-12_17h56.16.751,lexical_decision_task_DD_L3,2021.2.3,Win32,59.97720866,,,,,,,,,,,0.7015,1,,,,,,,,,,,,,,m,1,0.7015,,,,,,,,0.514322917,-0.10546875,0,0,0,,0,68,68,31,1,QUILL,C,old,m,./images/QUILL.png,,,,,,,,,,,,,,,,,,,,,,,,,,,,,,,,,,,
,,,,,,,,,,,,,,,,,5bea65135b7ff700013c946c,51,2022-02-12_17h56.16.751,lexical_decision_task_DD_L3,2021.2.3,Win32,59.97720866,,,,,,,,,,,0.7718,1,,,,,,,,,,,,,,z,1,0.7718,,,,,,,,0.514322917,-0.10546875,0,0,0,,0,69,69,143,1,MONGS,LB,old,z,./images/MONGSLB.png,,,,,,,,,,,,,,,,,,,,,,,,,,,,,,,,,,,
,,,,,,,,,,,,,,,,,5bea65135b7ff700013c946c,51,2022-02-12_17h56.16.751,lexical_decision_task_DD_L3,2021.2.3,Win32,59.97720866,,,,,,,,,,,0.7895,1,,,,,,,,,,,,,,m,1,0.7895,,,,,,,,0.514322917,-0.10546875,0,0,0,,0,70,70,11,1,BONNET,HB,old,m,./images/BONNETHB.png,,,,,,,,,,,,,,,,,,,,,,,,,,,,,,,,,,,
,,,,,,,,,,,,,,,,,5bea65135b7ff700013c946c,51,2022-02-12_17h56.16.751,lexical_decision_task_DD_L3,2021.2.3,Win32,59.97720866,,,,,,,,,,,1.1859,1,,,,,,,,,,,,,,z,1,1.1859,,,,,,,,0.514322917,-0.10546875,0,0,0,,0,71,71,106,1,CLUMS,HB,old,z,./images/CLUMSHB.png,,,,,,,,,,,,,,,,,,,,,,,,,,,,,,,,,,,
,,,,,,,,,,,,,,,,,5bea65135b7ff700013c946c,51,2022-02-12_17h56.16.751,lexical_decision_task_DD_L3,2021.2.3,Win32,59.97720866,,,,,,,,,,,0.7564,1,,,,,,,,,,,,,,m,1,0.7564,,,,,,,,0.514322917,-0.10546875,0,0,0,,0,72,72,48,1,SPORT,LB,old,m,./images/SPORTLB.png,,,,,,,,,,,,,,,,,,,,,,,,,,,,,,,,,,,
,,,,,,,,,,,,,,,,,5bea65135b7ff700013c946c,51,2022-02-12_17h56.16.751,lexical_decision_task_DD_L3,2021.2.3,Win32,59.97720866,,,,,,,,,,,0.7664,1,,,,,,,,,,,,,,z,1,0.7664,,,,,,,,0.514322917,-0.10546875,0,0,0,,0,73,73,103,1,FLORT,HB,old,z,./images/FLORTHB.png,,,,,,,,,,,,,,,,,,,,,,,,,,,,,,,,,,,
,,,,,,,,,,,,,,,,,5bea65135b7ff700013c946c,51,2022-02-12_17h56.16.751,lexical_decision_task_DD_L3,2021.2.3,Win32,59.97720866,,,,,,,,,,,0.7349,1,,,,,,,,,,,,,,z,1,0.7349,,,,,,,,0.514322917,-0.10546875,0,0,0,,0,74,74,101,1,GLEET,LB,old,z,./images/GLEETLB.png,,,,,,,,,,,,,,,,,,,,,,,,,,,,,,,,,,,
,,,,,,,,,,,,,,,,,5bea65135b7ff700013c946c,51,2022-02-12_17h56.16.751,lexical_decision_task_DD_L3,2021.2.3,Win32,59.97720866,,,,,,,,,,,1.2027,1,,,,,,,,,,,,,,z,1,1.2027,,,,,,,,0.514322917,-0.10546875,0,0,0,,0,75,75,127,1,NINDY,HB,old,z,./images/NINDYHB.png,,,,,,,,,,,,,,,,,,,,,,,,,,,,,,,,,,,
,,,,,,,,,,,,,,,,,5bea65135b7ff700013c946c,51,2022-02-12_17h56.16.751,lexical_decision_task_DD_L3,2021.2.3,Win32,59.97720866,,,,,,,,,,,0.7236,1,,,,,,,,,,,,,,z,1,0.7236,,,,,,,,0.514322917,-0.10546875,0,0,0,,0,76,76,105,1,MOKER,C,old,z,./images/MOKER.png,,,,,,,,,,,,,,,,,,,,,,,,,,,,,,,,,,,
,,,,,,,,,,,,,,,,,5bea65135b7ff700013c946c,51,2022-02-12_17h56.16.751,lexical_decision_task_DD_L3,2021.2.3,Win32,59.97720866,,,,,,,,,,,0.6911,1,,,,,,,,,,,,,,z,1,0.6911,,,,,,,,0.514322917,-0.10546875,0,0,0,,0,77,77,129,1,PRANS,C,old,z,./images/PRANS.png,,,,,,,,,,,,,,,,,,,,,,,,,,,,,,,,,,,
,,,,,,,,,,,,,,,,,5bea65135b7ff700013c946c,51,2022-02-12_17h56.16.751,lexical_decision_task_DD_L3,2021.2.3,Win32,59.97720866,,,,,,,,,,,0.599,1,,,,,,,,,,,,,,m,1,0.599,,,,,,,,0.514322917,-0.10546875,0,0,0,,0,78,78,7,1,PAINT,C,old,m,./images/PAINT.png,,,,,,,,,,,,,,,,,,,,,,,,,,,,,,,,,,,
,,,,,,,,,,,,,,,,,5bea65135b7ff700013c946c,51,2022-02-12_17h56.16.751,lexical_decision_task_DD_L3,2021.2.3,Win32,59.97720866,,,,,,,,,,,0.7494,1,,,,,,,,,,,,,,z,1,0.7494,,,,,,,,0.514322917,-0.10546875,0,0,0,,0,79,79,134,1,TROSS,LB,old,z,./images/TROSSLB.png,,,,,,,,,,,,,,,,,,,,,,,,,,,,,,,,,,,
,,,,,,,,,,,,,,,,,5bea65135b7ff700013c946c,51,2022-02-12_17h56.16.751,lexical_decision_task_DD_L3,2021.2.3,Win32,59.97720866,,,,,,,,,,,0.7533,1,,,,,,,,,,,,,,z,1,0.7533,,,,,,,,0.514322917,-0.10546875,0,0,0,,0,80,80,84,1,HAXES,C,old,z,./images/HAXES.png,,,,,,,,,,,,,,,,,,,,,,,,,,,,,,,,,,,
,,,,,,,,,,,,,,,,,5bea65135b7ff700013c946c,51,2022-02-12_17h56.16.751,lexical_decision_task_DD_L3,2021.2.3,Win32,59.97720866,,,,,,,,,,,0.6414,1,,,,,,,,,,,,,,z,1,0.6414,,,,,,,,0.514322917,-0.10546875,0,0,0,,0,81,81,87,1,TRING,C,old,z,./images/TRING.png,,,,,,,,,,,,,,,,,,,,,,,,,,,,,,,,,,,
,,,,,,,,,,,,,,,,,5bea65135b7ff700013c946c,51,2022-02-12_17h56.16.751,lexical_decision_task_DD_L3,2021.2.3,Win32,59.97720866,,,,,,,,,,,0.6121,1,,,,,,,,,,,,,,m,1,0.6121,,,,,,,,0.514322917,-0.10546875,0,0,0,,0,82,82,18,1,JAGUAR,LB,old,m,./images/JAGUARLB.png,,,,,,,,,,,,,,,,,,,,,,,,,,,,,,,,,,,
,,,,,,,,,,,,,,,,,5bea65135b7ff700013c946c,51,2022-02-12_17h56.16.751,lexical_decision_task_DD_L3,2021.2.3,Win32,59.97720866,,,,,,,,,,,0.7388,1,,,,,,,,,,,,,,m,1,0.7388,,,,,,,,0.514322917,-0.10546875,0,0,0,space,0,83,83,62,1,PURSE,HB,old,m,./images/PURSEHB.png,8.5729,,,,,,,,,,,,,,,,,,,,,,,,,,,,,,,,,,
,,,,,,,,,,,,,,,,,5bea65135b7ff700013c946c,51,2022-02-12_17h56.16.751,lexical_decision_task_DD_L3,2021.2.3,Win32,59.97720866,,,,,,,,,,,0.5888,1,,,,,,,,,,,,,,m,1,0.5888,,,,,,,,0.514322917,-0.10546875,0,0,0,,0,84,84,24,1,SCREW,LB,old,m,./images/SCREWLB.png,,,,,,,,,,,,,,,,,,,,,,,,,,,,,,,,,,,
,,,,,,,,,,,,,,,,,5bea65135b7ff700013c946c,51,2022-02-12_17h56.16.751,lexical_decision_task_DD_L3,2021.2.3,Win32,59.97720866,,,,,,,,,,,0.6912,1,,,,,,,,,,,,,,m,1,0.6912,,,,,,,,0.514322917,-0.10546875,0,0,0,,0,85,85,73,1,SNACK,C,old,m,./images/SNACK.png,,,,,,,,,,,,,,,,,,,,,,,,,,,,,,,,,,,
,,,,,,,,,,,,,,,,,5bea65135b7ff700013c946c,51,2022-02-12_17h56.16.751,lexical_decision_task_DD_L3,2021.2.3,Win32,59.97720866,,,,,,,,,,,0.8021,1,,,,,,,,,,,,,,z,1,0.8021,,,,,,,,0.514322917,-0.10546875,0,0,0,,0,86,86,109,1,BURGE,HB,old,z,./images/BURGEHB.png,,,,,,,,,,,,,,,,,,,,,,,,,,,,,,,,,,,
,,,,,,,,,,,,,,,,,5bea65135b7ff700013c946c,51,2022-02-12_17h56.16.751,lexical_decision_task_DD_L3,2021.2.3,Win32,59.97720866,,,,,,,,,,,0.7271,1,,,,,,,,,,,,,,z,1,0.7271,,,,,,,,0.514322917,-0.10546875,0,0,0,,0,87,87,107,1,FASKS,LB,old,z,./images/FASKSLB.png,,,,,,,,,,,,,,,,,,,,,,,,,,,,,,,,,,,
,,,,,,,,,,,,,,,,,5bea65135b7ff700013c946c,51,2022-02-12_17h56.16.751,lexical_decision_task_DD_L3,2021.2.3,Win32,59.97720866,,,,,,,,,,,0.6653,1,,,,,,,,,,,,,,z,1,0.6653,,,,,,,,0.514322917,-0.10546875,0,0,0,,0,88,88,119,1,PAFER,LB,old,z,./images/PAFERLB.png,,,,,,,,,,,,,,,,,,,,,,,,,,,,,,,,,,,
,,,,,,,,,,,,,,,,,5bea65135b7ff700013c946c,51,2022-02-12_17h56.16.751,lexical_decision_task_DD_L3,2021.2.3,Win32,59.97720866,,,,,,,,,,,0.6448,1,,,,,,,,,,,,,,z,1,0.6448,,,,,,,,0.514322917,-0.10546875,0,0,0,,0,89,89,89,1,DRIEK,LB,old,z,./images/DRIEKLB.png,,,,,,,,,,,,,,,,,,,,,,,,,,,,,,,,,,,
,,,,,,,,,,,,,,,,,5bea65135b7ff700013c946c,51,2022-02-12_17h56.16.751,lexical_decision_task_DD_L3,2021.2.3,Win32,59.97720866,,,,,,,,,,,0.7542,0,,,,,,,,,,,,,,z,0,0.7542,,,,,,,,0.514322917,-0.10546875,0,0,0,,0,90,90,50,1,MALLET,HB,old,m,./images/MALLETHB.png,,,,,,,,,,,,,,,,,,,,,,,,,,,,,,,,,,,
,,,,,,,,,,,,,,,,,5bea65135b7ff700013c946c,51,2022-02-12_17h56.16.751,lexical_decision_task_DD_L3,2021.2.3,Win32,59.97720866,,,,,,,,,,,0.6637,1,,,,,,,,,,,,,,m,1,0.6637,,,,,,,,0.514322917,-0.10546875,0,0,0,,0,91,91,41,1,STRING,HB,old,m,./images/STRINGHB.png,,,,,,,,,,,,,,,,,,,,,,,,,,,,,,,,,,,
,,,,,,,,,,,,,,,,,5bea65135b7ff700013c946c,51,2022-02-12_17h56.16.751,lexical_decision_task_DD_L3,2021.2.3,Win32,59.97720866,,,,,,,,,,,0.7082,1,,,,,,,,,,,,,,m,1,0.7082,,,,,,,,0.514322917,-0.10546875,0,0,0,,0,92,92,67,1,SAILOR,C,old,m,./images/SAILOR.png,,,,,,,,,,,,,,,,,,,,,,,,,,,,,,,,,,,
,,,,,,,,,,,,,,,,,5bea65135b7ff700013c946c,51,2022-02-12_17h56.16.751,lexical_decision_task_DD_L3,2021.2.3,Win32,59.97720866,,,,,,,,,,,0.6917,1,,,,,,,,,,,,,,m,1,0.6917,,,,,,,,0.514322917,-0.10546875,0,0,0,,0,93,93,70,1,URINE,C,old,m,./images/URINE.png,,,,,,,,,,,,,,,,,,,,,,,,,,,,,,,,,,,
,,,,,,,,,,,,,,,,,5bea65135b7ff700013c946c,51,2022-02-12_17h56.16.751,lexical_decision_task_DD_L3,2021.2.3,Win32,59.97720866,,,,,,,,,,,0.8025,1,,,,,,,,,,,,,,z,1,0.8025,,,,,,,,0.514322917,-0.10546875,0,0,0,,0,94,94,121,1,CEERS,HB,old,z,./images/CEERSHB.png,,,,,,,,,,,,,,,,,,,,,,,,,,,,,,,,,,,
,,,,,,,,,,,,,,,,,5bea65135b7ff700013c946c,51,2022-02-12_17h56.16.751,lexical_decision_task_DD_L3,2021.2.3,Win32,59.97720866,,,,,,,,,,,0.6527,1,,,,,,,,,,,,,,z,1,0.6527,,,,,,,,0.514322917,-0.10546875,0,0,0,,0,95,95,131,1,NACES,LB,old,z,./images/NACESLB.png,,,,,,,,,,,,,,,,,,,,,,,,,,,,,,,,,,,
,,,,,,,,,,,,,,,,,5bea65135b7ff700013c946c,51,2022-02-12_17h56.16.751,lexical_decision_task_DD_L3,2021.2.3,Win32,59.97720866,,,,,,,,,,,1.0874,1,,,,,,,,,,,,,,m,1,1.0874,,,,,,,,0.514322917,-0.10546875,0,0,0,,0,96,96,47,1,BERRY,HB,old,m,./images/BERRYHB.png,,,,,,,,,,,,,,,,,,,,,,,,,,,,,,,,,,,
,,,,,,,,,,,,,,,,,5bea65135b7ff700013c946c,51,2022-02-12_17h56.16.751,lexical_decision_task_DD_L3,2021.2.3,Win32,59.97720866,,,,,,,,,,,0.8623,1,,,,,,,,,,,,,,z,1,0.8623,,,,,,,,0.514322917,-0.10546875,0,0,0,,0,97,97,146,1,MOOST,LB,old,z,./images/MOOSTLB.png,,,,,,,,,,,,,,,,,,,,,,,,,,,,,,,,,,,
,,,,,,,,,,,,,,,,,5bea65135b7ff700013c946c,51,2022-02-12_17h56.16.751,lexical_decision_task_DD_L3,2021.2.3,Win32,59.97720866,,,,,,,,,,,0.7819,1,,,,,,,,,,,,,,m,1,0.7819,,,,,,,,0.514322917,-0.10546875,0,0,0,,0,98,98,71,1,PIMPLE,HB,old,m,./images/PIMPLEHB.png,,,,,,,,,,,,,,,,,,,,,,,,,,,,,,,,,,,
,,,,,,,,,,,,,,,,,5bea65135b7ff700013c946c,51,2022-02-12_17h56.16.751,lexical_decision_task_DD_L3,2021.2.3,Win32,59.97720866,,,,,,,,,,,0.7845,1,,,,,,,,,,,,,,m,1,0.7845,,,,,,,,0.514322917,-0.10546875,0,0,0,,0,99,99,63,1,MIRROR,LB,old,m,./images/MIRRORLB.png,,,,,,,,,,,,,,,,,,,,,,,,,,,,,,,,,,,
,,,,,,,,,,,,,,,,,5bea65135b7ff700013c946c,51,2022-02-12_17h56.16.751,lexical_decision_task_DD_L3,2021.2.3,Win32,59.97720866,,,,,,,,,,,0.736,1,,,,,,,,,,,,,,m,1,0.736,,,,,,,,0.514322917,-0.10546875,0,0,0,,0,100,100,3,1,FINGER,LB,old,m,./images/FINGERLB.png,,,,,,,,,,,,,,,,,,,,,,,,,,,,,,,,,,,
,,,,,,,,,,,,,,,,,5bea65135b7ff700013c946c,51,2022-02-12_17h56.16.751,lexical_decision_task_DD_L3,2021.2.3,Win32,59.97720866,,,,,,,,,,,0.7451,1,,,,,,,,,,,,,,m,1,0.7451,,,,,,,,0.514322917,-0.10546875,0,0,0,,0,101,101,4,1,MUSCLE,C,old,m,./images/MUSCLE.png,,,,,,,,,,,,,,,,,,,,,,,,,,,,,,,,,,,
,,,,,,,,,,,,,,,,,5bea65135b7ff700013c946c,51,2022-02-12_17h56.16.751,lexical_decision_task_DD_L3,2021.2.3,Win32,59.97720866,,,,,,,,,,,0.7562,1,,,,,,,,,,,,,,z,1,0.7562,,,,,,,,0.514322917,-0.10546875,0,0,0,,0,102,102,139,1,BLEAR,HB,old,z,./images/BLEARHB.png,,,,,,,,,,,,,,,,,,,,,,,,,,,,,,,,,,,
,,,,,,,,,,,,,,,,,5bea65135b7ff700013c946c,51,2022-02-12_17h56.16.751,lexical_decision_task_DD_L3,2021.2.3,Win32,59.97720866,,,,,,,,,,,0.6431,1,,,,,,,,,,,,,,z,1,0.6431,,,,,,,,0.514322917,-0.10546875,0,0,0,,0,103,103,137,1,JOOST,LB,old,z,./images/JOOSTLB.png,,,,,,,,,,,,,,,,,,,,,,,,,,,,,,,,,,,
,,,,,,,,,,,,,,,,,5bea65135b7ff700013c946c,51,2022-02-12_17h56.16.751,lexical_decision_task_DD_L3,2021.2.3,Win32,59.97720866,,,,,,,,,,,0.5739,1,,,,,,,,,,,,,,z,1,0.5739,,,,,,,,0.514322917,-0.10546875,0,0,0,,0,104,104,104,1,GITTY,LB,old,z,./images/GITTYLB.png,,,,,,,,,,,,,,,,,,,,,,,,,,,,,,,,,,,
,,,,,,,,,,,,,,,,,5bea65135b7ff700013c946c,51,2022-02-12_17h56.16.751,lexical_decision_task_DD_L3,2021.2.3,Win32,59.97720866,,,,,,,,,,,0.6439,1,,,,,,,,,,,,,,z,1,0.6439,,,,,,,,0.514322917,-0.10546875,0,0,0,,0,105,105,155,1,CANGY,LB,old,z,./images/CANGYLB.png,,,,,,,,,,,,,,,,,,,,,,,,,,,,,,,,,,,
,,,,,,,,,,,,,,,,,5bea65135b7ff700013c946c,51,2022-02-12_17h56.16.751,lexical_decision_task_DD_L3,2021.2.3,Win32,59.97720866,,,,,,,,,,,0.7358,0,,,,,,,,,,,,,,z,0,0.7358,,,,,,,,0.514322917,-0.10546875,0,0,0,,0,106,106,32,1,BARREL,HB,old,m,./images/BARRELHB.png,,,,,,,,,,,,,,,,,,,,,,,,,,,,,,,,,,,
,,,,,,,,,,,,,,,,,5bea65135b7ff700013c946c,51,2022-02-12_17h56.16.751,lexical_decision_task_DD_L3,2021.2.3,Win32,59.97720866,,,,,,,,,,,0.7045,1,,,,,,,,,,,,,,z,1,0.7045,,,,,,,,0.514322917,-0.10546875,0,0,0,,0,107,107,117,1,STEEG,C,old,z,./images/STEEG.png,,,,,,,,,,,,,,,,,,,,,,,,,,,,,,,,,,,
,,,,,,,,,,,,,,,,,5bea65135b7ff700013c946c,51,2022-02-12_17h56.16.751,lexical_decision_task_DD_L3,2021.2.3,Win32,59.97720866,,,,,,,,,,,0.67,1,,,,,,,,,,,,,,m,1,0.67,,,,,,,,0.514322917,-0.10546875,0,0,0,,0,108,108,49,1,DRUMS,C,old,m,./images/DRUMS.png,,,,,,,,,,,,,,,,,,,,,,,,,,,,,,,,,,,
,,,,,,,,,,,,,,,,,5bea65135b7ff700013c946c,51,2022-02-12_17h56.16.751,lexical_decision_task_DD_L3,2021.2.3,Win32,59.97720866,,,,,,,,,,,1.1045,1,,,,,,,,,,,,,,m,1,1.1045,,,,,,,,0.514322917,-0.10546875,0,0,0,,0,109,109,29,1,CRUMB,HB,old,m,./images/CRUMBHB.png,,,,,,,,,,,,,,,,,,,,,,,,,,,,,,,,,,,
,,,,,,,,,,,,,,,,,5bea65135b7ff700013c946c,51,2022-02-12_17h56.16.751,lexical_decision_task_DD_L3,2021.2.3,Win32,59.97720866,,,,,,,,,,,0.6354,1,,,,,,,,,,,,,,m,1,0.6354,,,,,,,,0.514322917,-0.10546875,0,0,0,,0,110,110,57,1,MOOSE,LB,old,m,./images/MOOSELB.png,,,,,,,,,,,,,,,,,,,,,,,,,,,,,,,,,,,
,,,,,,,,,,,,,,,,,5bea65135b7ff700013c946c,51,2022-02-12_17h56.16.751,lexical_decision_task_DD_L3,2021.2.3,Win32,59.97720866,,,,,,,,,,,0.8281,1,,,,,,,,,,,,,,m,1,0.8281,,,,,,,,0.514322917,-0.10546875,0,0,0,,0,111,111,77,1,COUCH,HB,old,m,./images/COUCHHB.png,,,,,,,,,,,,,,,,,,,,,,,,,,,,,,,,,,,
,,,,,,,,,,,,,,,,,5bea65135b7ff700013c946c,51,2022-02-12_17h56.16.751,lexical_decision_task_DD_L3,2021.2.3,Win32,59.97720866,,,,,,,,,,,0.761,1,,,,,,,,,,,,,,m,1,0.761,,,,,,,,0.514322917,-0.10546875,0,0,0,,0,112,112,2,1,BEARD,HB,old,m,./images/BEARDHB.png,,,,,,,,,,,,,,,,,,,,,,,,,,,,,,,,,,,
,,,,,,,,,,,,,,,,,5bea65135b7ff700013c946c,51,2022-02-12_17h56.16.751,lexical_decision_task_DD_L3,2021.2.3,Win32,59.97720866,,,,,,,,,,,0.8365,1,,,,,,,,,,,,,,m,1,0.8365,,,,,,,,0.514322917,-0.10546875,0,0,0,,0,113,113,68,1,TORCH,HB,old,m,./images/TORCHHB.png,,,,,,,,,,,,,,,,,,,,,,,,,,,,,,,,,,,
,,,,,,,,,,,,,,,,,5bea65135b7ff700013c946c,51,2022-02-12_17h56.16.751,lexical_decision_task_DD_L3,2021.2.3,Win32,59.97720866,,,,,,,,,,,0.6038,1,,,,,,,,,,,,,,m,1,0.6038,,,,,,,,0.514322917,-0.10546875,0,0,0,,0,114,114,21,1,KIDNEY,LB,old,m,./images/KIDNEYLB.png,,,,,,,,,,,,,,,,,,,,,,,,,,,,,,,,,,,
,,,,,,,,,,,,,,,,,5bea65135b7ff700013c946c,51,2022-02-12_17h56.16.751,lexical_decision_task_DD_L3,2021.2.3,Win32,59.97720866,,,,,,,,,,,0.6807,1,,,,,,,,,,,,,,z,1,0.6807,,,,,,,,0.514322917,-0.10546875,0,0,0,,0,115,115,147,1,ZOLES,C,old,z,./images/ZOLES.png,,,,,,,,,,,,,,,,,,,,,,,,,,,,,,,,,,,
,,,,,,,,,,,,,,,,,5bea65135b7ff700013c946c,51,2022-02-12_17h56.16.751,lexical_decision_task_DD_L3,2021.2.3,Win32,59.97720866,,,,,,,,,,,0.6527,1,,,,,,,,,,,,,,z,1,0.6527,,,,,,,,0.514322917,-0.10546875,0,0,0,,0,116,116,95,1,HANTY,LB,old,z,./images/HANTYLB.png,,,,,,,,,,,,,,,,,,,,,,,,,,,,,,,,,,,
,,,,,,,,,,,,,,,,,5bea65135b7ff700013c946c,51,2022-02-12_17h56.16.751,lexical_decision_task_DD_L3,2021.2.3,Win32,59.97720866,,,,,,,,,,,0.745,1,,,,,,,,,,,,,,z,1,0.745,,,,,,,,0.514322917,-0.10546875,0,0,0,,0,117,117,124,1,TUNCH,HB,old,z,./images/TUNCHHB.png,,,,,,,,,,,,,,,,,,,,,,,,,,,,,,,,,,,
,,,,,,,,,,,,,,,,,5bea65135b7ff700013c946c,51,2022-02-12_17h56.16.751,lexical_decision_task_DD_L3,2021.2.3,Win32,59.97720866,,,,,,,,,,,0.6851,1,,,,,,,,,,,,,,z,1,0.6851,,,,,,,,0.514322917,-0.10546875,0,0,0,,0,118,118,122,1,BLOOT,LB,old,z,./images/BLOOTLB.png,,,,,,,,,,,,,,,,,,,,,,,,,,,,,,,,,,,
,,,,,,,,,,,,,,,,,5bea65135b7ff700013c946c,51,2022-02-12_17h56.16.751,lexical_decision_task_DD_L3,2021.2.3,Win32,59.97720866,,,,,,,,,,,0.8491,1,,,,,,,,,,,,,,m,1,0.8491,,,,,,,,0.514322917,-0.10546875,0,0,0,,0,119,119,9,1,RHINO,LB,old,m,./images/RHINOLB.png,,,,,,,,,,,,,,,,,,,,,,,,,,,,,,,,,,,
,,,,,,,,,,,,,,,,,5bea65135b7ff700013c946c,51,2022-02-12_17h56.16.751,lexical_decision_task_DD_L3,2021.2.3,Win32,59.97720866,,,,,,,,,,,0.6814,1,,,,,,,,,,,,,,m,1,0.6814,,,,,,,,0.514322917,-0.10546875,0,0,0,,0,120,120,55,1,MUFFIN,C,old,m,./images/MUFFIN.png,,,,,,,,,,,,,,,,,,,,,,,,,,,,,,,,,,,
,,,,,,,,,,,,,,,,,5bea65135b7ff700013c946c,51,2022-02-12_17h56.16.751,lexical_decision_task_DD_L3,2021.2.3,Win32,59.97720866,,,,,,,,,,,0.6395,1,,,,,,,,,,,,,,m,1,0.6395,,,,,,,,0.514322917,-0.10546875,0,0,0,,0,121,121,46,1,PEARL,C,old,m,./images/PEARL.png,,,,,,,,,,,,,,,,,,,,,,,,,,,,,,,,,,,
,,,,,,,,,,,,,,,,,5bea65135b7ff700013c946c,51,2022-02-12_17h56.16.751,lexical_decision_task_DD_L3,2021.2.3,Win32,59.97720866,,,,,,,,,,,1.5873,1,,,,,,,,,,,,,,z,1,1.5873,,,,,,,,0.514322917,-0.10546875,0,0,0,,0,122,122,151,1,TINKY,HB,old,z,./images/TINKYHB.png,,,,,,,,,,,,,,,,,,,,,,,,,,,,,,,,,,,
,,,,,,,,,,,,,,,,,5bea65135b7ff700013c946c,51,2022-02-12_17h56.16.751,lexical_decision_task_DD_L3,2021.2.3,Win32,59.97720866,,,,,,,,,,,0.7156,1,,,,,,,,,,,,,,m,1,0.7156,,,,,,,,0.514322917,-0.10546875,0,0,0,,0,123,123,76,1,INFANT,C,old,m,./images/INFANT.png,,,,,,,,,,,,,,,,,,,,,,,,,,,,,,,,,,,
,,,,,,,,,,,,,,,,,5bea65135b7ff700013c946c,51,2022-02-12_17h56.16.751,lexical_decision_task_DD_L3,2021.2.3,Win32,59.97720866,,,,,,,,,,,0.6762,1,,,,,,,,,,,,,,z,1,0.6762,,,,,,,,0.514322917,-0.10546875,0,0,0,,0,124,124,141,1,PLEET,C,old,z,./images/PLEET.png,,,,,,,,,,,,,,,,,,,,,,,,,,,,,,,,,,,
,,,,,,,,,,,,,,,,,5bea65135b7ff700013c946c,51,2022-02-12_17h56.16.751,lexical_decision_task_DD_L3,2021.2.3,Win32,59.97720866,,,,,,,,,,,0.9374,1,,,,,,,,,,,,,,z,1,0.9374,,,,,,,,0.514322917,-0.10546875,0,0,0,space,0,125,125,130,1,CRILL,HB,old,z,./images/CRILLHB.png,4.1684,,,,,,,,,,,,,,,,,,,,,,,,,,,,,,,,,,
,,,,,,,,,,,,,,,,,5bea65135b7ff700013c946c,51,2022-02-12_17h56.16.751,lexical_decision_task_DD_L3,2021.2.3,Win32,59.97720866,,,,,,,,,,,0.6457,1,,,,,,,,,,,,,,m,1,0.6457,,,,,,,,0.514322917,-0.10546875,0,0,0,,0,126,126,25,1,WRIST,C,old,m,./images/WRIST.png,,,,,,,,,,,,,,,,,,,,,,,,,,,,,,,,,,,
,,,,,,,,,,,,,,,,,5bea65135b7ff700013c946c,51,2022-02-12_17h56.16.751,lexical_decision_task_DD_L3,2021.2.3,Win32,59.97720866,,,,,,,,,,,0.6538,1,,,,,,,,,,,,,,m,1,0.6538,,,,,,,,0.514322917,-0.10546875,0,0,0,,0,127,127,39,1,SHELF,LB,old,m,./images/SHELFLB.png,,,,,,,,,,,,,,,,,,,,,,,,,,,,,,,,,,,
,,,,,,,,,,,,,,,,,5bea65135b7ff700013c946c,51,2022-02-12_17h56.16.751,lexical_decision_task_DD_L3,2021.2.3,Win32,59.97720866,,,,,,,,,,,0.54,1,,,,,,,,,,,,,,m,1,0.54,,,,,,,,0.514322917,-0.10546875,0,0,0,,0,128,128,82,1,SUNSET,C,old,m,./images/SUNSET.png,,,,,,,,,,,,,,,,,,,,,,,,,,,,,,,,,,,
,,,,,,,,,,,,,,,,,5bea65135b7ff700013c946c,51,2022-02-12_17h56.16.751,lexical_decision_task_DD_L3,2021.2.3,Win32,59.97720866,,,,,,,,,,,0.7772,1,,,,,,,,,,,,,,m,1,0.7772,,,,,,,,0.514322917,-0.10546875,0,0,0,,0,129,129,5,1,PASTA,HB,old,m,./images/PASTAHB.png,,,,,,,,,,,,,,,,,,,,,,,,,,,,,,,,,,,
,,,,,,,,,,,,,,,,,5bea65135b7ff700013c946c,51,2022-02-12_17h56.16.751,lexical_decision_task_DD_L3,2021.2.3,Win32,59.97720866,,,,,,,,,,,0.8118,1,,,,,,,,,,,,,,z,1,0.8118,,,,,,,,0.514322917,-0.10546875,0,0,0,,0,130,130,91,1,SHENS,HB,old,z,./images/SHENSHB.png,,,,,,,,,,,,,,,,,,,,,,,,,,,,,,,,,,,
,,,,,,,,,,,,,,,,,5bea65135b7ff700013c946c,51,2022-02-12_17h56.16.751,lexical_decision_task_DD_L3,2021.2.3,Win32,59.97720866,,,,,,,,,,,0.6202,1,,,,,,,,,,,,,,m,1,0.6202,,,,,,,,0.514322917,-0.10546875,0,0,0,,0,131,131,64,1,JELLY,C,old,m,./images/JELLY.png,,,,,,,,,,,,,,,,,,,,,,,,,,,,,,,,,,,
,,,,,,,,,,,,,,,,,5bea65135b7ff700013c946c,51,2022-02-12_17h56.16.751,lexical_decision_task_DD_L3,2021.2.3,Win32,59.97720866,,,,,,,,,,,0.6953,1,,,,,,,,,,,,,,z,1,0.6953,,,,,,,,0.514322917,-0.10546875,0,0,0,,0,132,132,162,1,LEICH,C,old,z,./images/LEICH.png,,,,,,,,,,,,,,,,,,,,,,,,,,,,,,,,,,,
,,,,,,,,,,,,,,,,,5bea65135b7ff700013c946c,51,2022-02-12_17h56.16.751,lexical_decision_task_DD_L3,2021.2.3,Win32,59.97720866,,,,,,,,,,,0.9622,1,,,,,,,,,,,,,,m,1,0.9622,,,,,,,,0.514322917,-0.10546875,0,0,0,,0,133,133,80,1,WEASEL,HB,old,m,./images/WEASELHB.png,,,,,,,,,,,,,,,,,,,,,,,,,,,,,,,,,,,
,,,,,,,,,,,,,,,,,5bea65135b7ff700013c946c,51,2022-02-12_17h56.16.751,lexical_decision_task_DD_L3,2021.2.3,Win32,59.97720866,,,,,,,,,,,0.7818,1,,,,,,,,,,,,,,z,1,0.7818,,,,,,,,0.514322917,-0.10546875,0,0,0,,0,134,134,98,1,BAMPS,LB,old,z,./images/BAMPSLB.png,,,,,,,,,,,,,,,,,,,,,,,,,,,,,,,,,,,
,,,,,,,,,,,,,,,,,5bea65135b7ff700013c946c,51,2022-02-12_17h56.16.751,lexical_decision_task_DD_L3,2021.2.3,Win32,59.97720866,,,,,,,,,,,0.6644,1,,,,,,,,,,,,,,z,1,0.6644,,,,,,,,0.514322917,-0.10546875,0,0,0,,0,135,135,132,1,SCIFF,C,old,z,./images/SCIFF.png,,,,,,,,,,,,,,,,,,,,,,,,,,,,,,,,,,,
,,,,,,,,,,,,,,,,,5bea65135b7ff700013c946c,51,2022-02-12_17h56.16.751,lexical_decision_task_DD_L3,2021.2.3,Win32,59.97720866,,,,,,,,,,,0.7654,1,,,,,,,,,,,,,,m,1,0.7654,,,,,,,,0.514322917,-0.10546875,0,0,0,,0,136,136,14,1,PICKLE,HB,old,m,./images/PICKLEHB.png,,,,,,,,,,,,,,,,,,,,,,,,,,,,,,,,,,,
,,,,,,,,,,,,,,,,,5bea65135b7ff700013c946c,51,2022-02-12_17h56.16.751,lexical_decision_task_DD_L3,2021.2.3,Win32,59.97720866,,,,,,,,,,,0.6385,1,,,,,,,,,,,,,,z,1,0.6385,,,,,,,,0.514322917,-0.10546875,0,0,0,,0,137,137,156,1,HIXES,C,old,z,./images/HIXES.png,,,,,,,,,,,,,,,,,,,,,,,,,,,,,,,,,,,
,,,,,,,,,,,,,,,,,5bea65135b7ff700013c946c,51,2022-02-12_17h56.16.751,lexical_decision_task_DD_L3,2021.2.3,Win32,59.97720866,,,,,,,,,,,0.9685,1,,,,,,,,,,,,,,z,1,0.9685,,,,,,,,0.514322917,-0.10546875,0,0,0,,0,138,138,112,1,MYING,HB,old,z,./images/MYINGHB.png,,,,,,,,,,,,,,,,,,,,,,,,,,,,,,,,,,,
,,,,,,,,,,,,,,,,,5bea65135b7ff700013c946c,51,2022-02-12_17h56.16.751,lexical_decision_task_DD_L3,2021.2.3,Win32,59.97720866,,,,,,,,,,,0.7841,1,,,,,,,,,,,,,,z,1,0.7841,,,,,,,,0.514322917,-0.10546875,0,0,0,,0,139,139,125,1,MOOKY,LB,old,z,./images/MOOKYLB.png,,,,,,,,,,,,,,,,,,,,,,,,,,,,,,,,,,,
,,,,,,,,,,,,,,,,,5bea65135b7ff700013c946c,51,2022-02-12_17h56.16.751,lexical_decision_task_DD_L3,2021.2.3,Win32,59.97720866,,,,,,,,,,,0.8357,1,,,,,,,,,,,,,,m,1,0.8357,,,,,,,,0.514322917,-0.10546875,0,0,0,,0,140,140,56,1,PACKET,HB,old,m,./images/PACKETHB.png,,,,,,,,,,,,,,,,,,,,,,,,,,,,,,,,,,,
,,,,,,,,,,,,,,,,,5bea65135b7ff700013c946c,51,2022-02-12_17h56.16.751,lexical_decision_task_DD_L3,2021.2.3,Win32,59.97720866,,,,,,,,,,,0.6783,1,,,,,,,,,,,,,,z,1,0.6783,,,,,,,,0.514322917,-0.10546875,0,0,0,,0,141,141,96,1,KEAMS,C,old,z,./images/KEAMS.png,,,,,,,,,,,,,,,,,,,,,,,,,,,,,,,,,,,
,,,,,,,,,,,,,,,,,5bea65135b7ff700013c946c,51,2022-02-12_17h56.16.751,lexical_decision_task_DD_L3,2021.2.3,Win32,59.97720866,,,,,,,,,,,0.8765,1,,,,,,,,,,,,,,z,1,0.8765,,,,,,,,0.514322917,-0.10546875,0,0,0,,0,142,142,135,1,JOODY,C,old,z,./images/JOODY.png,,,,,,,,,,,,,,,,,,,,,,,,,,,,,,,,,,,
,,,,,,,,,,,,,,,,,5bea65135b7ff700013c946c,51,2022-02-12_17h56.16.751,lexical_decision_task_DD_L3,2021.2.3,Win32,59.97720866,,,,,,,,,,,1.2573,1,,,,,,,,,,,,,,m,1,1.2573,,,,,,,,0.514322917,-0.10546875,0,0,0,,0,143,143,16,1,PENCE,C,old,m,./images/PENCE.png,,,,,,,,,,,,,,,,,,,,,,,,,,,,,,,,,,,
,,,,,,,,,,,,,,,,,5bea65135b7ff700013c946c,51,2022-02-12_17h56.16.751,lexical_decision_task_DD_L3,2021.2.3,Win32,59.97720866,,,,,,,,,,,0.7939,1,,,,,,,,,,,,,,m,1,0.7939,,,,,,,,0.514322917,-0.10546875,0,0,0,,0,144,144,66,1,SWEAT,LB,old,m,./images/SWEATLB.png,,,,,,,,,,,,,,,,,,,,,,,,,,,,,,,,,,,
,,,,,,,,,,,,,,,,,5bea65135b7ff700013c946c,51,2022-02-12_17h56.16.751,lexical_decision_task_DD_L3,2021.2.3,Win32,59.97720866,,,,,,,,,,,0.775,1,,,,,,,,,,,,,,m,1,0.775,,,,,,,,0.514322917,-0.10546875,0,0,0,,0,145,145,19,1,DOUGH,C,old,m,./images/DOUGH.png,,,,,,,,,,,,,,,,,,,,,,,,,,,,,,,,,,,
,,,,,,,,,,,,,,,,,5bea65135b7ff700013c946c,51,2022-02-12_17h56.16.751,lexical_decision_task_DD_L3,2021.2.3,Win32,59.97720866,,,,,,,,,,,1.0897,1,,,,,,,,,,,,,,z,1,1.0897,,,,,,,,0.514322917,-0.10546875,0,0,0,,0,146,146,154,1,THINT,HB,old,z,./images/THINTHB.png,,,,,,,,,,,,,,,,,,,,,,,,,,,,,,,,,,,
,,,,,,,,,,,,,,,,,5bea65135b7ff700013c946c,51,2022-02-12_17h56.16.751,lexical_decision_task_DD_L3,2021.2.3,Win32,59.97720866,,,,,,,,,,,0.7099,1,,,,,,,,,,,,,,z,1,0.7099,,,,,,,,0.514322917,-0.10546875,0,0,0,,0,147,147,167,1,ZONET,LB,old,z,./images/ZONETLB.png,,,,,,,,,,,,,,,,,,,,,,,,,,,,,,,,,,,
,,,,,,,,,,,,,,,,,5bea65135b7ff700013c946c,51,2022-02-12_17h56.16.751,lexical_decision_task_DD_L3,2021.2.3,Win32,59.97720866,,,,,,,,,,,0.7406,1,,,,,,,,,,,,,,m,1,0.7406,,,,,,,,0.514322917,-0.10546875,0,0,0,,0,148,148,45,1,KITTEN,LB,old,m,./images/KITTENLB.png,,,,,,,,,,,,,,,,,,,,,,,,,,,,,,,,,,,
,,,,,,,,,,,,,,,,,5bea65135b7ff700013c946c,51,2022-02-12_17h56.16.751,lexical_decision_task_DD_L3,2021.2.3,Win32,59.97720866,,,,,,,,,,,0.6911,1,,,,,,,,,,,,,,m,1,0.6911,,,,,,,,0.514322917,-0.10546875,0,0,0,,0,149,149,13,1,MOTOR,C,old,m,./images/MOTOR.png,,,,,,,,,,,,,,,,,,,,,,,,,,,,,,,,,,,
,,,,,,,,,,,,,,,,,5bea65135b7ff700013c946c,51,2022-02-12_17h56.16.751,lexical_decision_task_DD_L3,2021.2.3,Win32,59.97720866,,,,,,,,,,,0.941,1,,,,,,,,,,,,,,m,1,0.941,,,,,,,,0.514322917,-0.10546875,0,0,0,,0,150,150,20,1,CRADLE,HB,old,m,./images/CRADLEHB.png,,,,,,,,,,,,,,,,,,,,,,,,,,,,,,,,,,,
,,,,,,,,,,,,,,,,,5bea65135b7ff700013c946c,51,2022-02-12_17h56.16.751,lexical_decision_task_DD_L3,2021.2.3,Win32,59.97720866,,,,,,,,,,,0.9425,1,,,,,,,,,,,,,,z,1,0.9425,,,,,,,,0.514322917,-0.10546875,0,0,0,,0,151,151,163,1,GAMBA,HB,old,z,./images/GAMBAHB.png,,,,,,,,,,,,,,,,,,,,,,,,,,,,,,,,,,,
,,,,,,,,,,,,,,,,,5bea65135b7ff700013c946c,51,2022-02-12_17h56.16.751,lexical_decision_task_DD_L3,2021.2.3,Win32,59.97720866,,,,,,,,,,,1.0203,1,,,,,,,,,,,,,,z,1,1.0203,,,,,,,,0.514322917,-0.10546875,0,0,0,,0,152,152,142,1,PLASK,HB,old,z,./images/PLASKHB.png,,,,,,,,,,,,,,,,,,,,,,,,,,,,,,,,,,,
,,,,,,,,,,,,,,,,,5bea65135b7ff700013c946c,51,2022-02-12_17h56.16.751,lexical_decision_task_DD_L3,2021.2.3,Win32,59.97720866,,,,,,,,,,,0.7614,1,,,,,,,,,,,,,,m,1,0.7614,,,,,,,,0.514322917,-0.10546875,0,0,0,,0,153,153,51,1,ONION,LB,old,m,./images/ONIONLB.png,,,,,,,,,,,,,,,,,,,,,,,,,,,,,,,,,,,
,,,,,,,,,,,,,,,,,5bea65135b7ff700013c946c,51,2022-02-12_17h56.16.751,lexical_decision_task_DD_L3,2021.2.3,Win32,59.97720866,,,,,,,,,,,0.94,1,,,,,,,,,,,,,,z,1,0.94,,,,,,,,0.514322917,-0.10546875,0,0,0,,0,154,154,159,1,CUDDY,C,old,z,./images/CUDDY.png,,,,,,,,,,,,,,,,,,,,,,,,,,,,,,,,,,,
,,,,,,,,,,,,,,,,,5bea65135b7ff700013c946c,51,2022-02-12_17h56.16.751,lexical_decision_task_DD_L3,2021.2.3,Win32,59.97720866,,,,,,,,,,,0.6919,1,,,,,,,,,,,,,,z,1,0.6919,,,,,,,,0.514322917,-0.10546875,0,0,0,,0,155,155,123,1,SEDGE,C,old,z,./images/SEDGE.png,,,,,,,,,,,,,,,,,,,,,,,,,,,,,,,,,,,
,,,,,,,,,,,,,,,,,5bea65135b7ff700013c946c,51,2022-02-12_17h56.16.751,lexical_decision_task_DD_L3,2021.2.3,Win32,59.97720866,,,,,,,,,,,0.6708,1,,,,,,,,,,,,,,m,1,0.6708,,,,,,,,0.514322917,-0.10546875,0,0,0,,0,156,156,54,1,TRIPOD,LB,old,m,./images/TRIPODLB.png,,,,,,,,,,,,,,,,,,,,,,,,,,,,,,,,,,,
,,,,,,,,,,,,,,,,,5bea65135b7ff700013c946c,51,2022-02-12_17h56.16.751,lexical_decision_task_DD_L3,2021.2.3,Win32,59.97720866,,,,,,,,,,,0.7582,1,,,,,,,,,,,,,,z,1,0.7582,,,,,,,,0.514322917,-0.10546875,0,0,0,,0,157,157,152,1,FRAIN,LB,old,z,./images/FRAINLB.png,,,,,,,,,,,,,,,,,,,,,,,,,,,,,,,,,,,
,,,,,,,,,,,,,,,,,5bea65135b7ff700013c946c,51,2022-02-12_17h56.16.751,lexical_decision_task_DD_L3,2021.2.3,Win32,59.97720866,,,,,,,,,,,0.6767,1,,,,,,,,,,,,,,z,1,0.6767,,,,,,,,0.514322917,-0.10546875,0,0,0,,0,158,158,165,1,TROWN,C,old,z,./images/TROWN.png,,,,,,,,,,,,,,,,,,,,,,,,,,,,,,,,,,,
,,,,,,,,,,,,,,,,,5bea65135b7ff700013c946c,51,2022-02-12_17h56.16.751,lexical_decision_task_DD_L3,2021.2.3,Win32,59.97720866,,,,,,,,,,,0.6738,1,,,,,,,,,,,,,,z,1,0.6738,,,,,,,,0.514322917,-0.10546875,0,0,0,,0,159,159,99,1,BACKY,C,old,z,./images/BACKY.png,,,,,,,,,,,,,,,,,,,,,,,,,,,,,,,,,,,
,,,,,,,,,,,,,,,,,5bea65135b7ff700013c946c,51,2022-02-12_17h56.16.751,lexical_decision_task_DD_L3,2021.2.3,Win32,59.97720866,,,,,,,,,,,0.9526,1,,,,,,,,,,,,,,m,1,0.9526,,,,,,,,0.514322917,-0.10546875,0,0,0,,0,160,160,65,1,FARMER,HB,old,m,./images/FARMERHB.png,,,,,,,,,,,,,,,,,,,,,,,,,,,,,,,,,,,
,,,,,,,,,,,,,,,,,5bea65135b7ff700013c946c,51,2022-02-12_17h56.16.751,lexical_decision_task_DD_L3,2021.2.3,Win32,59.97720866,,,,,,,,,,,0.6143,1,,,,,,,,,,,,,,m,1,0.6143,,,,,,,,0.514322917,-0.10546875,0,0,0,,0,161,161,61,1,CANDLE,C,old,m,./images/CANDLE.png,,,,,,,,,,,,,,,,,,,,,,,,,,,,,,,,,,,
,,,,,,,,,,,,,,,,,5bea65135b7ff700013c946c,51,2022-02-12_17h56.16.751,lexical_decision_task_DD_L3,2021.2.3,Win32,59.97720866,,,,,,,,,,,0.6563,1,,,,,,,,,,,,,,z,1,0.6563,,,,,,,,0.514322917,-0.10546875,0,0,0,,0,162,162,133,1,POWDY,HB,old,z,./images/POWDYHB.png,,,,,,,,,,,,,,,,,,,,,,,,,,,,,,,,,,,
,,,,,,,,,,,,,,,,,5bea65135b7ff700013c946c,51,2022-02-12_17h56.16.751,lexical_decision_task_DD_L3,2021.2.3,Win32,59.97720866,,,,,,,,,,,0.8279,1,,,,,,,,,,,,,,m,1,0.8279,,,,,,,,0.514322917,-0.10546875,0,0,0,,0,163,163,44,1,LIZARD,HB,old,m,./images/LIZARDHB.png,,,,,,,,,,,,,,,,,,,,,,,,,,,,,,,,,,,
,,,,,,,,,,,,,,,,,5bea65135b7ff700013c946c,51,2022-02-12_17h56.16.751,lexical_decision_task_DD_L3,2021.2.3,Win32,59.97720866,,,,,,,,,,,1.3064,1,,,,,,,,,,,,,,z,1,1.3064,,,,,,,,0.514322917,-0.10546875,0,0,0,,0,164,164,97,1,CHIDS,HB,old,z,./images/CHIDSHB.png,,,,,,,,,,,,,,,,,,,,,,,,,,,,,,,,,,,
,,,,,,,,,,,,,,,,,5bea65135b7ff700013c946c,51,2022-02-12_17h56.16.751,lexical_decision_task_DD_L3,2021.2.3,Win32,59.97720866,,,,,,,,,,,0.802,1,,,,,,,,,,,,,,z,1,0.802,,,,,,,,0.514322917,-0.10546875,0,0,0,,0,165,165,114,1,RIKES,C,old,z,./images/RIKES.png,,,,,,,,,,,,,,,,,,,,,,,,,,,,,,,,,,,
,,,,,,,,,,,,,,,,,5bea65135b7ff700013c946c,51,2022-02-12_17h56.16.751,lexical_decision_task_DD_L3,2021.2.3,Win32,59.97720866,,,,,,,,,,,0.6975,1,,,,,,,,,,,,,,z,1,0.6975,,,,,,,,0.514322917,-0.10546875,0,0,0,,0,166,166,138,1,PLICE,C,old,z,./images/PLICE.png,,,,,,,,,,,,,,,,,,,,,,,,,,,,,,,,,,,
,,,,,,,,,,,,,,,,,5bea65135b7ff700013c946c,51,2022-02-12_17h56.16.751,lexical_decision_task_DD_L3,2021.2.3,Win32,59.97720866,,,,,,,,,,,0.9909,1,,,,,,,,,,,,,,m,1,0.9909,,,,,,,,0.514322917,-0.10546875,0,0,0,,0,167,167,26,1,SMOKER,HB,old,m,./images/SMOKERHB.png,,,,,,,,,,,,,,,,,,,,,,,,,,,,,,,,,,,
,,,,,,,,,,,,,,,,,5bea65135b7ff700013c946c,51,2022-02-12_17h56.16.751,lexical_decision_task_DD_L3,2021.2.3,Win32,59.97720866,,,,,,,,,,,,,,,,,,,,,,,,,,,,,,,,,,,,,,,,,,,,,,,,How likely will it be that you will recognize the words presented slighly blurred on a scale of 0 (not likely) to 100 (most likely)?,,,,,-0.002604167,-0.412760417,1,0,0,jol_adv,6,8.0823,0,0,0,1,1,,,,,,,,,,,,,,,,,,,,,
,,,,,,,,,,,,,,,,,5bea65135b7ff700013c946c,51,2022-02-12_17h56.16.751,lexical_decision_task_DD_L3,2021.2.3,Win32,59.97720866,,,,,,,,,,,,,,,,,,,,,,,,,,,,,,,,,,,,,,,,,,,,,,,,How likely will it be that you will recognize the words presented clearly on a scale of 0 (not likely) to 100 (most likely)?,,,,,,,,,,,6,6.8981,0,1,1,0,1,,,,,,,,,,,,,,,,,,,,,
,,,,,,,,,,,,,,,,,5bea65135b7ff700013c946c,51,2022-02-12_17h56.16.751,lexical_decision_task_DD_L3,2021.2.3,Win32,59.97720866,,,,,,,,,,,,,,,,,,,,,,,,,,,,,,,,,,,,,,,,,,,,,,,,How likely will it be that you will recognize the words presented very blurred on a scale of 0 (not likely) to 100 (most likely)?,,,,,,,,,,,6,7.3413,0,2,2,2,1,,,,,,,,,,,,,,,,,,,,,
space,20.2401,0.403645833,-0.19921875,0,0,0,,,,,,1,test,"In the next phase you will be presented with the words from the the first phase. Your job is to decide whether you remember seeing the word or not. If you remember seeing the word press ""old"" or type ""m"". If you do not remember seeing the word press ""new"" or type ""z"". Please press the space bar or click on continue to begin. ",,,5bea65135b7ff700013c946c,51,2022-02-12_17h56.16.751,lexical_decision_task_DD_L3,2021.2.3,Win32,59.97720866,,,,,,,,,,,,,,,,,,,,,,,,,,,,,,,,,,,,,,,,,,,,,,,,,,,,,,,,,,,,,,,,,,0,0,0,0,1,,,,,,,,,,,,,,,,
,,0.0546875,-0.380208333,1,0,0,,,,,,1,test,"In the next phase you will be presented with the words from the the first phase. Your job is to decide whether you remember seeing the word or not. If you remember seeing the word press ""old"" or type ""m"". If you do not remember seeing the word press ""new"" or type ""z"". Please press the space bar or click on continue to begin. ",,,5bea65135b7ff700013c946c,51,2022-02-12_17h56.16.751,lexical_decision_task_DD_L3,2021.2.3,Win32,59.97720866,,,,,,,,,,,,,,,,,,,,,,,,,,,,,,,,,,,,,,,,,,,,,,,,,,,,,,,,,,,,,,,,,,1,0,1,0,1,instr_done_button,,,,,,,,,,,,,,,
,,-0.024739583,-0.40234375,1,0,0,,,,,,1,test,"In the next phase you will be presented with the words from the the first phase. Your job is to decide whether you remember seeing the word or not. If you remember seeing the word press ""old"" or type ""m"". If you do not remember seeing the word press ""new"" or type ""z"". Please press the space bar or click on continue to begin. ",,,5bea65135b7ff700013c946c,51,2022-02-12_17h56.16.751,lexical_decision_task_DD_L3,2021.2.3,Win32,59.97720866,,,,,,,,,,,,,,,,,,,,,,,,,,,,,,,,,,,,,,,,,,,,,,,,,,,,,,,,,,,,,,,,,,2,0,2,0,1,instr_done_button,,,,,,,,,,,,,,,
space,1.7724,0.505208333,-0.182291667,0,0,0,,,,,,1,test,"In the next phase you will be presented with the words from the the first phase. Your job is to decide whether you remember seeing the word or not. If you remember seeing the word press ""old"" or type ""m"". If you do not remember seeing the word press ""new"" or type ""z"". Please press the space bar or click on continue to begin. ",,,5bea65135b7ff700013c946c,51,2022-02-12_17h56.16.751,lexical_decision_task_DD_L3,2021.2.3,Win32,59.97720866,,,,,,,,,,,,,,,,,,,,,,,,,,,,,,,,,,,,,,,,,,,,,,,,,,,,,,,,,,,,,,,,,,3,0,3,0,1,,,,,,,,,,,,,,,,
space,4.147,0.505208333,-0.182291667,0,0,0,,,,,,1,test,"In the next phase you will be presented with the words from the the first phase. Your job is to decide whether you remember seeing the word or not. If you remember seeing the word press ""old"" or type ""m"". If you do not remember seeing the word press ""new"" or type ""z"". Please press the space bar or click on continue to begin. ",,,5bea65135b7ff700013c946c,51,2022-02-12_17h56.16.751,lexical_decision_task_DD_L3,2021.2.3,Win32,59.97720866,,,,,,,,,,,,,,,,,,,,,,,,,,,,,,,,,,,,,,,,,,,,,,,,,,,,,,,,,,,,,,,,,,4,0,4,0,1,,,,,,,,,,,,,,,,
,,,,,,,,,,,,,,,,,5bea65135b7ff700013c946c,51,2022-02-12_17h56.16.751,lexical_decision_task_DD_L3,2021.2.3,Win32,59.97720866,,,,,,,,,,,1.8542,1,,,,,,,,,,,,,,,,,,,,,,,,0.505208333,-0.182291667,0,0,0,,,,,,,PIMPLE,HB,m,m,./images/PIMPLEHB.png,,,,,,,,,,,,,,,,,,,,,m,1,1.8542,,,,,,,,0,0,0,71,1
,,,,,,,,,,,,,,,,,5bea65135b7ff700013c946c,51,2022-02-12_17h56.16.751,lexical_decision_task_DD_L3,2021.2.3,Win32,59.97720866,,,,,,,,,,,1.2362,1,,,,,,,,,,,,,,,,,,,,,,,,0.505208333,-0.182291667,0,0,0,,,,,,,POKER,C,z,m,./images/POKER.png,,,,,,,,,,,,,,,,,,,,,z,1,1.2362,,,,,,,,0,1,1,151,1
,,,,,,,,,,,,,,,,,5bea65135b7ff700013c946c,51,2022-02-12_17h56.16.751,lexical_decision_task_DD_L3,2021.2.3,Win32,59.97720866,,,,,,,,,,,1.1291,1,,,,,,,,,,,,,,,,,,,,,,,,0.505208333,-0.182291667,0,0,0,,,,,,,JUMPER,HB,z,m,./images/JUMPERHB.png,,,,,,,,,,,,,,,,,,,,,z,1,1.1291,,,,,,,,0,2,2,158,1
,,,,,,,,,,,,,,,,,5bea65135b7ff700013c946c,51,2022-02-12_17h56.16.751,lexical_decision_task_DD_L3,2021.2.3,Win32,59.97720866,,,,,,,,,,,0.6958,0,,,,,,,,,,,,,,,,,,,,,,,,0.505208333,-0.182291667,0,0,0,,,,,,,PARCEL,LB,z,m,./images/PARCELLB.png,,,,,,,,,,,,,,,,,,,,,m,0,0.6958,,,,,,,,0,3,3,102,1
,,,,,,,,,,,,,,,,,5bea65135b7ff700013c946c,51,2022-02-12_17h56.16.751,lexical_decision_task_DD_L3,2021.2.3,Win32,59.97720866,,,,,,,,,,,1.1315,1,,,,,,,,,,,,,,,,,,,,,,,,0.505208333,-0.182291667,0,0,0,,,,,,,DESERT,C,z,m,./images/DESERT.png,,,,,,,,,,,,,,,,,,,,,z,1,1.1315,,,,,,,,0,4,4,136,1
,,,,,,,,,,,,,,,,,5bea65135b7ff700013c946c,51,2022-02-12_17h56.16.751,lexical_decision_task_DD_L3,2021.2.3,Win32,59.97720866,,,,,,,,,,,1.0459,1,,,,,,,,,,,,,,,,,,,,,,,,0.505208333,-0.182291667,0,0,0,,,,,,,WAGON,C,z,m,./images/WAGON.png,,,,,,,,,,,,,,,,,,,,,z,1,1.0459,,,,,,,,0,5,5,91,1
,,,,,,,,,,,,,,,,,5bea65135b7ff700013c946c,51,2022-02-12_17h56.16.751,lexical_decision_task_DD_L3,2021.2.3,Win32,59.97720866,,,,,,,,,,,0.8507,1,,,,,,,,,,,,,,,,,,,,,,,,0.505208333,-0.182291667,0,0,0,,,,,,,BELLY,C,m,m,./images/BELLY.png,,,,,,,,,,,,,,,,,,,,,m,1,0.8507,,,,,,,,0,6,6,10,1
,,,,,,,,,,,,,,,,,5bea65135b7ff700013c946c,51,2022-02-12_17h56.16.751,lexical_decision_task_DD_L3,2021.2.3,Win32,59.97720866,,,,,,,,,,,1.0976,0,,,,,,,,,,,,,,,,,,,,,,,,0.505208333,-0.182291667,0,0,0,,,,,,,MIRROR,LB,m,m,./images/MIRRORLB.png,,,,,,,,,,,,,,,,,,,,,z,0,1.0976,,,,,,,,0,7,7,63,1
,,,,,,,,,,,,,,,,,5bea65135b7ff700013c946c,51,2022-02-12_17h56.16.751,lexical_decision_task_DD_L3,2021.2.3,Win32,59.97720866,,,,,,,,,,,0.8043,1,,,,,,,,,,,,,,,,,,,,,,,,0.505208333,-0.182291667,0,0,0,,,,,,,CANOE,C,z,m,./images/CANOE.png,,,,,,,,,,,,,,,,,,,,,z,1,0.8043,,,,,,,,0,8,8,142,1
,,,,,,,,,,,,,,,,,5bea65135b7ff700013c946c,51,2022-02-12_17h56.16.751,lexical_decision_task_DD_L3,2021.2.3,Win32,59.97720866,,,,,,,,,,,0.9658,1,,,,,,,,,,,,,,,,,,,,,,,,0.505208333,-0.182291667,0,0,0,,,,,,,CLOTH,HB,z,m,./images/CLOTHHB.png,,,,,,,,,,,,,,,,,,,,,z,1,0.9658,,,,,,,,0,9,9,107,1
,,,,,,,,,,,,,,,,,5bea65135b7ff700013c946c,51,2022-02-12_17h56.16.751,lexical_decision_task_DD_L3,2021.2.3,Win32,59.97720866,,,,,,,,,,,1.2867,0,,,,,,,,,,,,,,,,,,,,,,,,0.505208333,-0.182291667,0,0,0,,,,,,,PISTOL,HB,z,m,./images/PISTOLHB.png,,,,,,,,,,,,,,,,,,,,,m,0,1.2867,,,,,,,,0,10,10,113,1
,,,,,,,,,,,,,,,,,5bea65135b7ff700013c946c,51,2022-02-12_17h56.16.751,lexical_decision_task_DD_L3,2021.2.3,Win32,59.97720866,,,,,,,,,,,1.8281,1,,,,,,,,,,,,,,,,,,,,,,,,0.505208333,-0.182291667,0,0,0,,,,,,,GLOVE,C,z,m,./images/GLOVE.png,,,,,,,,,,,,,,,,,,,,,z,1,1.8281,,,,,,,,0,11,11,157,1
,,,,,,,,,,,,,,,,,5bea65135b7ff700013c946c,51,2022-02-12_17h56.16.751,lexical_decision_task_DD_L3,2021.2.3,Win32,59.97720866,,,,,,,,,,,0.9845,1,,,,,,,,,,,,,,,,,,,,,,,,0.505208333,-0.182291667,0,0,0,,,,,,,GRANNY,HB,z,m,./images/GRANNYHB.png,,,,,,,,,,,,,,,,,,,,,z,1,0.9845,,,,,,,,0,12,12,104,1
,,,,,,,,,,,,,,,,,5bea65135b7ff700013c946c,51,2022-02-12_17h56.16.751,lexical_decision_task_DD_L3,2021.2.3,Win32,59.97720866,,,,,,,,,,,0.8138,1,,,,,,,,,,,,,,,,,,,,,,,,0.505208333,-0.182291667,0,0,0,,,,,,,SWING,C,m,m,./images/SWING.png,,,,,,,,,,,,,,,,,,,,,m,1,0.8138,,,,,,,,0,13,13,40,1
,,,,,,,,,,,,,,,,,5bea65135b7ff700013c946c,51,2022-02-12_17h56.16.751,lexical_decision_task_DD_L3,2021.2.3,Win32,59.97720866,,,,,,,,,,,1.072,1,,,,,,,,,,,,,,,,,,,,,,,,0.505208333,-0.182291667,0,0,0,,,,,,,FLESH,LB,z,m,./images/FLESHLB.png,,,,,,,,,,,,,,,,,,,,,z,1,1.072,,,,,,,,0,14,14,108,1
,,,,,,,,,,,,,,,,,5bea65135b7ff700013c946c,51,2022-02-12_17h56.16.751,lexical_decision_task_DD_L3,2021.2.3,Win32,59.97720866,,,,,,,,,,,1.0501,1,,,,,,,,,,,,,,,,,,,,,,,,0.505208333,-0.182291667,0,0,0,,,,,,,CHERRY,LB,z,m,./images/CHERRYLB.png,,,,,,,,,,,,,,,,,,,,,z,1,1.0501,,,,,,,,0,15,15,138,1
,,,,,,,,,,,,,,,,,5bea65135b7ff700013c946c,51,2022-02-12_17h56.16.751,lexical_decision_task_DD_L3,2021.2.3,Win32,59.97720866,,,,,,,,,,,0.8344,0,,,,,,,,,,,,,,,,,,,,,,,,0.505208333,-0.182291667,0,0,0,,,,,,,ENGINE,HB,z,m,./images/ENGINEHB.png,,,,,,,,,,,,,,,,,,,,,m,0,0.8344,,,,,,,,0,16,16,122,1
,,,,,,,,,,,,,,,,,5bea65135b7ff700013c946c,51,2022-02-12_17h56.16.751,lexical_decision_task_DD_L3,2021.2.3,Win32,59.97720866,,,,,,,,,,,0.9172,1,,,,,,,,,,,,,,,,,,,,,,,,0.505208333,-0.182291667,0,0,0,,,,,,,MALLET,HB,m,m,./images/MALLETHB.png,,,,,,,,,,,,,,,,,,,,,m,1,0.9172,,,,,,,,0,17,17,50,1
,,,,,,,,,,,,,,,,,5bea65135b7ff700013c946c,51,2022-02-12_17h56.16.751,lexical_decision_task_DD_L3,2021.2.3,Win32,59.97720866,,,,,,,,,,,1.0763,0,,,,,,,,,,,,,,,,,,,,,,,,0.505208333,-0.182291667,0,0,0,,,,,,,RAZOR,C,z,m,./images/RAZOR.png,,,,,,,,,,,,,,,,,,,,,m,0,1.0763,,,,,,,,0,18,18,118,1
,,,,,,,,,,,,,,,,,5bea65135b7ff700013c946c,51,2022-02-12_17h56.16.751,lexical_decision_task_DD_L3,2021.2.3,Win32,59.97720866,,,,,,,,,,,0.9095,1,,,,,,,,,,,,,,,,,,,,,,,,0.505208333,-0.182291667,0,0,0,,,,,,,WHEEL,HB,z,m,./images/WHEELHB.png,,,,,,,,,,,,,,,,,,,,,z,1,0.9095,,,,,,,,0,19,19,161,1
,,,,,,,,,,,,,,,,,5bea65135b7ff700013c946c,51,2022-02-12_17h56.16.751,lexical_decision_task_DD_L3,2021.2.3,Win32,59.97720866,,,,,,,,,,,1.1348,0,,,,,,,,,,,,,,,,,,,,,,,,0.505208333,-0.182291667,0,0,0,,,,,,,BUBBLE,HB,z,m,./images/BUBBLEHB.png,,,,,,,,,,,,,,,,,,,,,m,0,1.1348,,,,,,,,0,20,20,155,1
,,,,,,,,,,,,,,,,,5bea65135b7ff700013c946c,51,2022-02-12_17h56.16.751,lexical_decision_task_DD_L3,2021.2.3,Win32,59.97720866,,,,,,,,,,,0.7186,1,,,,,,,,,,,,,,,,,,,,,,,,0.505208333,-0.182291667,0,0,0,,,,,,,GRAIN,LB,m,m,./images/GRAINLB.png,,,,,,,,,,,,,,,,,,,,,m,1,0.7186,,,,,,,,0,21,21,75,1
,,,,,,,,,,,,,,,,,5bea65135b7ff700013c946c,51,2022-02-12_17h56.16.751,lexical_decision_task_DD_L3,2021.2.3,Win32,59.97720866,,,,,,,,,,,0.7175,0,,,,,,,,,,,,,,,,,,,,,,,,0.505208333,-0.182291667,0,0,0,,,,,,,BOXER,C,z,m,./images/BOXER.png,,,,,,,,,,,,,,,,,,,,,m,0,0.7175,,,,,,,,0,22,22,88,1
,,,,,,,,,,,,,,,,,5bea65135b7ff700013c946c,51,2022-02-12_17h56.16.751,lexical_decision_task_DD_L3,2021.2.3,Win32,59.97720866,,,,,,,,,,,0.9866,1,,,,,,,,,,,,,,,,,,,,,,,,0.505208333,-0.182291667,0,0,0,,,,,,,PLANET,HB,z,m,./images/PLANETHB.png,,,,,,,,,,,,,,,,,,,,,z,1,0.9866,,,,,,,,0,23,23,164,1
,,,,,,,,,,,,,,,,,5bea65135b7ff700013c946c,51,2022-02-12_17h56.16.751,lexical_decision_task_DD_L3,2021.2.3,Win32,59.97720866,,,,,,,,,,,0.8516,1,,,,,,,,,,,,,,,,,,,,,,,,0.505208333,-0.182291667,0,0,0,,,,,,,DRILL,LB,z,m,./images/DRILLLB.png,,,,,,,,,,,,,,,,,,,,,z,1,0.8516,,,,,,,,0,24,24,165,1
,,,,,,,,,,,,,,,,,5bea65135b7ff700013c946c,51,2022-02-12_17h56.16.751,lexical_decision_task_DD_L3,2021.2.3,Win32,59.97720866,,,,,,,,,,,1.0177,1,,,,,,,,,,,,,,,,,,,,,,,,0.505208333,-0.182291667,0,0,0,,,,,,,PARADE,HB,z,m,./images/PARADEHB.png,,,,,,,,,,,,,,,,,,,,,z,1,1.0177,,,,,,,,0,25,25,101,1
,,,,,,,,,,,,,,,,,5bea65135b7ff700013c946c,51,2022-02-12_17h56.16.751,lexical_decision_task_DD_L3,2021.2.3,Win32,59.97720866,,,,,,,,,,,0.672,1,,,,,,,,,,,,,,,,,,,,,,,,0.505208333,-0.182291667,0,0,0,,,,,,,BONNET,HB,m,m,./images/BONNETHB.png,,,,,,,,,,,,,,,,,,,,,m,1,0.672,,,,,,,,0,26,26,11,1
,,,,,,,,,,,,,,,,,5bea65135b7ff700013c946c,51,2022-02-12_17h56.16.751,lexical_decision_task_DD_L3,2021.2.3,Win32,59.97720866,,,,,,,,,,,1.0357,1,,,,,,,,,,,,,,,,,,,,,,,,0.505208333,-0.182291667,0,0,0,,,,,,,STEAK,C,z,m,./images/STEAK.png,,,,,,,,,,,,,,,,,,,,,z,1,1.0357,,,,,,,,0,27,27,115,1
,,,,,,,,,,,,,,,,,5bea65135b7ff700013c946c,51,2022-02-12_17h56.16.751,lexical_decision_task_DD_L3,2021.2.3,Win32,59.97720866,,,,,,,,,,,0.8341,0,,,,,,,,,,,,,,,,,,,,,,,,0.505208333,-0.182291667,0,0,0,,,,,,,STAIN,LB,z,m,./images/STAINLB.png,,,,,,,,,,,,,,,,,,,,,m,0,0.8341,,,,,,,,0,28,28,90,1
,,,,,,,,,,,,,,,,,5bea65135b7ff700013c946c,51,2022-02-12_17h56.16.751,lexical_decision_task_DD_L3,2021.2.3,Win32,59.97720866,,,,,,,,,,,0.8236,0,,,,,,,,,,,,,,,,,,,,,,,,0.505208333,-0.182291667,0,0,0,,,,,,,BASKET,HB,z,m,./images/BASKETHB.png,,,,,,,,,,,,,,,,,,,,,m,0,0.8236,,,,,,,,0,29,29,128,1
,,,,,,,,,,,,,,,,,5bea65135b7ff700013c946c,51,2022-02-12_17h56.16.751,lexical_decision_task_DD_L3,2021.2.3,Win32,59.97720866,,,,,,,,,,,0.7249,1,,,,,,,,,,,,,,,,,,,,,,,,0.505208333,-0.182291667,0,0,0,,,,,,,FALCON,C,m,m,./images/FALCON.png,,,,,,,,,,,,,,,,,,,,,m,1,0.7249,,,,,,,,0,30,30,28,1
,,,,,,,,,,,,,,,,,5bea65135b7ff700013c946c,51,2022-02-12_17h56.16.751,lexical_decision_task_DD_L3,2021.2.3,Win32,59.97720866,,,,,,,,,,,0.7891,1,,,,,,,,,,,,,,,,,,,,,,,,0.505208333,-0.182291667,0,0,0,,,,,,,STORM,LB,m,m,./images/STORMLB.png,,,,,,,,,,,,,,,,,,,,,m,1,0.7891,,,,,,,,0,31,31,30,1
,,,,,,,,,,,,,,,,,5bea65135b7ff700013c946c,51,2022-02-12_17h56.16.751,lexical_decision_task_DD_L3,2021.2.3,Win32,59.97720866,,,,,,,,,,,0.9881,1,,,,,,,,,,,,,,,,,,,,,,,,0.505208333,-0.182291667,0,0,0,,,,,,,DIVER,LB,z,m,./images/DIVERLB.png,,,,,,,,,,,,,,,,,,,,,z,1,0.9881,,,,,,,,0,32,32,93,1
,,,,,,,,,,,,,,,,,5bea65135b7ff700013c946c,51,2022-02-12_17h56.16.751,lexical_decision_task_DD_L3,2021.2.3,Win32,59.97720866,,,,,,,,,,,1.0425,0,,,,,,,,,,,,,,,,,,,,,,,,0.505208333,-0.182291667,0,0,0,,,,,,,BANANA,C,z,m,./images/BANANA.png,,,,,,,,,,,,,,,,,,,,,m,0,1.0425,,,,,,,,0,33,33,154,1
,,,,,,,,,,,,,,,,,5bea65135b7ff700013c946c,51,2022-02-12_17h56.16.751,lexical_decision_task_DD_L3,2021.2.3,Win32,59.97720866,,,,,,,,,,,0.7367,1,,,,,,,,,,,,,,,,,,,,,,,,0.505208333,-0.182291667,0,0,0,,,,,,,ATTIC,LB,m,m,./images/ATTICLB.png,,,,,,,,,,,,,,,,,,,,,m,1,0.7367,,,,,,,,0,34,34,27,1
,,,,,,,,,,,,,,,,,5bea65135b7ff700013c946c,51,2022-02-12_17h56.16.751,lexical_decision_task_DD_L3,2021.2.3,Win32,59.97720866,,,,,,,,,,,1.0403,1,,,,,,,,,,,,,,,,,,,,,,,,0.505208333,-0.182291667,0,0,0,,,,,,,SCREW,LB,m,m,./images/SCREWLB.png,,,,,,,,,,,,,,,,,,,,,m,1,1.0403,,,,,,,,0,35,35,24,1
,,,,,,,,,,,,,,,,,5bea65135b7ff700013c946c,51,2022-02-12_17h56.16.751,lexical_decision_task_DD_L3,2021.2.3,Win32,59.97720866,,,,,,,,,,,1.5543,1,,,,,,,,,,,,,,,,,,,,,,,,0.505208333,-0.182291667,0,0,0,,,,,,,MONKEY,LB,z,m,./images/MONKEYLB.png,,,,,,,,,,,,,,,,,,,,,z,1,1.5543,,,,,,,,0,36,36,129,1
,,,,,,,,,,,,,,,,,5bea65135b7ff700013c946c,51,2022-02-12_17h56.16.751,lexical_decision_task_DD_L3,2021.2.3,Win32,59.97720866,,,,,,,,,,,1.0753,1,,,,,,,,,,,,,,,,,,,,,,,,0.505208333,-0.182291667,0,0,0,,,,,,,TIGER,C,z,m,./images/TIGER.png,,,,,,,,,,,,,,,,,,,,,z,1,1.0753,,,,,,,,0,37,37,121,1
,,,,,,,,,,,,,,,,,5bea65135b7ff700013c946c,51,2022-02-12_17h56.16.751,lexical_decision_task_DD_L3,2021.2.3,Win32,59.97720866,,,,,,,,,,,0.854,1,,,,,,,,,,,,,,,,,,,,,,,,0.505208333,-0.182291667,0,0,0,,,,,,,CRUST,C,m,m,./images/CRUST.png,,,,,,,,,,,,,,,,,,,,,m,1,0.854,,,,,,,,0,38,38,79,1
,,,,,,,,,,,,,,,,,5bea65135b7ff700013c946c,51,2022-02-12_17h56.16.751,lexical_decision_task_DD_L3,2021.2.3,Win32,59.97720866,,,,,,,,,,,1.2182,1,,,,,,,,,,,,,,,,,,,,,,,,0.505208333,-0.182291667,0,0,0,,,,,,,RULER,C,z,m,./images/RULER.png,,,,,,,,,,,,,,,,,,,,,z,1,1.2182,,,,,,,,0,39,39,163,1
,,,,,,,,,,,,,,,,,5bea65135b7ff700013c946c,51,2022-02-12_17h56.16.751,lexical_decision_task_DD_L3,2021.2.3,Win32,59.97720866,,,,,,,,,,,0.9551,1,,,,,,,,,,,,,,,,,,,,,,,,0.505208333,-0.182291667,0,0,0,,,,,,,MOTOR,C,m,m,./images/MOTOR.png,,,,,,,,,,,,,,,,,,,,,m,1,0.9551,,,,,,,,0,40,40,13,1
,,,,,,,,,,,,,,,,,5bea65135b7ff700013c946c,51,2022-02-12_17h56.16.751,lexical_decision_task_DD_L3,2021.2.3,Win32,59.97720866,,,,,,,,,,,0.7123,1,,,,,,,,,,,,,,,,,,,,,,,,0.505208333,-0.182291667,0,0,0,space,,,,,,TOMATO,LB,m,m,./images/TOMATOLB.png,2.4334,,,,,,,,,,,,,,,,,,,,m,1,0.7123,,,,,,,,0,41,41,0,1
,,,,,,,,,,,,,,,,,5bea65135b7ff700013c946c,51,2022-02-12_17h56.16.751,lexical_decision_task_DD_L3,2021.2.3,Win32,59.97720866,,,,,,,,,,,1.198,1,,,,,,,,,,,,,,,,,,,,,,,,0.505208333,-0.182291667,0,0,0,,,,,,,CLIFF,HB,z,m,./images/CLIFFHB.png,,,,,,,,,,,,,,,,,,,,,z,1,1.198,,,,,,,,0,42,42,92,1
,,,,,,,,,,,,,,,,,5bea65135b7ff700013c946c,51,2022-02-12_17h56.16.751,lexical_decision_task_DD_L3,2021.2.3,Win32,59.97720866,,,,,,,,,,,0.7912,0,,,,,,,,,,,,,,,,,,,,,,,,0.505208333,-0.182291667,0,0,0,,,,,,,CHAIN,LB,z,m,./images/CHAINLB.png,,,,,,,,,,,,,,,,,,,,,m,0,0.7912,,,,,,,,0,43,43,126,1
,,,,,,,,,,,,,,,,,5bea65135b7ff700013c946c,51,2022-02-12_17h56.16.751,lexical_decision_task_DD_L3,2021.2.3,Win32,59.97720866,,,,,,,,,,,0.6998,1,,,,,,,,,,,,,,,,,,,,,,,,0.505208333,-0.182291667,0,0,0,,,,,,,BURIAL,HB,m,m,./images/BURIALHB.png,,,,,,,,,,,,,,,,,,,,,m,1,0.6998,,,,,,,,0,44,44,59,1
,,,,,,,,,,,,,,,,,5bea65135b7ff700013c946c,51,2022-02-12_17h56.16.751,lexical_decision_task_DD_L3,2021.2.3,Win32,59.97720866,,,,,,,,,,,0.9488,1,,,,,,,,,,,,,,,,,,,,,,,,0.505208333,-0.182291667,0,0,0,,,,,,,GARDEN,C,z,m,./images/GARDEN.png,,,,,,,,,,,,,,,,,,,,,z,1,0.9488,,,,,,,,0,45,45,94,1
,,,,,,,,,,,,,,,,,5bea65135b7ff700013c946c,51,2022-02-12_17h56.16.751,lexical_decision_task_DD_L3,2021.2.3,Win32,59.97720866,,,,,,,,,,,1.1517,1,,,,,,,,,,,,,,,,,,,,,,,,0.505208333,-0.182291667,0,0,0,,,,,,,SAUCE,LB,z,m,./images/SAUCELB.png,,,,,,,,,,,,,,,,,,,,,z,1,1.1517,,,,,,,,0,46,46,135,1
,,,,,,,,,,,,,,,,,5bea65135b7ff700013c946c,51,2022-02-12_17h56.16.751,lexical_decision_task_DD_L3,2021.2.3,Win32,59.97720866,,,,,,,,,,,0.7201,1,,,,,,,,,,,,,,,,,,,,,,,,0.505208333,-0.182291667,0,0,0,,,,,,,WEASEL,HB,m,m,./images/WEASELHB.png,,,,,,,,,,,,,,,,,,,,,m,1,0.7201,,,,,,,,0,47,47,80,1
,,,,,,,,,,,,,,,,,5bea65135b7ff700013c946c,51,2022-02-12_17h56.16.751,lexical_decision_task_DD_L3,2021.2.3,Win32,59.97720866,,,,,,,,,,,0.9644,1,,,,,,,,,,,,,,,,,,,,,,,,0.505208333,-0.182291667,0,0,0,,,,,,,STOVE,HB,z,m,./images/STOVEHB.png,,,,,,,,,,,,,,,,,,,,,z,1,0.9644,,,,,,,,0,48,48,86,1
,,,,,,,,,,,,,,,,,5bea65135b7ff700013c946c,51,2022-02-12_17h56.16.751,lexical_decision_task_DD_L3,2021.2.3,Win32,59.97720866,,,,,,,,,,,1.1629,0,,,,,,,,,,,,,,,,,,,,,,,,0.505208333,-0.182291667,0,0,0,,,,,,,SHORE,LB,m,m,./images/SHORELB.png,,,,,,,,,,,,,,,,,,,,,z,0,1.1629,,,,,,,,0,49,49,12,1
,,,,,,,,,,,,,,,,,5bea65135b7ff700013c946c,51,2022-02-12_17h56.16.751,lexical_decision_task_DD_L3,2021.2.3,Win32,59.97720866,,,,,,,,,,,0.7208,1,,,,,,,,,,,,,,,,,,,,,,,,0.505208333,-0.182291667,0,0,0,,,,,,,JAGUAR,LB,m,m,./images/JAGUARLB.png,,,,,,,,,,,,,,,,,,,,,m,1,0.7208,,,,,,,,0,50,50,18,1
,,,,,,,,,,,,,,,,,5bea65135b7ff700013c946c,51,2022-02-12_17h56.16.751,lexical_decision_task_DD_L3,2021.2.3,Win32,59.97720866,,,,,,,,,,,0.8541,1,,,,,,,,,,,,,,,,,,,,,,,,0.505208333,-0.182291667,0,0,0,,,,,,,INFANT,C,m,m,./images/INFANT.png,,,,,,,,,,,,,,,,,,,,,m,1,0.8541,,,,,,,,0,51,51,76,1
,,,,,,,,,,,,,,,,,5bea65135b7ff700013c946c,51,2022-02-12_17h56.16.751,lexical_decision_task_DD_L3,2021.2.3,Win32,59.97720866,,,,,,,,,,,1.0796,1,,,,,,,,,,,,,,,,,,,,,,,,0.505208333,-0.182291667,0,0,0,,,,,,,SPINE,HB,z,m,./images/SPINEHB.png,,,,,,,,,,,,,,,,,,,,,z,1,1.0796,,,,,,,,0,52,52,149,1
,,,,,,,,,,,,,,,,,5bea65135b7ff700013c946c,51,2022-02-12_17h56.16.751,lexical_decision_task_DD_L3,2021.2.3,Win32,59.97720866,,,,,,,,,,,0.9465,1,,,,,,,,,,,,,,,,,,,,,,,,0.505208333,-0.182291667,0,0,0,,,,,,,SNAKE,C,z,m,./images/SNAKE.png,,,,,,,,,,,,,,,,,,,,,z,1,0.9465,,,,,,,,0,53,53,124,1
,,,,,,,,,,,,,,,,,5bea65135b7ff700013c946c,51,2022-02-12_17h56.16.751,lexical_decision_task_DD_L3,2021.2.3,Win32,59.97720866,,,,,,,,,,,1.1339,1,,,,,,,,,,,,,,,,,,,,,,,,0.505208333,-0.182291667,0,0,0,,,,,,,DONKEY,C,z,m,./images/DONKEY.png,,,,,,,,,,,,,,,,,,,,,z,1,1.1339,,,,,,,,0,54,54,103,1
,,,,,,,,,,,,,,,,,5bea65135b7ff700013c946c,51,2022-02-12_17h56.16.751,lexical_decision_task_DD_L3,2021.2.3,Win32,59.97720866,,,,,,,,,,,0.8408,1,,,,,,,,,,,,,,,,,,,,,,,,0.505208333,-0.182291667,0,0,0,,,,,,,LLAMA,HB,z,m,./images/LLAMAHB.png,,,,,,,,,,,,,,,,,,,,,z,1,0.8408,,,,,,,,0,55,55,119,1
,,,,,,,,,,,,,,,,,5bea65135b7ff700013c946c,51,2022-02-12_17h56.16.751,lexical_decision_task_DD_L3,2021.2.3,Win32,59.97720866,,,,,,,,,,,1.2176,0,,,,,,,,,,,,,,,,,,,,,,,,0.505208333,-0.182291667,0,0,0,,,,,,,FERRY,LB,z,m,./images/FERRYLB.png,,,,,,,,,,,,,,,,,,,,,m,0,1.2176,,,,,,,,0,56,56,141,1
,,,,,,,,,,,,,,,,,5bea65135b7ff700013c946c,51,2022-02-12_17h56.16.751,lexical_decision_task_DD_L3,2021.2.3,Win32,59.97720866,,,,,,,,,,,0.7041,1,,,,,,,,,,,,,,,,,,,,,,,,0.505208333,-0.182291667,0,0,0,,,,,,,BIRTH,C,m,m,./images/BIRTH.png,,,,,,,,,,,,,,,,,,,,,m,1,0.7041,,,,,,,,0,57,57,37,1
,,,,,,,,,,,,,,,,,5bea65135b7ff700013c946c,51,2022-02-12_17h56.16.751,lexical_decision_task_DD_L3,2021.2.3,Win32,59.97720866,,,,,,,,,,,0.9332,1,,,,,,,,,,,,,,,,,,,,,,,,0.505208333,-0.182291667,0,0,0,,,,,,,MIDGET,C,z,m,./images/MIDGET.png,,,,,,,,,,,,,,,,,,,,,z,1,0.9332,,,,,,,,0,58,58,160,1
,,,,,,,,,,,,,,,,,5bea65135b7ff700013c946c,51,2022-02-12_17h56.16.751,lexical_decision_task_DD_L3,2021.2.3,Win32,59.97720866,,,,,,,,,,,1.2409,0,,,,,,,,,,,,,,,,,,,,,,,,0.505208333,-0.182291667,0,0,0,,,,,,,THROAT,LB,m,m,./images/THROATLB.png,,,,,,,,,,,,,,,,,,,,,z,0,1.2409,,,,,,,,0,59,59,36,1
,,,,,,,,,,,,,,,,,5bea65135b7ff700013c946c,51,2022-02-12_17h56.16.751,lexical_decision_task_DD_L3,2021.2.3,Win32,59.97720866,,,,,,,,,,,0.7497,1,,,,,,,,,,,,,,,,,,,,,,,,0.505208333,-0.182291667,0,0,0,,,,,,,CRUMB,HB,m,m,./images/CRUMBHB.png,,,,,,,,,,,,,,,,,,,,,m,1,0.7497,,,,,,,,0,60,60,29,1
,,,,,,,,,,,,,,,,,5bea65135b7ff700013c946c,51,2022-02-12_17h56.16.751,lexical_decision_task_DD_L3,2021.2.3,Win32,59.97720866,,,,,,,,,,,0.8155,1,,,,,,,,,,,,,,,,,,,,,,,,0.505208333,-0.182291667,0,0,0,,,,,,,CANDLE,C,m,m,./images/CANDLE.png,,,,,,,,,,,,,,,,,,,,,m,1,0.8155,,,,,,,,0,61,61,61,1
,,,,,,,,,,,,,,,,,5bea65135b7ff700013c946c,51,2022-02-12_17h56.16.751,lexical_decision_task_DD_L3,2021.2.3,Win32,59.97720866,,,,,,,,,,,1.0359,1,,,,,,,,,,,,,,,,,,,,,,,,0.505208333,-0.182291667,0,0,0,,,,,,,STOOL,C,z,m,./images/STOOL.png,,,,,,,,,,,,,,,,,,,,,z,1,1.0359,,,,,,,,0,62,62,127,1
,,,,,,,,,,,,,,,,,5bea65135b7ff700013c946c,51,2022-02-12_17h56.16.751,lexical_decision_task_DD_L3,2021.2.3,Win32,59.97720866,,,,,,,,,,,1.0054,1,,,,,,,,,,,,,,,,,,,,,,,,0.505208333,-0.182291667,0,0,0,,,,,,,PEACH,HB,m,m,./images/PEACHHB.png,,,,,,,,,,,,,,,,,,,,,m,1,1.0054,,,,,,,,0,63,63,35,1
,,,,,,,,,,,,,,,,,5bea65135b7ff700013c946c,51,2022-02-12_17h56.16.751,lexical_decision_task_DD_L3,2021.2.3,Win32,59.97720866,,,,,,,,,,,0.9338,1,,,,,,,,,,,,,,,,,,,,,,,,0.505208333,-0.182291667,0,0,0,,,,,,,SPORT,LB,m,m,./images/SPORTLB.png,,,,,,,,,,,,,,,,,,,,,m,1,0.9338,,,,,,,,0,64,64,48,1
,,,,,,,,,,,,,,,,,5bea65135b7ff700013c946c,51,2022-02-12_17h56.16.751,lexical_decision_task_DD_L3,2021.2.3,Win32,59.97720866,,,,,,,,,,,1.2812,0,,,,,,,,,,,,,,,,,,,,,,,,0.505208333,-0.182291667,0,0,0,,,,,,,SHIELD,LB,z,m,./images/SHIELDLB.png,,,,,,,,,,,,,,,,,,,,,m,0,1.2812,,,,,,,,0,65,65,132,1
,,,,,,,,,,,,,,,,,5bea65135b7ff700013c946c,51,2022-02-12_17h56.16.751,lexical_decision_task_DD_L3,2021.2.3,Win32,59.97720866,,,,,,,,,,,1.3594,1,,,,,,,,,,,,,,,,,,,,,,,,0.505208333,-0.182291667,0,0,0,,,,,,,ONION,LB,m,m,./images/ONIONLB.png,,,,,,,,,,,,,,,,,,,,,m,1,1.3594,,,,,,,,0,66,66,51,1
,,,,,,,,,,,,,,,,,5bea65135b7ff700013c946c,51,2022-02-12_17h56.16.751,lexical_decision_task_DD_L3,2021.2.3,Win32,59.97720866,,,,,,,,,,,0.8213,1,,,,,,,,,,,,,,,,,,,,,,,,0.505208333,-0.182291667,0,0,0,,,,,,,BERRY,HB,m,m,./images/BERRYHB.png,,,,,,,,,,,,,,,,,,,,,m,1,0.8213,,,,,,,,0,67,67,47,1
,,,,,,,,,,,,,,,,,5bea65135b7ff700013c946c,51,2022-02-12_17h56.16.751,lexical_decision_task_DD_L3,2021.2.3,Win32,59.97720866,,,,,,,,,,,0.7793,1,,,,,,,,,,,,,,,,,,,,,,,,0.505208333,-0.182291667,0,0,0,,,,,,,URINE,C,m,m,./images/URINE.png,,,,,,,,,,,,,,,,,,,,,m,1,0.7793,,,,,,,,0,68,68,70,1
,,,,,,,,,,,,,,,,,5bea65135b7ff700013c946c,51,2022-02-12_17h56.16.751,lexical_decision_task_DD_L3,2021.2.3,Win32,59.97720866,,,,,,,,,,,1.2473,1,,,,,,,,,,,,,,,,,,,,,,,,0.505208333,-0.182291667,0,0,0,,,,,,,MUSCLE,C,m,m,./images/MUSCLE.png,,,,,,,,,,,,,,,,,,,,,m,1,1.2473,,,,,,,,0,69,69,4,1
,,,,,,,,,,,,,,,,,5bea65135b7ff700013c946c,51,2022-02-12_17h56.16.751,lexical_decision_task_DD_L3,2021.2.3,Win32,59.97720866,,,,,,,,,,,0.9647,1,,,,,,,,,,,,,,,,,,,,,,,,0.505208333,-0.182291667,0,0,0,,,,,,,BAMBOO,HB,z,m,./images/BAMBOOHB.png,,,,,,,,,,,,,,,,,,,,,z,1,0.9647,,,,,,,,0,70,70,89,1
,,,,,,,,,,,,,,,,,5bea65135b7ff700013c946c,51,2022-02-12_17h56.16.751,lexical_decision_task_DD_L3,2021.2.3,Win32,59.97720866,,,,,,,,,,,0.8651,1,,,,,,,,,,,,,,,,,,,,,,,,0.505208333,-0.182291667,0,0,0,,,,,,,ARROW,LB,z,m,./images/ARROWLB.png,,,,,,,,,,,,,,,,,,,,,z,1,0.8651,,,,,,,,0,71,71,153,1
,,,,,,,,,,,,,,,,,5bea65135b7ff700013c946c,51,2022-02-12_17h56.16.751,lexical_decision_task_DD_L3,2021.2.3,Win32,59.97720866,,,,,,,,,,,1.1646,0,,,,,,,,,,,,,,,,,,,,,,,,0.505208333,-0.182291667,0,0,0,,,,,,,LADDER,HB,m,m,./images/LADDERHB.png,,,,,,,,,,,,,,,,,,,,,z,0,1.1646,,,,,,,,0,72,72,38,1
,,,,,,,,,,,,,,,,,5bea65135b7ff700013c946c,51,2022-02-12_17h56.16.751,lexical_decision_task_DD_L3,2021.2.3,Win32,59.97720866,,,,,,,,,,,0.9981,1,,,,,,,,,,,,,,,,,,,,,,,,0.505208333,-0.182291667,0,0,0,,,,,,,BUTTER,LB,z,m,./images/BUTTERLB.png,,,,,,,,,,,,,,,,,,,,,z,1,0.9981,,,,,,,,0,73,73,111,1
,,,,,,,,,,,,,,,,,5bea65135b7ff700013c946c,51,2022-02-12_17h56.16.751,lexical_decision_task_DD_L3,2021.2.3,Win32,59.97720866,,,,,,,,,,,0.7629,1,,,,,,,,,,,,,,,,,,,,,,,,0.505208333,-0.182291667,0,0,0,,,,,,,POODLE,LB,m,m,./images/POODLELB.png,,,,,,,,,,,,,,,,,,,,,m,1,0.7629,,,,,,,,0,74,74,81,1
,,,,,,,,,,,,,,,,,5bea65135b7ff700013c946c,51,2022-02-12_17h56.16.751,lexical_decision_task_DD_L3,2021.2.3,Win32,59.97720866,,,,,,,,,,,0.9541,1,,,,,,,,,,,,,,,,,,,,,,,,0.505208333,-0.182291667,0,0,0,,,,,,,DANCER,LB,z,m,./images/DANCERLB.png,,,,,,,,,,,,,,,,,,,,,z,1,0.9541,,,,,,,,0,75,75,105,1
,,,,,,,,,,,,,,,,,5bea65135b7ff700013c946c,51,2022-02-12_17h56.16.751,lexical_decision_task_DD_L3,2021.2.3,Win32,59.97720866,,,,,,,,,,,1.3465,1,,,,,,,,,,,,,,,,,,,,,,,,0.505208333,-0.182291667,0,0,0,,,,,,,BISHOP,C,z,m,./images/BISHOP.png,,,,,,,,,,,,,,,,,,,,,z,1,1.3465,,,,,,,,0,76,76,133,1
,,,,,,,,,,,,,,,,,5bea65135b7ff700013c946c,51,2022-02-12_17h56.16.751,lexical_decision_task_DD_L3,2021.2.3,Win32,59.97720866,,,,,,,,,,,0.9031,0,,,,,,,,,,,,,,,,,,,,,,,,0.505208333,-0.182291667,0,0,0,,,,,,,TWINS,LB,m,m,./images/TWINSLB.png,,,,,,,,,,,,,,,,,,,,,z,0,0.9031,,,,,,,,0,77,77,60,1
,,,,,,,,,,,,,,,,,5bea65135b7ff700013c946c,51,2022-02-12_17h56.16.751,lexical_decision_task_DD_L3,2021.2.3,Win32,59.97720866,,,,,,,,,,,0.7539,1,,,,,,,,,,,,,,,,,,,,,,,,0.505208333,-0.182291667,0,0,0,,,,,,,LITTER,LB,m,m,./images/LITTERLB.png,,,,,,,,,,,,,,,,,,,,,m,1,0.7539,,,,,,,,0,78,78,78,1
,,,,,,,,,,,,,,,,,5bea65135b7ff700013c946c,51,2022-02-12_17h56.16.751,lexical_decision_task_DD_L3,2021.2.3,Win32,59.97720866,,,,,,,,,,,0.7316,0,,,,,,,,,,,,,,,,,,,,,,,,0.505208333,-0.182291667,0,0,0,,,,,,,TOWEL,C,z,m,./images/TOWEL.png,,,,,,,,,,,,,,,,,,,,,m,0,0.7316,,,,,,,,0,79,79,85,1
,,,,,,,,,,,,,,,,,5bea65135b7ff700013c946c,51,2022-02-12_17h56.16.751,lexical_decision_task_DD_L3,2021.2.3,Win32,59.97720866,,,,,,,,,,,0.7416,1,,,,,,,,,,,,,,,,,,,,,,,,0.505208333,-0.182291667,0,0,0,,,,,,,FARMER,HB,m,m,./images/FARMERHB.png,,,,,,,,,,,,,,,,,,,,,m,1,0.7416,,,,,,,,0,80,80,65,1
,,,,,,,,,,,,,,,,,5bea65135b7ff700013c946c,51,2022-02-12_17h56.16.751,lexical_decision_task_DD_L3,2021.2.3,Win32,59.97720866,,,,,,,,,,,1.1543,0,,,,,,,,,,,,,,,,,,,,,,,,0.505208333,-0.182291667,0,0,0,,,,,,,WALRUS,HB,m,m,./images/WALRUSHB.png,,,,,,,,,,,,,,,,,,,,,z,0,1.1543,,,,,,,,0,81,81,23,1
,,,,,,,,,,,,,,,,,5bea65135b7ff700013c946c,51,2022-02-12_17h56.16.751,lexical_decision_task_DD_L3,2021.2.3,Win32,59.97720866,,,,,,,,,,,0.8704,1,,,,,,,,,,,,,,,,,,,,,,,,0.505208333,-0.182291667,0,0,0,,,,,,,PEARL,C,m,m,./images/PEARL.png,,,,,,,,,,,,,,,,,,,,,m,1,0.8704,,,,,,,,0,82,82,46,1
,,,,,,,,,,,,,,,,,5bea65135b7ff700013c946c,51,2022-02-12_17h56.16.751,lexical_decision_task_DD_L3,2021.2.3,Win32,59.97720866,,,,,,,,,,,0.7075,1,,,,,,,,,,,,,,,,,,,,,,,,0.505208333,-0.182291667,0,0,0,space,,,,,,KITTEN,LB,m,m,./images/KITTENLB.png,9.9127,,,,,,,,,,,,,,,,,,,,m,1,0.7075,,,,,,,,0,83,83,45,1
,,,,,,,,,,,,,,,,,5bea65135b7ff700013c946c,51,2022-02-12_17h56.16.751,lexical_decision_task_DD_L3,2021.2.3,Win32,59.97720866,,,,,,,,,,,0.74,1,,,,,,,,,,,,,,,,,,,,,,,,0.505208333,-0.182291667,0,0,0,,,,,,,MOSQUE,C,m,m,./images/MOSQUE.png,,,,,,,,,,,,,,,,,,,,,m,1,0.74,,,,,,,,0,84,84,43,1
,,,,,,,,,,,,,,,,,5bea65135b7ff700013c946c,51,2022-02-12_17h56.16.751,lexical_decision_task_DD_L3,2021.2.3,Win32,59.97720866,,,,,,,,,,,1.1126,1,,,,,,,,,,,,,,,,,,,,,,,,0.505208333,-0.182291667,0,0,0,,,,,,,WRIST,C,m,m,./images/WRIST.png,,,,,,,,,,,,,,,,,,,,,m,1,1.1126,,,,,,,,0,85,85,25,1
,,,,,,,,,,,,,,,,,5bea65135b7ff700013c946c,51,2022-02-12_17h56.16.751,lexical_decision_task_DD_L3,2021.2.3,Win32,59.97720866,,,,,,,,,,,0.7364,1,,,,,,,,,,,,,,,,,,,,,,,,0.505208333,-0.182291667,0,0,0,,,,,,,PENCE,C,m,m,./images/PENCE.png,,,,,,,,,,,,,,,,,,,,,m,1,0.7364,,,,,,,,0,86,86,16,1
,,,,,,,,,,,,,,,,,5bea65135b7ff700013c946c,51,2022-02-12_17h56.16.751,lexical_decision_task_DD_L3,2021.2.3,Win32,59.97720866,,,,,,,,,,,0.9099,1,,,,,,,,,,,,,,,,,,,,,,,,0.505208333,-0.182291667,0,0,0,,,,,,,SKIING,HB,m,m,./images/SKIINGHB.png,,,,,,,,,,,,,,,,,,,,,m,1,0.9099,,,,,,,,0,87,87,17,1
,,,,,,,,,,,,,,,,,5bea65135b7ff700013c946c,51,2022-02-12_17h56.16.751,lexical_decision_task_DD_L3,2021.2.3,Win32,59.97720866,,,,,,,,,,,0.9332,0,,,,,,,,,,,,,,,,,,,,,,,,0.505208333,-0.182291667,0,0,0,,,,,,,DOUGH,C,m,m,./images/DOUGH.png,,,,,,,,,,,,,,,,,,,,,z,0,0.9332,,,,,,,,0,88,88,19,1
,,,,,,,,,,,,,,,,,5bea65135b7ff700013c946c,51,2022-02-12_17h56.16.751,lexical_decision_task_DD_L3,2021.2.3,Win32,59.97720866,,,,,,,,,,,0.7541,1,,,,,,,,,,,,,,,,,,,,,,,,0.505208333,-0.182291667,0,0,0,,,,,,,MAGGOT,LB,m,m,./images/MAGGOTLB.png,,,,,,,,,,,,,,,,,,,,,m,1,0.7541,,,,,,,,0,89,89,33,1
,,,,,,,,,,,,,,,,,5bea65135b7ff700013c946c,51,2022-02-12_17h56.16.751,lexical_decision_task_DD_L3,2021.2.3,Win32,59.97720866,,,,,,,,,,,0.6867,1,,,,,,,,,,,,,,,,,,,,,,,,0.505208333,-0.182291667,0,0,0,,,,,,,COUCH,HB,m,m,./images/COUCHHB.png,,,,,,,,,,,,,,,,,,,,,m,1,0.6867,,,,,,,,0,90,90,77,1
,,,,,,,,,,,,,,,,,5bea65135b7ff700013c946c,51,2022-02-12_17h56.16.751,lexical_decision_task_DD_L3,2021.2.3,Win32,59.97720866,,,,,,,,,,,0.8182,1,,,,,,,,,,,,,,,,,,,,,,,,0.505208333,-0.182291667,0,0,0,,,,,,,LIZARD,HB,m,m,./images/LIZARDHB.png,,,,,,,,,,,,,,,,,,,,,m,1,0.8182,,,,,,,,0,91,91,44,1
,,,,,,,,,,,,,,,,,5bea65135b7ff700013c946c,51,2022-02-12_17h56.16.751,lexical_decision_task_DD_L3,2021.2.3,Win32,59.97720866,,,,,,,,,,,0.8836,0,,,,,,,,,,,,,,,,,,,,,,,,0.505208333,-0.182291667,0,0,0,,,,,,,DRUMS,C,m,m,./images/DRUMS.png,,,,,,,,,,,,,,,,,,,,,z,0,0.8836,,,,,,,,0,92,92,49,1
,,,,,,,,,,,,,,,,,5bea65135b7ff700013c946c,51,2022-02-12_17h56.16.751,lexical_decision_task_DD_L3,2021.2.3,Win32,59.97720866,,,,,,,,,,,0.9011,1,,,,,,,,,,,,,,,,,,,,,,,,0.505208333,-0.182291667,0,0,0,,,,,,,CLOWN,C,z,m,./images/CLOWN.png,,,,,,,,,,,,,,,,,,,,,z,1,0.9011,,,,,,,,0,93,93,106,1
,,,,,,,,,,,,,,,,,5bea65135b7ff700013c946c,51,2022-02-12_17h56.16.751,lexical_decision_task_DD_L3,2021.2.3,Win32,59.97720866,,,,,,,,,,,0.8696,1,,,,,,,,,,,,,,,,,,,,,,,,0.505208333,-0.182291667,0,0,0,,,,,,,NOOSE,LB,m,m,./images/NOOSELB.png,,,,,,,,,,,,,,,,,,,,,m,1,0.8696,,,,,,,,0,94,94,72,1
,,,,,,,,,,,,,,,,,5bea65135b7ff700013c946c,51,2022-02-12_17h56.16.751,lexical_decision_task_DD_L3,2021.2.3,Win32,59.97720866,,,,,,,,,,,1.0175,0,,,,,,,,,,,,,,,,,,,,,,,,0.505208333,-0.182291667,0,0,0,,,,,,,BEARD,HB,m,m,./images/BEARDHB.png,,,,,,,,,,,,,,,,,,,,,z,0,1.0175,,,,,,,,0,95,95,2,1
,,,,,,,,,,,,,,,,,5bea65135b7ff700013c946c,51,2022-02-12_17h56.16.751,lexical_decision_task_DD_L3,2021.2.3,Win32,59.97720866,,,,,,,,,,,1.0007,1,,,,,,,,,,,,,,,,,,,,,,,,0.505208333,-0.182291667,0,0,0,,,,,,,CASINO,C,z,m,./images/CASINO.png,,,,,,,,,,,,,,,,,,,,,z,1,1.0007,,,,,,,,0,96,96,112,1
,,,,,,,,,,,,,,,,,5bea65135b7ff700013c946c,51,2022-02-12_17h56.16.751,lexical_decision_task_DD_L3,2021.2.3,Win32,59.97720866,,,,,,,,,,,1.0183,1,,,,,,,,,,,,,,,,,,,,,,,,0.505208333,-0.182291667,0,0,0,,,,,,,CHALK,C,z,m,./images/CHALK.png,,,,,,,,,,,,,,,,,,,,,z,1,1.0183,,,,,,,,0,97,97,109,1
,,,,,,,,,,,,,,,,,5bea65135b7ff700013c946c,51,2022-02-12_17h56.16.751,lexical_decision_task_DD_L3,2021.2.3,Win32,59.97720866,,,,,,,,,,,1.3728,1,,,,,,,,,,,,,,,,,,,,,,,,0.505208333,-0.182291667,0,0,0,,,,,,,BAKER,LB,z,m,./images/BAKERLB.png,,,,,,,,,,,,,,,,,,,,,z,1,1.3728,,,,,,,,0,98,98,147,1
,,,,,,,,,,,,,,,,,5bea65135b7ff700013c946c,51,2022-02-12_17h56.16.751,lexical_decision_task_DD_L3,2021.2.3,Win32,59.97720866,,,,,,,,,,,1.0057,0,,,,,,,,,,,,,,,,,,,,,,,,0.505208333,-0.182291667,0,0,0,,,,,,,TULIP,HB,m,m,./images/TULIPHB.png,,,,,,,,,,,,,,,,,,,,,z,0,1.0057,,,,,,,,0,99,99,8,1
,,,,,,,,,,,,,,,,,5bea65135b7ff700013c946c,51,2022-02-12_17h56.16.751,lexical_decision_task_DD_L3,2021.2.3,Win32,59.97720866,,,,,,,,,,,1.0168,1,,,,,,,,,,,,,,,,,,,,,,,,0.505208333,-0.182291667,0,0,0,,,,,,,WALNUT,LB,z,m,./images/WALNUTLB.png,,,,,,,,,,,,,,,,,,,,,z,1,1.0168,,,,,,,,0,100,100,84,1
,,,,,,,,,,,,,,,,,5bea65135b7ff700013c946c,51,2022-02-12_17h56.16.751,lexical_decision_task_DD_L3,2021.2.3,Win32,59.97720866,,,,,,,,,,,0.8074,1,,,,,,,,,,,,,,,,,,,,,,,,0.505208333,-0.182291667,0,0,0,,,,,,,RHINO,LB,m,m,./images/RHINOLB.png,,,,,,,,,,,,,,,,,,,,,m,1,0.8074,,,,,,,,0,101,101,9,1
,,,,,,,,,,,,,,,,,5bea65135b7ff700013c946c,51,2022-02-12_17h56.16.751,lexical_decision_task_DD_L3,2021.2.3,Win32,59.97720866,,,,,,,,,,,1.0418,1,,,,,,,,,,,,,,,,,,,,,,,,0.505208333,-0.182291667,0,0,0,,,,,,,MUMMY,C,z,m,./images/MUMMY.png,,,,,,,,,,,,,,,,,,,,,z,1,1.0418,,,,,,,,0,102,102,130,1
,,,,,,,,,,,,,,,,,5bea65135b7ff700013c946c,51,2022-02-12_17h56.16.751,lexical_decision_task_DD_L3,2021.2.3,Win32,59.97720866,,,,,,,,,,,0.8538,1,,,,,,,,,,,,,,,,,,,,,,,,0.505208333,-0.182291667,0,0,0,,,,,,,CANYON,C,m,m,./images/CANYON.png,,,,,,,,,,,,,,,,,,,,,m,1,0.8538,,,,,,,,0,103,103,34,1
,,,,,,,,,,,,,,,,,5bea65135b7ff700013c946c,51,2022-02-12_17h56.16.751,lexical_decision_task_DD_L3,2021.2.3,Win32,59.97720866,,,,,,,,,,,0.7068,1,,,,,,,,,,,,,,,,,,,,,,,,0.505208333,-0.182291667,0,0,0,,,,,,,MOOSE,LB,m,m,./images/MOOSELB.png,,,,,,,,,,,,,,,,,,,,,m,1,0.7068,,,,,,,,0,104,104,57,1
,,,,,,,,,,,,,,,,,5bea65135b7ff700013c946c,51,2022-02-12_17h56.16.751,lexical_decision_task_DD_L3,2021.2.3,Win32,59.97720866,,,,,,,,,,,0.9125,0,,,,,,,,,,,,,,,,,,,,,,,,0.505208333,-0.182291667,0,0,0,,,,,,,COLLAR,LB,z,m,./images/COLLARLB.png,,,,,,,,,,,,,,,,,,,,,m,0,0.9125,,,,,,,,0,105,105,99,1
,,,,,,,,,,,,,,,,,5bea65135b7ff700013c946c,51,2022-02-12_17h56.16.751,lexical_decision_task_DD_L3,2021.2.3,Win32,59.97720866,,,,,,,,,,,1.2376,0,,,,,,,,,,,,,,,,,,,,,,,,0.505208333,-0.182291667,0,0,0,,,,,,,CURRY,LB,z,m,./images/CURRYLB.png,,,,,,,,,,,,,,,,,,,,,m,0,1.2376,,,,,,,,0,106,106,144,1
,,,,,,,,,,,,,,,,,5bea65135b7ff700013c946c,51,2022-02-12_17h56.16.751,lexical_decision_task_DD_L3,2021.2.3,Win32,59.97720866,,,,,,,,,,,0.9631,1,,,,,,,,,,,,,,,,,,,,,,,,0.505208333,-0.182291667,0,0,0,,,,,,,PEBBLE,C,z,m,./images/PEBBLE.png,,,,,,,,,,,,,,,,,,,,,z,1,0.9631,,,,,,,,0,107,107,166,1
,,,,,,,,,,,,,,,,,5bea65135b7ff700013c946c,51,2022-02-12_17h56.16.751,lexical_decision_task_DD_L3,2021.2.3,Win32,59.97720866,,,,,,,,,,,0.8888,1,,,,,,,,,,,,,,,,,,,,,,,,0.505208333,-0.182291667,0,0,0,,,,,,,LAGOON,HB,z,m,./images/LAGOONHB.png,,,,,,,,,,,,,,,,,,,,,z,1,0.8888,,,,,,,,0,108,108,131,1
,,,,,,,,,,,,,,,,,5bea65135b7ff700013c946c,51,2022-02-12_17h56.16.751,lexical_decision_task_DD_L3,2021.2.3,Win32,59.97720866,,,,,,,,,,,0.9861,1,,,,,,,,,,,,,,,,,,,,,,,,0.505208333,-0.182291667,0,0,0,,,,,,,ALLEY,C,z,m,./images/ALLEY.png,,,,,,,,,,,,,,,,,,,,,z,1,0.9861,,,,,,,,0,109,109,139,1
,,,,,,,,,,,,,,,,,5bea65135b7ff700013c946c,51,2022-02-12_17h56.16.751,lexical_decision_task_DD_L3,2021.2.3,Win32,59.97720866,,,,,,,,,,,0.8112,1,,,,,,,,,,,,,,,,,,,,,,,,0.505208333,-0.182291667,0,0,0,,,,,,,STRING,HB,m,m,./images/STRINGHB.png,,,,,,,,,,,,,,,,,,,,,m,1,0.8112,,,,,,,,0,110,110,41,1
,,,,,,,,,,,,,,,,,5bea65135b7ff700013c946c,51,2022-02-12_17h56.16.751,lexical_decision_task_DD_L3,2021.2.3,Win32,59.97720866,,,,,,,,,,,0.8341,1,,,,,,,,,,,,,,,,,,,,,,,,0.505208333,-0.182291667,0,0,0,,,,,,,FINGER,LB,m,m,./images/FINGERLB.png,,,,,,,,,,,,,,,,,,,,,m,1,0.8341,,,,,,,,0,111,111,3,1
,,,,,,,,,,,,,,,,,5bea65135b7ff700013c946c,51,2022-02-12_17h56.16.751,lexical_decision_task_DD_L3,2021.2.3,Win32,59.97720866,,,,,,,,,,,0.8816,1,,,,,,,,,,,,,,,,,,,,,,,,0.505208333,-0.182291667,0,0,0,,,,,,,CRATER,LB,z,m,./images/CRATERLB.png,,,,,,,,,,,,,,,,,,,,,z,1,0.8816,,,,,,,,0,112,112,87,1
,,,,,,,,,,,,,,,,,5bea65135b7ff700013c946c,51,2022-02-12_17h56.16.751,lexical_decision_task_DD_L3,2021.2.3,Win32,59.97720866,,,,,,,,,,,0.8827,0,,,,,,,,,,,,,,,,,,,,,,,,0.505208333,-0.182291667,0,0,0,,,,,,,CARPET,HB,m,m,./images/CARPETHB.png,,,,,,,,,,,,,,,,,,,,,z,0,0.8827,,,,,,,,0,113,113,53,1
,,,,,,,,,,,,,,,,,5bea65135b7ff700013c946c,51,2022-02-12_17h56.16.751,lexical_decision_task_DD_L3,2021.2.3,Win32,59.97720866,,,,,,,,,,,0.7249,1,,,,,,,,,,,,,,,,,,,,,,,,0.505208333,-0.182291667,0,0,0,,,,,,,MELON,C,m,m,./images/MELON.png,,,,,,,,,,,,,,,,,,,,,m,1,0.7249,,,,,,,,0,114,114,22,1
,,,,,,,,,,,,,,,,,5bea65135b7ff700013c946c,51,2022-02-12_17h56.16.751,lexical_decision_task_DD_L3,2021.2.3,Win32,59.97720866,,,,,,,,,,,1.0337,1,,,,,,,,,,,,,,,,,,,,,,,,0.505208333,-0.182291667,0,0,0,,,,,,,BRUSH,HB,z,m,./images/BRUSHHB.png,,,,,,,,,,,,,,,,,,,,,z,1,1.0337,,,,,,,,0,115,115,143,1
,,,,,,,,,,,,,,,,,5bea65135b7ff700013c946c,51,2022-02-12_17h56.16.751,lexical_decision_task_DD_L3,2021.2.3,Win32,59.97720866,,,,,,,,,,,1.0641,0,,,,,,,,,,,,,,,,,,,,,,,,0.505208333,-0.182291667,0,0,0,,,,,,,FOLDER,LB,m,m,./images/FOLDERLB.png,,,,,,,,,,,,,,,,,,,,,z,0,1.0641,,,,,,,,0,116,116,42,1
,,,,,,,,,,,,,,,,,5bea65135b7ff700013c946c,51,2022-02-12_17h56.16.751,lexical_decision_task_DD_L3,2021.2.3,Win32,59.97720866,,,,,,,,,,,1.1856,0,,,,,,,,,,,,,,,,,,,,,,,,0.505208333,-0.182291667,0,0,0,,,,,,,MEDAL,HB,z,m,./images/MEDALHB.png,,,,,,,,,,,,,,,,,,,,,m,0,1.1856,,,,,,,,0,117,117,95,1
,,,,,,,,,,,,,,,,,5bea65135b7ff700013c946c,51,2022-02-12_17h56.16.751,lexical_decision_task_DD_L3,2021.2.3,Win32,59.97720866,,,,,,,,,,,0.8378,1,,,,,,,,,,,,,,,,,,,,,,,,0.505208333,-0.182291667,0,0,0,,,,,,,BANNER,C,m,m,./images/BANNER.png,,,,,,,,,,,,,,,,,,,,,m,1,0.8378,,,,,,,,0,118,118,52,1
,,,,,,,,,,,,,,,,,5bea65135b7ff700013c946c,51,2022-02-12_17h56.16.751,lexical_decision_task_DD_L3,2021.2.3,Win32,59.97720866,,,,,,,,,,,1.6408,1,,,,,,,,,,,,,,,,,,,,,,,,0.505208333,-0.182291667,0,0,0,,,,,,,BROOM,LB,z,m,./images/BROOMLB.png,,,,,,,,,,,,,,,,,,,,,z,1,1.6408,,,,,,,,0,119,119,162,1
,,,,,,,,,,,,,,,,,5bea65135b7ff700013c946c,51,2022-02-12_17h56.16.751,lexical_decision_task_DD_L3,2021.2.3,Win32,59.97720866,,,,,,,,,,,1.3977,0,,,,,,,,,,,,,,,,,,,,,,,,0.505208333,-0.182291667,0,0,0,,,,,,,VALLEY,HB,z,m,./images/VALLEYHB.png,,,,,,,,,,,,,,,,,,,,,m,0,1.3977,,,,,,,,0,120,120,152,1
,,,,,,,,,,,,,,,,,5bea65135b7ff700013c946c,51,2022-02-12_17h56.16.751,lexical_decision_task_DD_L3,2021.2.3,Win32,59.97720866,,,,,,,,,,,0.978,0,,,,,,,,,,,,,,,,,,,,,,,,0.505208333,-0.182291667,0,0,0,,,,,,,SAILOR,C,m,m,./images/SAILOR.png,,,,,,,,,,,,,,,,,,,,,z,0,0.978,,,,,,,,0,121,121,67,1
,,,,,,,,,,,,,,,,,5bea65135b7ff700013c946c,51,2022-02-12_17h56.16.751,lexical_decision_task_DD_L3,2021.2.3,Win32,59.97720866,,,,,,,,,,,1.2797,1,,,,,,,,,,,,,,,,,,,,,,,,0.505208333,-0.182291667,0,0,0,,,,,,,POSTER,HB,z,m,./images/POSTERHB.png,,,,,,,,,,,,,,,,,,,,,z,1,1.2797,,,,,,,,0,122,122,137,1
,,,,,,,,,,,,,,,,,5bea65135b7ff700013c946c,51,2022-02-12_17h56.16.751,lexical_decision_task_DD_L3,2021.2.3,Win32,59.97720866,,,,,,,,,,,0.8547,1,,,,,,,,,,,,,,,,,,,,,,,,0.505208333,-0.182291667,0,0,0,,,,,,,HEATER,HB,z,m,./images/HEATERHB.png,,,,,,,,,,,,,,,,,,,,,z,1,0.8547,,,,,,,,0,123,123,140,1
,,,,,,,,,,,,,,,,,5bea65135b7ff700013c946c,51,2022-02-12_17h56.16.751,lexical_decision_task_DD_L3,2021.2.3,Win32,59.97720866,,,,,,,,,,,0.9746,1,,,,,,,,,,,,,,,,,,,,,,,,0.505208333,-0.182291667,0,0,0,,,,,,,FENCE,HB,z,m,./images/FENCEHB.png,,,,,,,,,,,,,,,,,,,,,z,1,0.9746,,,,,,,,0,124,124,98,1
,,,,,,,,,,,,,,,,,5bea65135b7ff700013c946c,51,2022-02-12_17h56.16.751,lexical_decision_task_DD_L3,2021.2.3,Win32,59.97720866,,,,,,,,,,,0.6814,1,,,,,,,,,,,,,,,,,,,,,,,,0.505208333,-0.182291667,0,0,0,space,,,,,,PACKET,HB,m,m,./images/PACKETHB.png,2.715,,,,,,,,,,,,,,,,,,,,m,1,0.6814,,,,,,,,0,125,125,56,1
,,,,,,,,,,,,,,,,,5bea65135b7ff700013c946c,51,2022-02-12_17h56.16.751,lexical_decision_task_DD_L3,2021.2.3,Win32,59.97720866,,,,,,,,,,,1.0351,1,,,,,,,,,,,,,,,,,,,,,,,,0.505208333,-0.182291667,0,0,0,,,,,,,BRIDE,C,z,m,./images/BRIDE.png,,,,,,,,,,,,,,,,,,,,,z,1,1.0351,,,,,,,,0,126,126,148,1
,,,,,,,,,,,,,,,,,5bea65135b7ff700013c946c,51,2022-02-12_17h56.16.751,lexical_decision_task_DD_L3,2021.2.3,Win32,59.97720866,,,,,,,,,,,0.9132,1,,,,,,,,,,,,,,,,,,,,,,,,0.505208333,-0.182291667,0,0,0,,,,,,,ARTIST,C,z,m,./images/ARTIST.png,,,,,,,,,,,,,,,,,,,,,z,1,0.9132,,,,,,,,0,127,127,145,1
,,,,,,,,,,,,,,,,,5bea65135b7ff700013c946c,51,2022-02-12_17h56.16.751,lexical_decision_task_DD_L3,2021.2.3,Win32,59.97720866,,,,,,,,,,,0.6533,1,,,,,,,,,,,,,,,,,,,,,,,,0.505208333,-0.182291667,0,0,0,,,,,,,JUNGLE,HB,m,m,./images/JUNGLEHB.png,,,,,,,,,,,,,,,,,,,,,m,1,0.6533,,,,,,,,0,128,128,83,1
,,,,,,,,,,,,,,,,,5bea65135b7ff700013c946c,51,2022-02-12_17h56.16.751,lexical_decision_task_DD_L3,2021.2.3,Win32,59.97720866,,,,,,,,,,,0.9703,0,,,,,,,,,,,,,,,,,,,,,,,,0.505208333,-0.182291667,0,0,0,,,,,,,FLASK,LB,z,m,./images/FLASKLB.png,,,,,,,,,,,,,,,,,,,,,m,0,0.9703,,,,,,,,0,129,129,156,1
,,,,,,,,,,,,,,,,,5bea65135b7ff700013c946c,51,2022-02-12_17h56.16.751,lexical_decision_task_DD_L3,2021.2.3,Win32,59.97720866,,,,,,,,,,,0.8954,1,,,,,,,,,,,,,,,,,,,,,,,,0.505208333,-0.182291667,0,0,0,,,,,,,SAUNA,LB,z,m,./images/SAUNALB.png,,,,,,,,,,,,,,,,,,,,,z,1,0.8954,,,,,,,,0,130,130,117,1
,,,,,,,,,,,,,,,,,5bea65135b7ff700013c946c,51,2022-02-12_17h56.16.751,lexical_decision_task_DD_L3,2021.2.3,Win32,59.97720866,,,,,,,,,,,0.9035,1,,,,,,,,,,,,,,,,,,,,,,,,0.505208333,-0.182291667,0,0,0,,,,,,,MUFFIN,C,m,m,./images/MUFFIN.png,,,,,,,,,,,,,,,,,,,,,m,1,0.9035,,,,,,,,0,131,131,55,1
