key_resp.keys,instr_done_touch.x,instr_done_touch.y,instr_done_touch.leftButton,instr_done_touch.midButton,instr_done_touch.rightButton,instr_done_touch.clicked_name,instruction_pages.thisRepN,instruction_pages.thisTrialN,instruction_pages.thisN,instruction_pages.thisIndex,instruction_pages.ran,pageN,phase,instruct_text,has_image,instruct_image,participant,age,date,expName,psychopyVersion,OS,frameRate,key_resp.rt,response.keys,response.corr,response.rt,touch_resp.x,touch_resp.y,touch_resp.leftButton,touch_resp.midButton,touch_resp.rightButton,touch_resp.time,touch_resp.clicked_name,rt,corr,practrials.thisRepN,practrials.thisTrialN,practrials.thisN,practrials.thisIndex,practrials.ran,TrialID,Target,corrAns,end_of_practice_trials_pages.thisRepN,end_of_practice_trials_pages.thisTrialN,end_of_practice_trials_pages.thisN,end_of_practice_trials_pages.thisIndex,end_of_practice_trials_pages.ran,key_resp_2.keys,key_resp_2.corr,key_resp_2.rt,targ_click.x,targ_click.y,targ_click.leftButton,targ_click.midButton,targ_click.rightButton,targ_click.time,targ_click.clicked_name,break_done_touch.x,break_done_touch.y,break_done_touch.leftButton,break_done_touch.midButton,break_done_touch.rightButton,break_done_keyboard.keys,maintrials.thisRepN,maintrials.thisTrialN,maintrials.thisN,maintrials.thisIndex,maintrials.ran,string,blur,study,lex,stim_path,break_done_keyboard.rt,mouse_2.x,mouse_2.y,mouse_2.leftButton,mouse_2.midButton,mouse_2.rightButton,mouse_2.clicked_name,slider.response,slider.rt,trials.thisRepN,trials.thisTrialN,trials.thisN,trials.thisIndex,trials.ran,test_instructions.thisRepN,test_instructions.thisTrialN,test_instructions.thisN,test_instructions.thisIndex,test_instructions.ran,key_resp_3.keys,key_resp_3.corr,key_resp_3.rt,test_click.x,test_click.y,test_click.leftButton,test_click.midButton,test_click.rightButton,test_click.time,test_click.clicked_name,test_phase.thisRepN,test_phase.thisTrialN,test_phase.thisN,test_phase.thisIndex,test_phase.ran
,0.014814815,-0.386111111,1,0,0,instr_done_button,0,0,0,0,1,1,instructions,"INSTRUCTIONS
At the start of each trial, look at the plus sign  (+) in the center of the screen.  This tells you that a trial is about to begin and where to look. Second, the plus sign will disappear and a string of letters will appear. Your task is to determine if the string of letters is a word or not. If the item is a word press the M key (on keyboard)  or touch the word button (phone/tablet).  If the item is not a word,  press the  Z key (on keyboard)  or touch the nonword button (on phone/tablet). 
Press the space bar or touch  continue.",0,,5d1a7bb2339da6001a12b11a,67,2022-02-12_16h51.25.501,lexical_decision_task_DD_L3,2021.2.3,Win32,59.99160118,,,,,,,,,,,,,,,,,,,,,,,,,,,,,,,,,,,,,,,,,,,,,,,,,,,,,,,,,,,,,,,,,,,,,,,,,,,,,,,,,,,,,,
space,0.124074074,-0.158333333,0,0,0,,0,1,1,1,1,2,instructions,"If your device has a keyboard, press the 'Z' key for nonwords and the 'M' key for words.





Press the space bar or touch the button below to continue.",0,keyboard-example.gif,5d1a7bb2339da6001a12b11a,67,2022-02-12_16h51.25.501,lexical_decision_task_DD_L3,2021.2.3,Win32,59.99160118,19.5792,,,,,,,,,,,,,,,,,,,,,,,,,,,,,,,,,,,,,,,,,,,,,,,,,,,,,,,,,,,,,,,,,,,,,,,,,,,,,,,,,,,,,
space,0.124074074,-0.158333333,0,0,0,,0,2,2,2,1,3,instructions,"If you are using a touchscreen only device, use the buttons on the screen. Do not use the mouse.





Press the space bar or touch the button below to continue.",0,touchscreen-example.gif,5d1a7bb2339da6001a12b11a,67,2022-02-12_16h51.25.501,lexical_decision_task_DD_L3,2021.2.3,Win32,59.99160118,6.4174,,,,,,,,,,,,,,,,,,,,,,,,,,,,,,,,,,,,,,,,,,,,,,,,,,,,,,,,,,,,,,,,,,,,,,,,,,,,,,,,,,,,,
space,0.124074074,-0.158333333,0,0,0,,0,3,3,3,1,4,instructions,"It is very important that you respond as quickly and accurately as possible, as each letter string will only be on the screen for two seconds. If you do not respond within this time, the message 'Too slow!' will be displayed and the experiment will progress to the next letter string. The first 20 trials will be practice trials and you will receive feedback on your answers. 

Press the space bar or touch the button below to start the practice trials.",0,,5d1a7bb2339da6001a12b11a,67,2022-02-12_16h51.25.501,lexical_decision_task_DD_L3,2021.2.3,Win32,59.99160118,17.8678,,,,,,,,,,,,,,,,,,,,,,,,,,,,,,,,,,,,,,,,,,,,,,,,,,,,,,,,,,,,,,,,,,,,,,,,,,,,,,,,,,,,,
,,,,,,,,,,,,,,,,,5d1a7bb2339da6001a12b11a,67,2022-02-12_16h51.25.501,lexical_decision_task_DD_L3,2021.2.3,Win32,59.99160118,,m,1,1.1172,,,,,,,,1.1172,1,0,0,0,0,1,1001,UTOPIA,m,,,,,,,,,,,,,,,,,,,,,,,,,,,,,,,,,,,,,,,,,,,,,,,,,,,,,,,,,,,,,,,,,
,,,,,,,,,,,,,,,,,5d1a7bb2339da6001a12b11a,67,2022-02-12_16h51.25.501,lexical_decision_task_DD_L3,2021.2.3,Win32,59.99160118,,z,1,0.9073,,,,,,,,0.9073,1,0,1,1,8,1,1001,ASLERT,z,,,,,,,,,,,,,,,,,,,,,,,,,,,,,,,,,,,,,,,,,,,,,,,,,,,,,,,,,,,,,,,,,
,,,,,,,,,,,,,,,,,5d1a7bb2339da6001a12b11a,67,2022-02-12_16h51.25.501,lexical_decision_task_DD_L3,2021.2.3,Win32,59.99160118,,z,1,0.9169,,,,,,,,0.9169,1,0,2,2,10,1,1001,INLADE,z,,,,,,,,,,,,,,,,,,,,,,,,,,,,,,,,,,,,,,,,,,,,,,,,,,,,,,,,,,,,,,,,,
,,,,,,,,,,,,,,,,,5d1a7bb2339da6001a12b11a,67,2022-02-12_16h51.25.501,lexical_decision_task_DD_L3,2021.2.3,Win32,59.99160118,,m,1,0.6999,,,,,,,,0.6999,1,0,3,3,3,1,1001,MATRIX,m,,,,,,,,,,,,,,,,,,,,,,,,,,,,,,,,,,,,,,,,,,,,,,,,,,,,,,,,,,,,,,,,,
,,,,,,,,,,,,,,,,,5d1a7bb2339da6001a12b11a,67,2022-02-12_16h51.25.501,lexical_decision_task_DD_L3,2021.2.3,Win32,59.99160118,,m,1,0.9519,,,,,,,,0.9519,1,0,4,4,6,1,1001,ZOMBIE,m,,,,,,,,,,,,,,,,,,,,,,,,,,,,,,,,,,,,,,,,,,,,,,,,,,,,,,,,,,,,,,,,,
,,,,,,,,,,,,,,,,,5d1a7bb2339da6001a12b11a,67,2022-02-12_16h51.25.501,lexical_decision_task_DD_L3,2021.2.3,Win32,59.99160118,,m,1,0.852,,,,,,,,0.852,1,0,5,5,5,1,1001,OBTAIN,m,,,,,,,,,,,,,,,,,,,,,,,,,,,,,,,,,,,,,,,,,,,,,,,,,,,,,,,,,,,,,,,,,
,,,,,,,,,,,,,,,,,5d1a7bb2339da6001a12b11a,67,2022-02-12_16h51.25.501,lexical_decision_task_DD_L3,2021.2.3,Win32,59.99160118,,z,1,0.7814,,,,,,,,0.7814,1,0,6,6,14,1,1001,THRALE,z,,,,,,,,,,,,,,,,,,,,,,,,,,,,,,,,,,,,,,,,,,,,,,,,,,,,,,,,,,,,,,,,,
,,,,,,,,,,,,,,,,,5d1a7bb2339da6001a12b11a,67,2022-02-12_16h51.25.501,lexical_decision_task_DD_L3,2021.2.3,Win32,59.99160118,,m,1,0.6974,,,,,,,,0.6974,1,0,7,7,2,1,1001,ALMOND,m,,,,,,,,,,,,,,,,,,,,,,,,,,,,,,,,,,,,,,,,,,,,,,,,,,,,,,,,,,,,,,,,,
,,,,,,,,,,,,,,,,,5d1a7bb2339da6001a12b11a,67,2022-02-12_16h51.25.501,lexical_decision_task_DD_L3,2021.2.3,Win32,59.99160118,,z,1,0.6883,,,,,,,,0.6883,1,0,8,8,15,1,1001,WHAISE,z,,,,,,,,,,,,,,,,,,,,,,,,,,,,,,,,,,,,,,,,,,,,,,,,,,,,,,,,,,,,,,,,,
,,,,,,,,,,,,,,,,,5d1a7bb2339da6001a12b11a,67,2022-02-12_16h51.25.501,lexical_decision_task_DD_L3,2021.2.3,Win32,59.99160118,,z,1,0.6244,,,,,,,,0.6244,1,0,9,9,13,1,1001,ROUPET,z,,,,,,,,,,,,,,,,,,,,,,,,,,,,,,,,,,,,,,,,,,,,,,,,,,,,,,,,,,,,,,,,,
,,,,,,,,,,,,,,,,,5d1a7bb2339da6001a12b11a,67,2022-02-12_16h51.25.501,lexical_decision_task_DD_L3,2021.2.3,Win32,59.99160118,,m,1,0.6891,,,,,,,,0.6891,1,0,10,10,4,1,1001,SQUEAK,m,,,,,,,,,,,,,,,,,,,,,,,,,,,,,,,,,,,,,,,,,,,,,,,,,,,,,,,,,,,,,,,,,
,,,,,,,,,,,,,,,,,5d1a7bb2339da6001a12b11a,67,2022-02-12_16h51.25.501,lexical_decision_task_DD_L3,2021.2.3,Win32,59.99160118,,m,1,0.6505,,,,,,,,0.6505,1,0,11,11,1,1,1001,ADJUST,m,,,,,,,,,,,,,,,,,,,,,,,,,,,,,,,,,,,,,,,,,,,,,,,,,,,,,,,,,,,,,,,,,
,,,,,,,,,,,,,,,,,5d1a7bb2339da6001a12b11a,67,2022-02-12_16h51.25.501,lexical_decision_task_DD_L3,2021.2.3,Win32,59.99160118,,z,1,0.6504,,,,,,,,0.6504,1,0,12,12,11,1,1001,RASHET,z,,,,,,,,,,,,,,,,,,,,,,,,,,,,,,,,,,,,,,,,,,,,,,,,,,,,,,,,,,,,,,,,,
,,,,,,,,,,,,,,,,,5d1a7bb2339da6001a12b11a,67,2022-02-12_16h51.25.501,lexical_decision_task_DD_L3,2021.2.3,Win32,59.99160118,,z,1,0.7002,,,,,,,,0.7002,1,0,13,13,12,1,1001,SPRINY,z,,,,,,,,,,,,,,,,,,,,,,,,,,,,,,,,,,,,,,,,,,,,,,,,,,,,,,,,,,,,,,,,,
,,,,,,,,,,,,,,,,,5d1a7bb2339da6001a12b11a,67,2022-02-12_16h51.25.501,lexical_decision_task_DD_L3,2021.2.3,Win32,59.99160118,,m,0,0.5786,,,,,,,,0.5786,0,0,14,14,9,1,1001,FARINY,z,,,,,,,,,,,,,,,,,,,,,,,,,,,,,,,,,,,,,,,,,,,,,,,,,,,,,,,,,,,,,,,,,
,,,,,,,,,,,,,,,,,5d1a7bb2339da6001a12b11a,67,2022-02-12_16h51.25.501,lexical_decision_task_DD_L3,2021.2.3,Win32,59.99160118,,m,1,0.7181,,,,,,,,0.7181,1,0,15,15,7,1,1001,VOLUME,m,,,,,,,,,,,,,,,,,,,,,,,,,,,,,,,,,,,,,,,,,,,,,,,,,,,,,,,,,,,,,,,,,
space,0.124074074,-0.158333333,0,0,0,,,,,,,1,end_of_practice,"You have completed the practice trials. During the experimental trials, you will not receive feedback. 
Before you begin, please ensure that you are in a comfortable and quiet location and will not be disturbed for about 15 minutes, as we cannot use your data if you do not complete all the trials. 
 When you are ready to start the experimental trials, please press space or touch the button below.",,,5d1a7bb2339da6001a12b11a,67,2022-02-12_16h51.25.501,lexical_decision_task_DD_L3,2021.2.3,Win32,59.99160118,10.5238,,,,,,,,,,,,,,,,,,,,,0,0,0,0,1,,,,,,,,,,,,,,,,,,,,,,,,,,,,,,,,,,,,,,,,,,,,,,,,,,,,,,,,,,,,
,,,,,,,,,,,,,,,,,5d1a7bb2339da6001a12b11a,67,2022-02-12_16h51.25.501,lexical_decision_task_DD_L3,2021.2.3,Win32,59.99160118,,,,,,,,,,,,0.8262,1,,,,,,,,,,,,,,z,1,0.8262,,,,,,,,0.124074074,-0.158333333,0,0,0,,0,0,0,95,1,HANTY,LB,old,z,./images/HANTYLB.png,,,,,,,,,,,,,,,,,,,,,,,,,,,,,,,,,,
,,,,,,,,,,,,,,,,,5d1a7bb2339da6001a12b11a,67,2022-02-12_16h51.25.501,lexical_decision_task_DD_L3,2021.2.3,Win32,59.99160118,,,,,,,,,,,,0.6895,1,,,,,,,,,,,,,,z,1,0.6895,,,,,,,,0.124074074,-0.158333333,0,0,0,,0,1,1,150,1,NOOLS,C,old,z,./images/NOOLS.png,,,,,,,,,,,,,,,,,,,,,,,,,,,,,,,,,,
,,,,,,,,,,,,,,,,,5d1a7bb2339da6001a12b11a,67,2022-02-12_16h51.25.501,lexical_decision_task_DD_L3,2021.2.3,Win32,59.99160118,,,,,,,,,,,,1.0522,1,,,,,,,,,,,,,,z,1,1.0522,,,,,,,,0.124074074,-0.158333333,0,0,0,,0,2,2,125,1,MOOKY,LB,old,z,./images/MOOKYLB.png,,,,,,,,,,,,,,,,,,,,,,,,,,,,,,,,,,
,,,,,,,,,,,,,,,,,5d1a7bb2339da6001a12b11a,67,2022-02-12_16h51.25.501,lexical_decision_task_DD_L3,2021.2.3,Win32,59.99160118,,,,,,,,,,,,0.8343,1,,,,,,,,,,,,,,z,1,0.8343,,,,,,,,0.124074074,-0.158333333,0,0,0,,0,3,3,131,1,NACES,LB,old,z,./images/NACESLB.png,,,,,,,,,,,,,,,,,,,,,,,,,,,,,,,,,,
,,,,,,,,,,,,,,,,,5d1a7bb2339da6001a12b11a,67,2022-02-12_16h51.25.501,lexical_decision_task_DD_L3,2021.2.3,Win32,59.99160118,,,,,,,,,,,,1.118,1,,,,,,,,,,,,,,z,1,1.118,,,,,,,,0.124074074,-0.158333333,0,0,0,,0,4,4,121,1,CEERS,HB,old,z,./images/CEERSHB.png,,,,,,,,,,,,,,,,,,,,,,,,,,,,,,,,,,
,,,,,,,,,,,,,,,,,5d1a7bb2339da6001a12b11a,67,2022-02-12_16h51.25.501,lexical_decision_task_DD_L3,2021.2.3,Win32,59.99160118,,,,,,,,,,,,0.5841,1,,,,,,,,,,,,,,m,1,0.5841,,,,,,,,0.124074074,-0.158333333,0,0,0,,0,5,5,61,1,CANDLE,C,old,m,./images/CANDLE.png,,,,,,,,,,,,,,,,,,,,,,,,,,,,,,,,,,
,,,,,,,,,,,,,,,,,5d1a7bb2339da6001a12b11a,67,2022-02-12_16h51.25.501,lexical_decision_task_DD_L3,2021.2.3,Win32,59.99160118,,,,,,,,,,,,0.687,1,,,,,,,,,,,,,,z,1,0.687,,,,,,,,0.124074074,-0.158333333,0,0,0,,0,6,6,149,1,VEASE,LB,old,z,./images/VEASELB.png,,,,,,,,,,,,,,,,,,,,,,,,,,,,,,,,,,
,,,,,,,,,,,,,,,,,5d1a7bb2339da6001a12b11a,67,2022-02-12_16h51.25.501,lexical_decision_task_DD_L3,2021.2.3,Win32,59.99160118,,,,,,,,,,,,0.57,1,,,,,,,,,,,,,,m,1,0.57,,,,,,,,0.124074074,-0.158333333,0,0,0,,0,7,7,46,1,PEARL,C,old,m,./images/PEARL.png,,,,,,,,,,,,,,,,,,,,,,,,,,,,,,,,,,
,,,,,,,,,,,,,,,,,5d1a7bb2339da6001a12b11a,67,2022-02-12_16h51.25.501,lexical_decision_task_DD_L3,2021.2.3,Win32,59.99160118,,,,,,,,,,,,0.6023,1,,,,,,,,,,,,,,z,1,0.6023,,,,,,,,0.124074074,-0.158333333,0,0,0,,0,8,8,161,1,BLAPS,LB,old,z,./images/BLAPSLB.png,,,,,,,,,,,,,,,,,,,,,,,,,,,,,,,,,,
,,,,,,,,,,,,,,,,,5d1a7bb2339da6001a12b11a,67,2022-02-12_16h51.25.501,lexical_decision_task_DD_L3,2021.2.3,Win32,59.99160118,,,,,,,,,,,,0.8838,1,,,,,,,,,,,,,,z,1,0.8838,,,,,,,,0.124074074,-0.158333333,0,0,0,,0,9,9,129,1,PRANS,C,old,z,./images/PRANS.png,,,,,,,,,,,,,,,,,,,,,,,,,,,,,,,,,,
,,,,,,,,,,,,,,,,,5d1a7bb2339da6001a12b11a,67,2022-02-12_16h51.25.501,lexical_decision_task_DD_L3,2021.2.3,Win32,59.99160118,,,,,,,,,,,,0.5666,1,,,,,,,,,,,,,,z,1,0.5666,,,,,,,,0.124074074,-0.158333333,0,0,0,,0,10,10,158,1,EGECT,LB,old,z,./images/EGECTLB.png,,,,,,,,,,,,,,,,,,,,,,,,,,,,,,,,,,
,,,,,,,,,,,,,,,,,5d1a7bb2339da6001a12b11a,67,2022-02-12_16h51.25.501,lexical_decision_task_DD_L3,2021.2.3,Win32,59.99160118,,,,,,,,,,,,0.6608,1,,,,,,,,,,,,,,m,1,0.6608,,,,,,,,0.124074074,-0.158333333,0,0,0,,0,11,11,66,1,SWEAT,LB,old,m,./images/SWEATLB.png,,,,,,,,,,,,,,,,,,,,,,,,,,,,,,,,,,
,,,,,,,,,,,,,,,,,5d1a7bb2339da6001a12b11a,67,2022-02-12_16h51.25.501,lexical_decision_task_DD_L3,2021.2.3,Win32,59.99160118,,,,,,,,,,,,0.6419,1,,,,,,,,,,,,,,z,1,0.6419,,,,,,,,0.124074074,-0.158333333,0,0,0,,0,12,12,144,1,NAIRY,C,old,z,./images/NAIRY.png,,,,,,,,,,,,,,,,,,,,,,,,,,,,,,,,,,
,,,,,,,,,,,,,,,,,5d1a7bb2339da6001a12b11a,67,2022-02-12_16h51.25.501,lexical_decision_task_DD_L3,2021.2.3,Win32,59.99160118,,,,,,,,,,,,0.8635,1,,,,,,,,,,,,,,z,1,0.8635,,,,,,,,0.124074074,-0.158333333,0,0,0,,0,13,13,142,1,PLASK,HB,old,z,./images/PLASKHB.png,,,,,,,,,,,,,,,,,,,,,,,,,,,,,,,,,,
,,,,,,,,,,,,,,,,,5d1a7bb2339da6001a12b11a,67,2022-02-12_16h51.25.501,lexical_decision_task_DD_L3,2021.2.3,Win32,59.99160118,,,,,,,,,,,,0.6037,1,,,,,,,,,,,,,,m,1,0.6037,,,,,,,,0.124074074,-0.158333333,0,0,0,,0,14,14,33,1,MAGGOT,LB,old,m,./images/MAGGOTLB.png,,,,,,,,,,,,,,,,,,,,,,,,,,,,,,,,,,
,,,,,,,,,,,,,,,,,5d1a7bb2339da6001a12b11a,67,2022-02-12_16h51.25.501,lexical_decision_task_DD_L3,2021.2.3,Win32,59.99160118,,,,,,,,,,,,0.9624,1,,,,,,,,,,,,,,m,1,0.9624,,,,,,,,0.124074074,-0.158333333,0,0,0,,0,15,15,8,1,TULIP,HB,old,m,./images/TULIPHB.png,,,,,,,,,,,,,,,,,,,,,,,,,,,,,,,,,,
,,,,,,,,,,,,,,,,,5d1a7bb2339da6001a12b11a,67,2022-02-12_16h51.25.501,lexical_decision_task_DD_L3,2021.2.3,Win32,59.99160118,,,,,,,,,,,,1.1871,0,,,,,,,,,,,,,,z,0,1.1871,,,,,,,,0.124074074,-0.158333333,0,0,0,,0,16,16,26,1,SMOKER,HB,old,m,./images/SMOKERHB.png,,,,,,,,,,,,,,,,,,,,,,,,,,,,,,,,,,
,,,,,,,,,,,,,,,,,5d1a7bb2339da6001a12b11a,67,2022-02-12_16h51.25.501,lexical_decision_task_DD_L3,2021.2.3,Win32,59.99160118,,,,,,,,,,,,0.7625,1,,,,,,,,,,,,,,z,1,0.7625,,,,,,,,0.124074074,-0.158333333,0,0,0,,0,17,17,105,1,MOKER,C,old,z,./images/MOKER.png,,,,,,,,,,,,,,,,,,,,,,,,,,,,,,,,,,
,,,,,,,,,,,,,,,,,5d1a7bb2339da6001a12b11a,67,2022-02-12_16h51.25.501,lexical_decision_task_DD_L3,2021.2.3,Win32,59.99160118,,,,,,,,,,,,1.3065,1,,,,,,,,,,,,,,z,1,1.3065,,,,,,,,0.124074074,-0.158333333,0,0,0,,0,18,18,118,1,BAVEL,HB,old,z,./images/BAVELHB.png,,,,,,,,,,,,,,,,,,,,,,,,,,,,,,,,,,
,,,,,,,,,,,,,,,,,5d1a7bb2339da6001a12b11a,67,2022-02-12_16h51.25.501,lexical_decision_task_DD_L3,2021.2.3,Win32,59.99160118,,,,,,,,,,,,0.669,1,,,,,,,,,,,,,,m,1,0.669,,,,,,,,0.124074074,-0.158333333,0,0,0,,0,19,19,40,1,SWING,C,old,m,./images/SWING.png,,,,,,,,,,,,,,,,,,,,,,,,,,,,,,,,,,
,,,,,,,,,,,,,,,,,5d1a7bb2339da6001a12b11a,67,2022-02-12_16h51.25.501,lexical_decision_task_DD_L3,2021.2.3,Win32,59.99160118,,,,,,,,,,,,0.6815,1,,,,,,,,,,,,,,z,1,0.6815,,,,,,,,0.124074074,-0.158333333,0,0,0,,0,20,20,113,1,LINEW,LB,old,z,./images/LINEWLB.png,,,,,,,,,,,,,,,,,,,,,,,,,,,,,,,,,,
,,,,,,,,,,,,,,,,,5d1a7bb2339da6001a12b11a,67,2022-02-12_16h51.25.501,lexical_decision_task_DD_L3,2021.2.3,Win32,59.99160118,,,,,,,,,,,,0.5984,1,,,,,,,,,,,,,,m,1,0.5984,,,,,,,,0.124074074,-0.158333333,0,0,0,,0,21,21,60,1,TWINS,LB,old,m,./images/TWINSLB.png,,,,,,,,,,,,,,,,,,,,,,,,,,,,,,,,,,
,,,,,,,,,,,,,,,,,5d1a7bb2339da6001a12b11a,67,2022-02-12_16h51.25.501,lexical_decision_task_DD_L3,2021.2.3,Win32,59.99160118,,,,,,,,,,,,0.7243,1,,,,,,,,,,,,,,z,1,0.7243,,,,,,,,0.124074074,-0.158333333,0,0,0,,0,22,22,98,1,BAMPS,LB,old,z,./images/BAMPSLB.png,,,,,,,,,,,,,,,,,,,,,,,,,,,,,,,,,,
,,,,,,,,,,,,,,,,,5d1a7bb2339da6001a12b11a,67,2022-02-12_16h51.25.501,lexical_decision_task_DD_L3,2021.2.3,Win32,59.99160118,,,,,,,,,,,,0.6538,1,,,,,,,,,,,,,,z,1,0.6538,,,,,,,,0.124074074,-0.158333333,0,0,0,,0,23,23,140,1,DOVET,LB,old,z,./images/DOVETLB.png,,,,,,,,,,,,,,,,,,,,,,,,,,,,,,,,,,
,,,,,,,,,,,,,,,,,5d1a7bb2339da6001a12b11a,67,2022-02-12_16h51.25.501,lexical_decision_task_DD_L3,2021.2.3,Win32,59.99160118,,,,,,,,,,,,0.9069,1,,,,,,,,,,,,,,z,1,0.9069,,,,,,,,0.124074074,-0.158333333,0,0,0,,0,24,24,127,1,NINDY,HB,old,z,./images/NINDYHB.png,,,,,,,,,,,,,,,,,,,,,,,,,,,,,,,,,,
,,,,,,,,,,,,,,,,,5d1a7bb2339da6001a12b11a,67,2022-02-12_16h51.25.501,lexical_decision_task_DD_L3,2021.2.3,Win32,59.99160118,,,,,,,,,,,,0.614,1,,,,,,,,,,,,,,z,1,0.614,,,,,,,,0.124074074,-0.158333333,0,0,0,,0,25,25,135,1,JOODY,C,old,z,./images/JOODY.png,,,,,,,,,,,,,,,,,,,,,,,,,,,,,,,,,,
,,,,,,,,,,,,,,,,,5d1a7bb2339da6001a12b11a,67,2022-02-12_16h51.25.501,lexical_decision_task_DD_L3,2021.2.3,Win32,59.99160118,,,,,,,,,,,,0.8923,1,,,,,,,,,,,,,,z,1,0.8923,,,,,,,,0.124074074,-0.158333333,0,0,0,,0,26,26,160,1,VEETS,HB,old,z,./images/VEETSHB.png,,,,,,,,,,,,,,,,,,,,,,,,,,,,,,,,,,
,,,,,,,,,,,,,,,,,5d1a7bb2339da6001a12b11a,67,2022-02-12_16h51.25.501,lexical_decision_task_DD_L3,2021.2.3,Win32,59.99160118,,,,,,,,,,,,0.5668,1,,,,,,,,,,,,,,z,1,0.5668,,,,,,,,0.124074074,-0.158333333,0,0,0,,0,27,27,84,1,HAXES,C,old,z,./images/HAXES.png,,,,,,,,,,,,,,,,,,,,,,,,,,,,,,,,,,
,,,,,,,,,,,,,,,,,5d1a7bb2339da6001a12b11a,67,2022-02-12_16h51.25.501,lexical_decision_task_DD_L3,2021.2.3,Win32,59.99160118,,,,,,,,,,,,1.0956,1,,,,,,,,,,,,,,m,1,1.0956,,,,,,,,0.124074074,-0.158333333,0,0,0,,0,28,28,38,1,LADDER,HB,old,m,./images/LADDERHB.png,,,,,,,,,,,,,,,,,,,,,,,,,,,,,,,,,,
,,,,,,,,,,,,,,,,,5d1a7bb2339da6001a12b11a,67,2022-02-12_16h51.25.501,lexical_decision_task_DD_L3,2021.2.3,Win32,59.99160118,,,,,,,,,,,,1.1701,1,,,,,,,,,,,,,,z,1,1.1701,,,,,,,,0.124074074,-0.158333333,0,0,0,,0,29,29,145,1,LAMEL,HB,old,z,./images/LAMELHB.png,,,,,,,,,,,,,,,,,,,,,,,,,,,,,,,,,,
,,,,,,,,,,,,,,,,,5d1a7bb2339da6001a12b11a,67,2022-02-12_16h51.25.501,lexical_decision_task_DD_L3,2021.2.3,Win32,59.99160118,,,,,,,,,,,,0.7068,1,,,,,,,,,,,,,,z,1,0.7068,,,,,,,,0.124074074,-0.158333333,0,0,0,,0,30,30,164,1,SGREW,LB,old,z,./images/SGREWLB.png,,,,,,,,,,,,,,,,,,,,,,,,,,,,,,,,,,
,,,,,,,,,,,,,,,,,5d1a7bb2339da6001a12b11a,67,2022-02-12_16h51.25.501,lexical_decision_task_DD_L3,2021.2.3,Win32,59.99160118,,,,,,,,,,,,0.613,1,,,,,,,,,,,,,,z,1,0.613,,,,,,,,0.124074074,-0.158333333,0,0,0,,0,31,31,86,1,AIFED,LB,old,z,./images/AIFEDLB.png,,,,,,,,,,,,,,,,,,,,,,,,,,,,,,,,,,
,,,,,,,,,,,,,,,,,5d1a7bb2339da6001a12b11a,67,2022-02-12_16h51.25.501,lexical_decision_task_DD_L3,2021.2.3,Win32,59.99160118,,,,,,,,,,,,0.7961,1,,,,,,,,,,,,,,z,1,0.7961,,,,,,,,0.124074074,-0.158333333,0,0,0,,0,32,32,103,1,FLORT,HB,old,z,./images/FLORTHB.png,,,,,,,,,,,,,,,,,,,,,,,,,,,,,,,,,,
,,,,,,,,,,,,,,,,,5d1a7bb2339da6001a12b11a,67,2022-02-12_16h51.25.501,lexical_decision_task_DD_L3,2021.2.3,Win32,59.99160118,,,,,,,,,,,,0.7863,1,,,,,,,,,,,,,,m,1,0.7863,,,,,,,,0.124074074,-0.158333333,0,0,0,,0,33,33,32,1,BARREL,HB,old,m,./images/BARRELHB.png,,,,,,,,,,,,,,,,,,,,,,,,,,,,,,,,,,
,,,,,,,,,,,,,,,,,5d1a7bb2339da6001a12b11a,67,2022-02-12_16h51.25.501,lexical_decision_task_DD_L3,2021.2.3,Win32,59.99160118,,,,,,,,,,,,0.7005,1,,,,,,,,,,,,,,z,1,0.7005,,,,,,,,0.124074074,-0.158333333,0,0,0,,0,34,34,146,1,MOOST,LB,old,z,./images/MOOSTLB.png,,,,,,,,,,,,,,,,,,,,,,,,,,,,,,,,,,
,,,,,,,,,,,,,,,,,5d1a7bb2339da6001a12b11a,67,2022-02-12_16h51.25.501,lexical_decision_task_DD_L3,2021.2.3,Win32,59.99160118,,,,,,,,,,,,0.6441,1,,,,,,,,,,,,,,m,1,0.6441,,,,,,,,0.124074074,-0.158333333,0,0,0,,0,35,35,30,1,STORM,LB,old,m,./images/STORMLB.png,,,,,,,,,,,,,,,,,,,,,,,,,,,,,,,,,,
,,,,,,,,,,,,,,,,,5d1a7bb2339da6001a12b11a,67,2022-02-12_16h51.25.501,lexical_decision_task_DD_L3,2021.2.3,Win32,59.99160118,,,,,,,,,,,,0.9387,1,,,,,,,,,,,,,,m,1,0.9387,,,,,,,,0.124074074,-0.158333333,0,0,0,,0,36,36,62,1,PURSE,HB,old,m,./images/PURSEHB.png,,,,,,,,,,,,,,,,,,,,,,,,,,,,,,,,,,
,,,,,,,,,,,,,,,,,5d1a7bb2339da6001a12b11a,67,2022-02-12_16h51.25.501,lexical_decision_task_DD_L3,2021.2.3,Win32,59.99160118,,,,,,,,,,,,0.7716,1,,,,,,,,,,,,,,m,1,0.7716,,,,,,,,0.124074074,-0.158333333,0,0,0,,0,37,37,51,1,ONION,LB,old,m,./images/ONIONLB.png,,,,,,,,,,,,,,,,,,,,,,,,,,,,,,,,,,
,,,,,,,,,,,,,,,,,5d1a7bb2339da6001a12b11a,67,2022-02-12_16h51.25.501,lexical_decision_task_DD_L3,2021.2.3,Win32,59.99160118,,,,,,,,,,,,0.6675,1,,,,,,,,,,,,,,m,1,0.6675,,,,,,,,0.124074074,-0.158333333,0,0,0,,0,38,38,57,1,MOOSE,LB,old,m,./images/MOOSELB.png,,,,,,,,,,,,,,,,,,,,,,,,,,,,,,,,,,
,,,,,,,,,,,,,,,,,5d1a7bb2339da6001a12b11a,67,2022-02-12_16h51.25.501,lexical_decision_task_DD_L3,2021.2.3,Win32,59.99160118,,,,,,,,,,,,0.6004,1,,,,,,,,,,,,,,z,1,0.6004,,,,,,,,0.124074074,-0.158333333,0,0,0,,0,39,39,153,1,CLUPS,C,old,z,./images/CLUPS.png,,,,,,,,,,,,,,,,,,,,,,,,,,,,,,,,,,
,,,,,,,,,,,,,,,,,5d1a7bb2339da6001a12b11a,67,2022-02-12_16h51.25.501,lexical_decision_task_DD_L3,2021.2.3,Win32,59.99160118,,,,,,,,,,,,1.0225,1,,,,,,,,,,,,,,m,1,1.0225,,,,,,,,0.124074074,-0.158333333,0,0,0,,0,40,40,47,1,BERRY,HB,old,m,./images/BERRYHB.png,,,,,,,,,,,,,,,,,,,,,,,,,,,,,,,,,,
,,,,,,,,,,,,,,,,,5d1a7bb2339da6001a12b11a,67,2022-02-12_16h51.25.501,lexical_decision_task_DD_L3,2021.2.3,Win32,59.99160118,,,,,,,,,,,,0.6512,1,,,,,,,,,,,,,,m,1,0.6512,,,,,,,,0.124074074,-0.158333333,0,0,0,space,0,41,41,70,1,URINE,C,old,m,./images/URINE.png,14.6726,,,,,,,,,,,,,,,,,,,,,,,,,,,,,,,,,
,,,,,,,,,,,,,,,,,5d1a7bb2339da6001a12b11a,67,2022-02-12_16h51.25.501,lexical_decision_task_DD_L3,2021.2.3,Win32,59.99160118,,,,,,,,,,,,0.836,1,,,,,,,,,,,,,,z,1,0.836,,,,,,,,0.124074074,-0.158333333,0,0,0,,0,42,42,92,1,PAIMS,LB,old,z,./images/PAIMSLB.png,,,,,,,,,,,,,,,,,,,,,,,,,,,,,,,,,,
,,,,,,,,,,,,,,,,,5d1a7bb2339da6001a12b11a,67,2022-02-12_16h51.25.501,lexical_decision_task_DD_L3,2021.2.3,Win32,59.99160118,,,,,,,,,,,,0.5217,1,,,,,,,,,,,,,,m,1,0.5217,,,,,,,,0.124074074,-0.158333333,0,0,0,,0,43,43,79,1,CRUST,C,old,m,./images/CRUST.png,,,,,,,,,,,,,,,,,,,,,,,,,,,,,,,,,,
,,,,,,,,,,,,,,,,,5d1a7bb2339da6001a12b11a,67,2022-02-12_16h51.25.501,lexical_decision_task_DD_L3,2021.2.3,Win32,59.99160118,,,,,,,,,,,,0.9555,0,,,,,,,,,,,,,,z,0,0.9555,,,,,,,,0.124074074,-0.158333333,0,0,0,,0,44,44,65,1,FARMER,HB,old,m,./images/FARMERHB.png,,,,,,,,,,,,,,,,,,,,,,,,,,,,,,,,,,
,,,,,,,,,,,,,,,,,5d1a7bb2339da6001a12b11a,67,2022-02-12_16h51.25.501,lexical_decision_task_DD_L3,2021.2.3,Win32,59.99160118,,,,,,,,,,,,1.1082,1,,,,,,,,,,,,,,z,1,1.1082,,,,,,,,0.124074074,-0.158333333,0,0,0,,0,45,45,148,1,JOMS,HB,old,z,./images/JOMSHB.png,,,,,,,,,,,,,,,,,,,,,,,,,,,,,,,,,,
,,,,,,,,,,,,,,,,,5d1a7bb2339da6001a12b11a,67,2022-02-12_16h51.25.501,lexical_decision_task_DD_L3,2021.2.3,Win32,59.99160118,,,,,,,,,,,,0.663,1,,,,,,,,,,,,,,z,1,0.663,,,,,,,,0.124074074,-0.158333333,0,0,0,,0,46,46,132,1,SCIFF,C,old,z,./images/SCIFF.png,,,,,,,,,,,,,,,,,,,,,,,,,,,,,,,,,,
,,,,,,,,,,,,,,,,,5d1a7bb2339da6001a12b11a,67,2022-02-12_16h51.25.501,lexical_decision_task_DD_L3,2021.2.3,Win32,59.99160118,,,,,,,,,,,,0.7171,1,,,,,,,,,,,,,,m,1,0.7171,,,,,,,,0.124074074,-0.158333333,0,0,0,,0,47,47,83,1,JUNGLE,HB,old,m,./images/JUNGLEHB.png,,,,,,,,,,,,,,,,,,,,,,,,,,,,,,,,,,
,,,,,,,,,,,,,,,,,5d1a7bb2339da6001a12b11a,67,2022-02-12_16h51.25.501,lexical_decision_task_DD_L3,2021.2.3,Win32,59.99160118,,,,,,,,,,,,0.6292,1,,,,,,,,,,,,,,z,1,0.6292,,,,,,,,0.124074074,-0.158333333,0,0,0,,0,48,48,89,1,DRIEK,LB,old,z,./images/DRIEKLB.png,,,,,,,,,,,,,,,,,,,,,,,,,,,,,,,,,,
,,,,,,,,,,,,,,,,,5d1a7bb2339da6001a12b11a,67,2022-02-12_16h51.25.501,lexical_decision_task_DD_L3,2021.2.3,Win32,59.99160118,,,,,,,,,,,,0.7171,1,,,,,,,,,,,,,,z,1,0.7171,,,,,,,,0.124074074,-0.158333333,0,0,0,,0,49,49,120,1,RINED,C,old,z,./images/RINED.png,,,,,,,,,,,,,,,,,,,,,,,,,,,,,,,,,,
,,,,,,,,,,,,,,,,,5d1a7bb2339da6001a12b11a,67,2022-02-12_16h51.25.501,lexical_decision_task_DD_L3,2021.2.3,Win32,59.99160118,,,,,,,,,,,,0.5571,1,,,,,,,,,,,,,,z,1,0.5571,,,,,,,,0.124074074,-0.158333333,0,0,0,,0,50,50,141,1,PLEET,C,old,z,./images/PLEET.png,,,,,,,,,,,,,,,,,,,,,,,,,,,,,,,,,,
,,,,,,,,,,,,,,,,,5d1a7bb2339da6001a12b11a,67,2022-02-12_16h51.25.501,lexical_decision_task_DD_L3,2021.2.3,Win32,59.99160118,,,,,,,,,,,,0.734,1,,,,,,,,,,,,,,m,1,0.734,,,,,,,,0.124074074,-0.158333333,0,0,0,,0,51,51,41,1,STRING,HB,old,m,./images/STRINGHB.png,,,,,,,,,,,,,,,,,,,,,,,,,,,,,,,,,,
,,,,,,,,,,,,,,,,,5d1a7bb2339da6001a12b11a,67,2022-02-12_16h51.25.501,lexical_decision_task_DD_L3,2021.2.3,Win32,59.99160118,,,,,,,,,,,,0.6471,1,,,,,,,,,,,,,,m,1,0.6471,,,,,,,,0.124074074,-0.158333333,0,0,0,,0,52,52,69,1,COOKER,LB,old,m,./images/COOKERLB.png,,,,,,,,,,,,,,,,,,,,,,,,,,,,,,,,,,
,,,,,,,,,,,,,,,,,5d1a7bb2339da6001a12b11a,67,2022-02-12_16h51.25.501,lexical_decision_task_DD_L3,2021.2.3,Win32,59.99160118,,,,,,,,,,,,0.8384,1,,,,,,,,,,,,,,z,1,0.8384,,,,,,,,0.124074074,-0.158333333,0,0,0,,0,53,53,133,1,POWDY,HB,old,z,./images/POWDYHB.png,,,,,,,,,,,,,,,,,,,,,,,,,,,,,,,,,,
,,,,,,,,,,,,,,,,,5d1a7bb2339da6001a12b11a,67,2022-02-12_16h51.25.501,lexical_decision_task_DD_L3,2021.2.3,Win32,59.99160118,,,,,,,,,,,,0.551,1,,,,,,,,,,,,,,z,1,0.551,,,,,,,,0.124074074,-0.158333333,0,0,0,,0,54,54,96,1,KEAMS,C,old,z,./images/KEAMS.png,,,,,,,,,,,,,,,,,,,,,,,,,,,,,,,,,,
,,,,,,,,,,,,,,,,,5d1a7bb2339da6001a12b11a,67,2022-02-12_16h51.25.501,lexical_decision_task_DD_L3,2021.2.3,Win32,59.99160118,,,,,,,,,,,,0.9954,1,,,,,,,,,,,,,,z,1,0.9954,,,,,,,,0.124074074,-0.158333333,0,0,0,,0,55,55,115,1,MAWNS,HB,old,z,./images/MAWNSHB.png,,,,,,,,,,,,,,,,,,,,,,,,,,,,,,,,,,
,,,,,,,,,,,,,,,,,5d1a7bb2339da6001a12b11a,67,2022-02-12_16h51.25.501,lexical_decision_task_DD_L3,2021.2.3,Win32,59.99160118,,,,,,,,,,,,0.5063,1,,,,,,,,,,,,,,m,1,0.5063,,,,,,,,0.124074074,-0.158333333,0,0,0,,0,56,56,0,1,TOMATO,LB,old,m,./images/TOMATOLB.png,,,,,,,,,,,,,,,,,,,,,,,,,,,,,,,,,,
,,,,,,,,,,,,,,,,,5d1a7bb2339da6001a12b11a,67,2022-02-12_16h51.25.501,lexical_decision_task_DD_L3,2021.2.3,Win32,59.99160118,,,,,,,,,,,,0.6528,1,,,,,,,,,,,,,,z,1,0.6528,,,,,,,,0.124074074,-0.158333333,0,0,0,,0,57,57,111,1,HOSSE,C,old,z,./images/HOSSE.png,,,,,,,,,,,,,,,,,,,,,,,,,,,,,,,,,,
,,,,,,,,,,,,,,,,,5d1a7bb2339da6001a12b11a,67,2022-02-12_16h51.25.501,lexical_decision_task_DD_L3,2021.2.3,Win32,59.99160118,,,,,,,,,,,,0.6582,1,,,,,,,,,,,,,,z,1,0.6582,,,,,,,,0.124074074,-0.158333333,0,0,0,,0,58,58,104,1,GITTY,LB,old,z,./images/GITTYLB.png,,,,,,,,,,,,,,,,,,,,,,,,,,,,,,,,,,
,,,,,,,,,,,,,,,,,5d1a7bb2339da6001a12b11a,67,2022-02-12_16h51.25.501,lexical_decision_task_DD_L3,2021.2.3,Win32,59.99160118,,,,,,,,,,,,0.5895,1,,,,,,,,,,,,,,m,1,0.5895,,,,,,,,0.124074074,-0.158333333,0,0,0,,0,59,59,15,1,GREASE,LB,old,m,./images/GREASELB.png,,,,,,,,,,,,,,,,,,,,,,,,,,,,,,,,,,
,,,,,,,,,,,,,,,,,5d1a7bb2339da6001a12b11a,67,2022-02-12_16h51.25.501,lexical_decision_task_DD_L3,2021.2.3,Win32,59.99160118,,,,,,,,,,,,0.5506,1,,,,,,,,,,,,,,z,1,0.5506,,,,,,,,0.124074074,-0.158333333,0,0,0,,0,60,60,165,1,TROWN,C,old,z,./images/TROWN.png,,,,,,,,,,,,,,,,,,,,,,,,,,,,,,,,,,
,,,,,,,,,,,,,,,,,5d1a7bb2339da6001a12b11a,67,2022-02-12_16h51.25.501,lexical_decision_task_DD_L3,2021.2.3,Win32,59.99160118,,,,,,,,,,,,0.6137,0,,,,,,,,,,,,,,z,0,0.6137,,,,,,,,0.124074074,-0.158333333,0,0,0,,0,61,61,12,1,SHORE,LB,old,m,./images/SHORELB.png,,,,,,,,,,,,,,,,,,,,,,,,,,,,,,,,,,
,,,,,,,,,,,,,,,,,5d1a7bb2339da6001a12b11a,67,2022-02-12_16h51.25.501,lexical_decision_task_DD_L3,2021.2.3,Win32,59.99160118,,,,,,,,,,,,0.6204,1,,,,,,,,,,,,,,m,1,0.6204,,,,,,,,0.124074074,-0.158333333,0,0,0,,0,62,62,58,1,BABOON,C,old,m,./images/BABOON.png,,,,,,,,,,,,,,,,,,,,,,,,,,,,,,,,,,
,,,,,,,,,,,,,,,,,5d1a7bb2339da6001a12b11a,67,2022-02-12_16h51.25.501,lexical_decision_task_DD_L3,2021.2.3,Win32,59.99160118,,,,,,,,,,,,0.5302,1,,,,,,,,,,,,,,m,1,0.5302,,,,,,,,0.124074074,-0.158333333,0,0,0,,0,63,63,4,1,MUSCLE,C,old,m,./images/MUSCLE.png,,,,,,,,,,,,,,,,,,,,,,,,,,,,,,,,,,
,,,,,,,,,,,,,,,,,5d1a7bb2339da6001a12b11a,67,2022-02-12_16h51.25.501,lexical_decision_task_DD_L3,2021.2.3,Win32,59.99160118,,,,,,,,,,,,0.6205,1,,,,,,,,,,,,,,z,1,0.6205,,,,,,,,0.124074074,-0.158333333,0,0,0,,0,64,64,117,1,STEEG,C,old,z,./images/STEEG.png,,,,,,,,,,,,,,,,,,,,,,,,,,,,,,,,,,
,,,,,,,,,,,,,,,,,5d1a7bb2339da6001a12b11a,67,2022-02-12_16h51.25.501,lexical_decision_task_DD_L3,2021.2.3,Win32,59.99160118,,,,,,,,,,,,0.5779,1,,,,,,,,,,,,,,m,1,0.5779,,,,,,,,0.124074074,-0.158333333,0,0,0,,0,65,65,10,1,BELLY,C,old,m,./images/BELLY.png,,,,,,,,,,,,,,,,,,,,,,,,,,,,,,,,,,
,,,,,,,,,,,,,,,,,5d1a7bb2339da6001a12b11a,67,2022-02-12_16h51.25.501,lexical_decision_task_DD_L3,2021.2.3,Win32,59.99160118,,,,,,,,,,,,0.7617,1,,,,,,,,,,,,,,m,1,0.7617,,,,,,,,0.124074074,-0.158333333,0,0,0,,0,66,66,20,1,CRADLE,HB,old,m,./images/CRADLEHB.png,,,,,,,,,,,,,,,,,,,,,,,,,,,,,,,,,,
,,,,,,,,,,,,,,,,,5d1a7bb2339da6001a12b11a,67,2022-02-12_16h51.25.501,lexical_decision_task_DD_L3,2021.2.3,Win32,59.99160118,,,,,,,,,,,,0.7667,1,,,,,,,,,,,,,,z,1,0.7667,,,,,,,,0.124074074,-0.158333333,0,0,0,,0,67,67,112,1,MYING,HB,old,z,./images/MYINGHB.png,,,,,,,,,,,,,,,,,,,,,,,,,,,,,,,,,,
,,,,,,,,,,,,,,,,,5d1a7bb2339da6001a12b11a,67,2022-02-12_16h51.25.501,lexical_decision_task_DD_L3,2021.2.3,Win32,59.99160118,,,,,,,,,,,,0.5263,1,,,,,,,,,,,,,,m,1,0.5263,,,,,,,,0.124074074,-0.158333333,0,0,0,,0,68,68,19,1,DOUGH,C,old,m,./images/DOUGH.png,,,,,,,,,,,,,,,,,,,,,,,,,,,,,,,,,,
,,,,,,,,,,,,,,,,,5d1a7bb2339da6001a12b11a,67,2022-02-12_16h51.25.501,lexical_decision_task_DD_L3,2021.2.3,Win32,59.99160118,,,,,,,,,,,,0.5251,1,,,,,,,,,,,,,,m,1,0.5251,,,,,,,,0.124074074,-0.158333333,0,0,0,,0,69,69,25,1,WRIST,C,old,m,./images/WRIST.png,,,,,,,,,,,,,,,,,,,,,,,,,,,,,,,,,,
,,,,,,,,,,,,,,,,,5d1a7bb2339da6001a12b11a,67,2022-02-12_16h51.25.501,lexical_decision_task_DD_L3,2021.2.3,Win32,59.99160118,,,,,,,,,,,,0.4958,1,,,,,,,,,,,,,,m,1,0.4958,,,,,,,,0.124074074,-0.158333333,0,0,0,,0,70,70,34,1,CANYON,C,old,m,./images/CANYON.png,,,,,,,,,,,,,,,,,,,,,,,,,,,,,,,,,,
,,,,,,,,,,,,,,,,,5d1a7bb2339da6001a12b11a,67,2022-02-12_16h51.25.501,lexical_decision_task_DD_L3,2021.2.3,Win32,59.99160118,,,,,,,,,,,,0.5225,1,,,,,,,,,,,,,,m,1,0.5225,,,,,,,,0.124074074,-0.158333333,0,0,0,,0,71,71,7,1,PAINT,C,old,m,./images/PAINT.png,,,,,,,,,,,,,,,,,,,,,,,,,,,,,,,,,,
,,,,,,,,,,,,,,,,,5d1a7bb2339da6001a12b11a,67,2022-02-12_16h51.25.501,lexical_decision_task_DD_L3,2021.2.3,Win32,59.99160118,,,,,,,,,,,,0.5003,1,,,,,,,,,,,,,,m,1,0.5003,,,,,,,,0.124074074,-0.158333333,0,0,0,,0,72,72,36,1,THROAT,LB,old,m,./images/THROATLB.png,,,,,,,,,,,,,,,,,,,,,,,,,,,,,,,,,,
,,,,,,,,,,,,,,,,,5d1a7bb2339da6001a12b11a,67,2022-02-12_16h51.25.501,lexical_decision_task_DD_L3,2021.2.3,Win32,59.99160118,,,,,,,,,,,,0.7026,1,,,,,,,,,,,,,,z,1,0.7026,,,,,,,,0.124074074,-0.158333333,0,0,0,,0,73,73,137,1,JOOST,LB,old,z,./images/JOOSTLB.png,,,,,,,,,,,,,,,,,,,,,,,,,,,,,,,,,,
,,,,,,,,,,,,,,,,,5d1a7bb2339da6001a12b11a,67,2022-02-12_16h51.25.501,lexical_decision_task_DD_L3,2021.2.3,Win32,59.99160118,,,,,,,,,,,,0.6335,1,,,,,,,,,,,,,,m,1,0.6335,,,,,,,,0.124074074,-0.158333333,0,0,0,,0,74,74,18,1,JAGUAR,LB,old,m,./images/JAGUARLB.png,,,,,,,,,,,,,,,,,,,,,,,,,,,,,,,,,,
,,,,,,,,,,,,,,,,,5d1a7bb2339da6001a12b11a,67,2022-02-12_16h51.25.501,lexical_decision_task_DD_L3,2021.2.3,Win32,59.99160118,,,,,,,,,,,,0.6175,0,,,,,,,,,,,,,,m,0,0.6175,,,,,,,,0.124074074,-0.158333333,0,0,0,,0,75,75,90,1,NEAST,C,old,z,./images/NEAST.png,,,,,,,,,,,,,,,,,,,,,,,,,,,,,,,,,,
,,,,,,,,,,,,,,,,,5d1a7bb2339da6001a12b11a,67,2022-02-12_16h51.25.501,lexical_decision_task_DD_L3,2021.2.3,Win32,59.99160118,,,,,,,,,,,,1.1669,0,,,,,,,,,,,,,,m,0,1.1669,,,,,,,,0.124074074,-0.158333333,0,0,0,,0,76,76,130,1,CRILL,HB,old,z,./images/CRILLHB.png,,,,,,,,,,,,,,,,,,,,,,,,,,,,,,,,,,
,,,,,,,,,,,,,,,,,5d1a7bb2339da6001a12b11a,67,2022-02-12_16h51.25.501,lexical_decision_task_DD_L3,2021.2.3,Win32,59.99160118,,,,,,,,,,,,1.0144,1,,,,,,,,,,,,,,z,1,1.0144,,,,,,,,0.124074074,-0.158333333,0,0,0,,0,77,77,155,1,CANGY,LB,old,z,./images/CANGYLB.png,,,,,,,,,,,,,,,,,,,,,,,,,,,,,,,,,,
,,,,,,,,,,,,,,,,,5d1a7bb2339da6001a12b11a,67,2022-02-12_16h51.25.501,lexical_decision_task_DD_L3,2021.2.3,Win32,59.99160118,,,,,,,,,,,,0.5969,1,,,,,,,,,,,,,,m,1,0.5969,,,,,,,,0.124074074,-0.158333333,0,0,0,,0,78,78,37,1,BIRTH,C,old,m,./images/BIRTH.png,,,,,,,,,,,,,,,,,,,,,,,,,,,,,,,,,,
,,,,,,,,,,,,,,,,,5d1a7bb2339da6001a12b11a,67,2022-02-12_16h51.25.501,lexical_decision_task_DD_L3,2021.2.3,Win32,59.99160118,,,,,,,,,,,,0.5879,1,,,,,,,,,,,,,,m,1,0.5879,,,,,,,,0.124074074,-0.158333333,0,0,0,,0,79,79,45,1,KITTEN,LB,old,m,./images/KITTENLB.png,,,,,,,,,,,,,,,,,,,,,,,,,,,,,,,,,,
,,,,,,,,,,,,,,,,,5d1a7bb2339da6001a12b11a,67,2022-02-12_16h51.25.501,lexical_decision_task_DD_L3,2021.2.3,Win32,59.99160118,,,,,,,,,,,,0.6673,1,,,,,,,,,,,,,,m,1,0.6673,,,,,,,,0.124074074,-0.158333333,0,0,0,,0,80,80,64,1,JELLY,C,old,m,./images/JELLY.png,,,,,,,,,,,,,,,,,,,,,,,,,,,,,,,,,,
,,,,,,,,,,,,,,,,,5d1a7bb2339da6001a12b11a,67,2022-02-12_16h51.25.501,lexical_decision_task_DD_L3,2021.2.3,Win32,59.99160118,,,,,,,,,,,,0.6229,1,,,,,,,,,,,,,,z,1,0.6229,,,,,,,,0.124074074,-0.158333333,0,0,0,,0,81,81,108,1,GRUET,C,old,z,./images/GRUET.png,,,,,,,,,,,,,,,,,,,,,,,,,,,,,,,,,,
,,,,,,,,,,,,,,,,,5d1a7bb2339da6001a12b11a,67,2022-02-12_16h51.25.501,lexical_decision_task_DD_L3,2021.2.3,Win32,59.99160118,,,,,,,,,,,,0.5812,1,,,,,,,,,,,,,,m,1,0.5812,,,,,,,,0.124074074,-0.158333333,0,0,0,,0,82,82,72,1,NOOSE,LB,old,m,./images/NOOSELB.png,,,,,,,,,,,,,,,,,,,,,,,,,,,,,,,,,,
,,,,,,,,,,,,,,,,,5d1a7bb2339da6001a12b11a,67,2022-02-12_16h51.25.501,lexical_decision_task_DD_L3,2021.2.3,Win32,59.99160118,,,,,,,,,,,,1.1729,1,,,,,,,,,,,,,,m,1,1.1729,,,,,,,,0.124074074,-0.158333333,0,0,0,space,0,83,83,2,1,BEARD,HB,old,m,./images/BEARDHB.png,16.5509,,,,,,,,,,,,,,,,,,,,,,,,,,,,,,,,,
,,,,,,,,,,,,,,,,,5d1a7bb2339da6001a12b11a,67,2022-02-12_16h51.25.501,lexical_decision_task_DD_L3,2021.2.3,Win32,59.99160118,,,,,,,,,,,,0.6936,1,,,,,,,,,,,,,,z,1,0.6936,,,,,,,,0.124074074,-0.158333333,0,0,0,,0,84,84,143,1,MONGS,LB,old,z,./images/MONGSLB.png,,,,,,,,,,,,,,,,,,,,,,,,,,,,,,,,,,
,,,,,,,,,,,,,,,,,5d1a7bb2339da6001a12b11a,67,2022-02-12_16h51.25.501,lexical_decision_task_DD_L3,2021.2.3,Win32,59.99160118,,,,,,,,,,,,0.5686,1,,,,,,,,,,,,,,m,1,0.5686,,,,,,,,0.124074074,-0.158333333,0,0,0,,0,85,85,78,1,LITTER,LB,old,m,./images/LITTERLB.png,,,,,,,,,,,,,,,,,,,,,,,,,,,,,,,,,,
,,,,,,,,,,,,,,,,,5d1a7bb2339da6001a12b11a,67,2022-02-12_16h51.25.501,lexical_decision_task_DD_L3,2021.2.3,Win32,59.99160118,,,,,,,,,,,,0.7928,1,,,,,,,,,,,,,,m,1,0.7928,,,,,,,,0.124074074,-0.158333333,0,0,0,,0,86,86,17,1,SKIING,HB,old,m,./images/SKIINGHB.png,,,,,,,,,,,,,,,,,,,,,,,,,,,,,,,,,,
,,,,,,,,,,,,,,,,,5d1a7bb2339da6001a12b11a,67,2022-02-12_16h51.25.501,lexical_decision_task_DD_L3,2021.2.3,Win32,59.99160118,,,,,,,,,,,,0.5599,1,,,,,,,,,,,,,,z,1,0.5599,,,,,,,,0.124074074,-0.158333333,0,0,0,,0,87,87,126,1,GUELS,C,old,z,./images/GUELS.png,,,,,,,,,,,,,,,,,,,,,,,,,,,,,,,,,,
,,,,,,,,,,,,,,,,,5d1a7bb2339da6001a12b11a,67,2022-02-12_16h51.25.501,lexical_decision_task_DD_L3,2021.2.3,Win32,59.99160118,,,,,,,,,,,,0.7603,1,,,,,,,,,,,,,,m,1,0.7603,,,,,,,,0.124074074,-0.158333333,0,0,0,,0,88,88,29,1,CRUMB,HB,old,m,./images/CRUMBHB.png,,,,,,,,,,,,,,,,,,,,,,,,,,,,,,,,,,
,,,,,,,,,,,,,,,,,5d1a7bb2339da6001a12b11a,67,2022-02-12_16h51.25.501,lexical_decision_task_DD_L3,2021.2.3,Win32,59.99160118,,,,,,,,,,,,1.0418,1,,,,,,,,,,,,,,m,1,1.0418,,,,,,,,0.124074074,-0.158333333,0,0,0,,0,89,89,11,1,BONNET,HB,old,m,./images/BONNETHB.png,,,,,,,,,,,,,,,,,,,,,,,,,,,,,,,,,,
,,,,,,,,,,,,,,,,,5d1a7bb2339da6001a12b11a,67,2022-02-12_16h51.25.501,lexical_decision_task_DD_L3,2021.2.3,Win32,59.99160118,,,,,,,,,,,,0.5107,1,,,,,,,,,,,,,,m,1,0.5107,,,,,,,,0.124074074,-0.158333333,0,0,0,,0,90,90,49,1,DRUMS,C,old,m,./images/DRUMS.png,,,,,,,,,,,,,,,,,,,,,,,,,,,,,,,,,,
,,,,,,,,,,,,,,,,,5d1a7bb2339da6001a12b11a,67,2022-02-12_16h51.25.501,lexical_decision_task_DD_L3,2021.2.3,Win32,59.99160118,,,,,,,,,,,,1.0892,1,,,,,,,,,,,,,,z,1,1.0892,,,,,,,,0.124074074,-0.158333333,0,0,0,,0,91,91,157,1,INLER,HB,old,z,./images/INLERHB.png,,,,,,,,,,,,,,,,,,,,,,,,,,,,,,,,,,
,,,,,,,,,,,,,,,,,5d1a7bb2339da6001a12b11a,67,2022-02-12_16h51.25.501,lexical_decision_task_DD_L3,2021.2.3,Win32,59.99160118,,,,,,,,,,,,0.6517,1,,,,,,,,,,,,,,z,1,0.6517,,,,,,,,0.124074074,-0.158333333,0,0,0,,0,92,92,119,1,PAFER,LB,old,z,./images/PAFERLB.png,,,,,,,,,,,,,,,,,,,,,,,,,,,,,,,,,,
,,,,,,,,,,,,,,,,,5d1a7bb2339da6001a12b11a,67,2022-02-12_16h51.25.501,lexical_decision_task_DD_L3,2021.2.3,Win32,59.99160118,,,,,,,,,,,,0.721,1,,,,,,,,,,,,,,m,1,0.721,,,,,,,,0.124074074,-0.158333333,0,0,0,,0,93,93,75,1,GRAIN,LB,old,m,./images/GRAINLB.png,,,,,,,,,,,,,,,,,,,,,,,,,,,,,,,,,,
,,,,,,,,,,,,,,,,,5d1a7bb2339da6001a12b11a,67,2022-02-12_16h51.25.501,lexical_decision_task_DD_L3,2021.2.3,Win32,59.99160118,,,,,,,,,,,,0.691,1,,,,,,,,,,,,,,m,1,0.691,,,,,,,,0.124074074,-0.158333333,0,0,0,,0,94,94,5,1,PASTA,HB,old,m,./images/PASTAHB.png,,,,,,,,,,,,,,,,,,,,,,,,,,,,,,,,,,
,,,,,,,,,,,,,,,,,5d1a7bb2339da6001a12b11a,67,2022-02-12_16h51.25.501,lexical_decision_task_DD_L3,2021.2.3,Win32,59.99160118,,,,,,,,,,,,1.038,1,,,,,,,,,,,,,,z,1,1.038,,,,,,,,0.124074074,-0.158333333,0,0,0,,0,95,95,109,1,BURGE,HB,old,z,./images/BURGEHB.png,,,,,,,,,,,,,,,,,,,,,,,,,,,,,,,,,,
,,,,,,,,,,,,,,,,,5d1a7bb2339da6001a12b11a,67,2022-02-12_16h51.25.501,lexical_decision_task_DD_L3,2021.2.3,Win32,59.99160118,,,,,,,,,,,,1.1073,1,,,,,,,,,,,,,,z,1,1.1073,,,,,,,,0.124074074,-0.158333333,0,0,0,,0,96,96,166,1,SHORY,HB,old,z,./images/SHORYHB.png,,,,,,,,,,,,,,,,,,,,,,,,,,,,,,,,,,
,,,,,,,,,,,,,,,,,5d1a7bb2339da6001a12b11a,67,2022-02-12_16h51.25.501,lexical_decision_task_DD_L3,2021.2.3,Win32,59.99160118,,,,,,,,,,,,0.6609,1,,,,,,,,,,,,,,m,1,0.6609,,,,,,,,0.124074074,-0.158333333,0,0,0,,0,97,97,54,1,TRIPOD,LB,old,m,./images/TRIPODLB.png,,,,,,,,,,,,,,,,,,,,,,,,,,,,,,,,,,
,,,,,,,,,,,,,,,,,5d1a7bb2339da6001a12b11a,67,2022-02-12_16h51.25.501,lexical_decision_task_DD_L3,2021.2.3,Win32,59.99160118,,,,,,,,,,,,0.7301,1,,,,,,,,,,,,,,m,1,0.7301,,,,,,,,0.124074074,-0.158333333,0,0,0,,0,98,98,68,1,TORCH,HB,old,m,./images/TORCHHB.png,,,,,,,,,,,,,,,,,,,,,,,,,,,,,,,,,,
,,,,,,,,,,,,,,,,,5d1a7bb2339da6001a12b11a,67,2022-02-12_16h51.25.501,lexical_decision_task_DD_L3,2021.2.3,Win32,59.99160118,,,,,,,,,,,,0.6605,1,,,,,,,,,,,,,,m,1,0.6605,,,,,,,,0.124074074,-0.158333333,0,0,0,,0,99,99,9,1,RHINO,LB,old,m,./images/RHINOLB.png,,,,,,,,,,,,,,,,,,,,,,,,,,,,,,,,,,
,,,,,,,,,,,,,,,,,5d1a7bb2339da6001a12b11a,67,2022-02-12_16h51.25.501,lexical_decision_task_DD_L3,2021.2.3,Win32,59.99160118,,,,,,,,,,,,0.7456,1,,,,,,,,,,,,,,z,1,0.7456,,,,,,,,0.124074074,-0.158333333,0,0,0,,0,100,100,107,1,FASKS,LB,old,z,./images/FASKSLB.png,,,,,,,,,,,,,,,,,,,,,,,,,,,,,,,,,,
,,,,,,,,,,,,,,,,,5d1a7bb2339da6001a12b11a,67,2022-02-12_16h51.25.501,lexical_decision_task_DD_L3,2021.2.3,Win32,59.99160118,,,,,,,,,,,,0.6342,1,,,,,,,,,,,,,,m,1,0.6342,,,,,,,,0.124074074,-0.158333333,0,0,0,,0,101,101,6,1,SQUARE,LB,old,m,./images/SQUARELB.png,,,,,,,,,,,,,,,,,,,,,,,,,,,,,,,,,,
,,,,,,,,,,,,,,,,,5d1a7bb2339da6001a12b11a,67,2022-02-12_16h51.25.501,lexical_decision_task_DD_L3,2021.2.3,Win32,59.99160118,,,,,,,,,,,,0.8169,1,,,,,,,,,,,,,,m,1,0.8169,,,,,,,,0.124074074,-0.158333333,0,0,0,,0,102,102,53,1,CARPET,HB,old,m,./images/CARPETHB.png,,,,,,,,,,,,,,,,,,,,,,,,,,,,,,,,,,
,,,,,,,,,,,,,,,,,5d1a7bb2339da6001a12b11a,67,2022-02-12_16h51.25.501,lexical_decision_task_DD_L3,2021.2.3,Win32,59.99160118,,,,,,,,,,,,0.8852,0,,,,,,,,,,,,,,z,0,0.8852,,,,,,,,0.124074074,-0.158333333,0,0,0,,0,103,103,56,1,PACKET,HB,old,m,./images/PACKETHB.png,,,,,,,,,,,,,,,,,,,,,,,,,,,,,,,,,,
,,,,,,,,,,,,,,,,,5d1a7bb2339da6001a12b11a,67,2022-02-12_16h51.25.501,lexical_decision_task_DD_L3,2021.2.3,Win32,59.99160118,,,,,,,,,,,,0.7134,1,,,,,,,,,,,,,,z,1,0.7134,,,,,,,,0.124074074,-0.158333333,0,0,0,,0,104,104,114,1,RIKES,C,old,z,./images/RIKES.png,,,,,,,,,,,,,,,,,,,,,,,,,,,,,,,,,,
,,,,,,,,,,,,,,,,,5d1a7bb2339da6001a12b11a,67,2022-02-12_16h51.25.501,lexical_decision_task_DD_L3,2021.2.3,Win32,59.99160118,,,,,,,,,,,,0.9003,1,,,,,,,,,,,,,,z,1,0.9003,,,,,,,,0.124074074,-0.158333333,0,0,0,,0,105,105,136,1,WERVE,HB,old,z,./images/WERVEHB.png,,,,,,,,,,,,,,,,,,,,,,,,,,,,,,,,,,
,,,,,,,,,,,,,,,,,5d1a7bb2339da6001a12b11a,67,2022-02-12_16h51.25.501,lexical_decision_task_DD_L3,2021.2.3,Win32,59.99160118,,,,,,,,,,,,0.6854,1,,,,,,,,,,,,,,z,1,0.6854,,,,,,,,0.124074074,-0.158333333,0,0,0,,0,106,106,122,1,BLOOT,LB,old,z,./images/BLOOTLB.png,,,,,,,,,,,,,,,,,,,,,,,,,,,,,,,,,,
,,,,,,,,,,,,,,,,,5d1a7bb2339da6001a12b11a,67,2022-02-12_16h51.25.501,lexical_decision_task_DD_L3,2021.2.3,Win32,59.99160118,,,,,,,,,,,,0.5938,1,,,,,,,,,,,,,,m,1,0.5938,,,,,,,,0.124074074,-0.158333333,0,0,0,,0,107,107,52,1,BANNER,C,old,m,./images/BANNER.png,,,,,,,,,,,,,,,,,,,,,,,,,,,,,,,,,,
,,,,,,,,,,,,,,,,,5d1a7bb2339da6001a12b11a,67,2022-02-12_16h51.25.501,lexical_decision_task_DD_L3,2021.2.3,Win32,59.99160118,,,,,,,,,,,,0.5519,1,,,,,,,,,,,,,,m,1,0.5519,,,,,,,,0.124074074,-0.158333333,0,0,0,,0,108,108,13,1,MOTOR,C,old,m,./images/MOTOR.png,,,,,,,,,,,,,,,,,,,,,,,,,,,,,,,,,,
,,,,,,,,,,,,,,,,,5d1a7bb2339da6001a12b11a,67,2022-02-12_16h51.25.501,lexical_decision_task_DD_L3,2021.2.3,Win32,59.99160118,,,,,,,,,,,,0.8838,1,,,,,,,,,,,,,,z,1,0.8838,,,,,,,,0.124074074,-0.158333333,0,0,0,,0,109,109,154,1,THINT,HB,old,z,./images/THINTHB.png,,,,,,,,,,,,,,,,,,,,,,,,,,,,,,,,,,
,,,,,,,,,,,,,,,,,5d1a7bb2339da6001a12b11a,67,2022-02-12_16h51.25.501,lexical_decision_task_DD_L3,2021.2.3,Win32,59.99160118,,,,,,,,,,,,0.7973,1,,,,,,,,,,,,,,z,1,0.7973,,,,,,,,0.124074074,-0.158333333,0,0,0,,0,110,110,139,1,BLEAR,HB,old,z,./images/BLEARHB.png,,,,,,,,,,,,,,,,,,,,,,,,,,,,,,,,,,
,,,,,,,,,,,,,,,,,5d1a7bb2339da6001a12b11a,67,2022-02-12_16h51.25.501,lexical_decision_task_DD_L3,2021.2.3,Win32,59.99160118,,,,,,,,,,,,1.1813,1,,,,,,,,,,,,,,m,1,1.1813,,,,,,,,0.124074074,-0.158333333,0,0,0,,0,111,111,71,1,PIMPLE,HB,old,m,./images/PIMPLEHB.png,,,,,,,,,,,,,,,,,,,,,,,,,,,,,,,,,,
,,,,,,,,,,,,,,,,,5d1a7bb2339da6001a12b11a,67,2022-02-12_16h51.25.501,lexical_decision_task_DD_L3,2021.2.3,Win32,59.99160118,,,,,,,,,,,,0.6361,1,,,,,,,,,,,,,,z,1,0.6361,,,,,,,,0.124074074,-0.158333333,0,0,0,,0,112,112,147,1,ZOLES,C,old,z,./images/ZOLES.png,,,,,,,,,,,,,,,,,,,,,,,,,,,,,,,,,,
,,,,,,,,,,,,,,,,,5d1a7bb2339da6001a12b11a,67,2022-02-12_16h51.25.501,lexical_decision_task_DD_L3,2021.2.3,Win32,59.99160118,,,,,,,,,,,,0.8839,1,,,,,,,,,,,,,,z,1,0.8839,,,,,,,,0.124074074,-0.158333333,0,0,0,,0,113,113,163,1,GAMBA,HB,old,z,./images/GAMBAHB.png,,,,,,,,,,,,,,,,,,,,,,,,,,,,,,,,,,
,,,,,,,,,,,,,,,,,5d1a7bb2339da6001a12b11a,67,2022-02-12_16h51.25.501,lexical_decision_task_DD_L3,2021.2.3,Win32,59.99160118,,,,,,,,,,,,0.7676,1,,,,,,,,,,,,,,m,1,0.7676,,,,,,,,0.124074074,-0.158333333,0,0,0,,0,114,114,80,1,WEASEL,HB,old,m,./images/WEASELHB.png,,,,,,,,,,,,,,,,,,,,,,,,,,,,,,,,,,
,,,,,,,,,,,,,,,,,5d1a7bb2339da6001a12b11a,67,2022-02-12_16h51.25.501,lexical_decision_task_DD_L3,2021.2.3,Win32,59.99160118,,,,,,,,,,,,1.0238,1,,,,,,,,,,,,,,z,1,1.0238,,,,,,,,0.124074074,-0.158333333,0,0,0,,0,115,115,85,1,CHULK,HB,old,z,./images/CHULKHB.png,,,,,,,,,,,,,,,,,,,,,,,,,,,,,,,,,,
,,,,,,,,,,,,,,,,,5d1a7bb2339da6001a12b11a,67,2022-02-12_16h51.25.501,lexical_decision_task_DD_L3,2021.2.3,Win32,59.99160118,,,,,,,,,,,,0.7401,1,,,,,,,,,,,,,,m,1,0.7401,,,,,,,,0.124074074,-0.158333333,0,0,0,,0,116,116,81,1,POODLE,LB,old,m,./images/POODLELB.png,,,,,,,,,,,,,,,,,,,,,,,,,,,,,,,,,,
,,,,,,,,,,,,,,,,,5d1a7bb2339da6001a12b11a,67,2022-02-12_16h51.25.501,lexical_decision_task_DD_L3,2021.2.3,Win32,59.99160118,,,,,,,,,,,,0.5893,1,,,,,,,,,,,,,,m,1,0.5893,,,,,,,,0.124074074,-0.158333333,0,0,0,,0,117,117,21,1,KIDNEY,LB,old,m,./images/KIDNEYLB.png,,,,,,,,,,,,,,,,,,,,,,,,,,,,,,,,,,
,,,,,,,,,,,,,,,,,5d1a7bb2339da6001a12b11a,67,2022-02-12_16h51.25.501,lexical_decision_task_DD_L3,2021.2.3,Win32,59.99160118,,,,,,,,,,,,0.6523,1,,,,,,,,,,,,,,z,1,0.6523,,,,,,,,0.124074074,-0.158333333,0,0,0,,0,118,118,138,1,PLICE,C,old,z,./images/PLICE.png,,,,,,,,,,,,,,,,,,,,,,,,,,,,,,,,,,
,,,,,,,,,,,,,,,,,5d1a7bb2339da6001a12b11a,67,2022-02-12_16h51.25.501,lexical_decision_task_DD_L3,2021.2.3,Win32,59.99160118,,,,,,,,,,,,0.5929,1,,,,,,,,,,,,,,z,1,0.5929,,,,,,,,0.124074074,-0.158333333,0,0,0,,0,119,119,167,1,ZONET,LB,old,z,./images/ZONETLB.png,,,,,,,,,,,,,,,,,,,,,,,,,,,,,,,,,,
,,,,,,,,,,,,,,,,,5d1a7bb2339da6001a12b11a,67,2022-02-12_16h51.25.501,lexical_decision_task_DD_L3,2021.2.3,Win32,59.99160118,,,,,,,,,,,,0.7766,1,,,,,,,,,,,,,,z,1,0.7766,,,,,,,,0.124074074,-0.158333333,0,0,0,,0,120,120,116,1,BALGY,LB,old,z,./images/BALGYLB.png,,,,,,,,,,,,,,,,,,,,,,,,,,,,,,,,,,
,,,,,,,,,,,,,,,,,5d1a7bb2339da6001a12b11a,67,2022-02-12_16h51.25.501,lexical_decision_task_DD_L3,2021.2.3,Win32,59.99160118,,,,,,,,,,,,0.5688,1,,,,,,,,,,,,,,m,1,0.5688,,,,,,,,0.124074074,-0.158333333,0,0,0,,0,121,121,76,1,INFANT,C,old,m,./images/INFANT.png,,,,,,,,,,,,,,,,,,,,,,,,,,,,,,,,,,
,,,,,,,,,,,,,,,,,5d1a7bb2339da6001a12b11a,67,2022-02-12_16h51.25.501,lexical_decision_task_DD_L3,2021.2.3,Win32,59.99160118,,,,,,,,,,,,0.5289,1,,,,,,,,,,,,,,m,1,0.5289,,,,,,,,0.124074074,-0.158333333,0,0,0,,0,122,122,48,1,SPORT,LB,old,m,./images/SPORTLB.png,,,,,,,,,,,,,,,,,,,,,,,,,,,,,,,,,,
,,,,,,,,,,,,,,,,,5d1a7bb2339da6001a12b11a,67,2022-02-12_16h51.25.501,lexical_decision_task_DD_L3,2021.2.3,Win32,59.99160118,,,,,,,,,,,,0.5221,1,,,,,,,,,,,,,,m,1,0.5221,,,,,,,,0.124074074,-0.158333333,0,0,0,,0,123,123,55,1,MUFFIN,C,old,m,./images/MUFFIN.png,,,,,,,,,,,,,,,,,,,,,,,,,,,,,,,,,,
,,,,,,,,,,,,,,,,,5d1a7bb2339da6001a12b11a,67,2022-02-12_16h51.25.501,lexical_decision_task_DD_L3,2021.2.3,Win32,59.99160118,,,,,,,,,,,,0.4925,1,,,,,,,,,,,,,,m,1,0.4925,,,,,,,,0.124074074,-0.158333333,0,0,0,,0,124,124,28,1,FALCON,C,old,m,./images/FALCON.png,,,,,,,,,,,,,,,,,,,,,,,,,,,,,,,,,,
,,,,,,,,,,,,,,,,,5d1a7bb2339da6001a12b11a,67,2022-02-12_16h51.25.501,lexical_decision_task_DD_L3,2021.2.3,Win32,59.99160118,,,,,,,,,,,,0.503,1,,,,,,,,,,,,,,m,1,0.503,,,,,,,,0.124074074,-0.158333333,0,0,0,space,0,125,125,63,1,MIRROR,LB,old,m,./images/MIRRORLB.png,11.1063,,,,,,,,,,,,,,,,,,,,,,,,,,,,,,,,,
,,,,,,,,,,,,,,,,,5d1a7bb2339da6001a12b11a,67,2022-02-12_16h51.25.501,lexical_decision_task_DD_L3,2021.2.3,Win32,59.99160118,,,,,,,,,,,,0.4759,1,,,,,,,,,,,,,,m,1,0.4759,,,,,,,,0.124074074,-0.158333333,0,0,0,,0,126,126,22,1,MELON,C,old,m,./images/MELON.png,,,,,,,,,,,,,,,,,,,,,,,,,,,,,,,,,,
,,,,,,,,,,,,,,,,,5d1a7bb2339da6001a12b11a,67,2022-02-12_16h51.25.501,lexical_decision_task_DD_L3,2021.2.3,Win32,59.99160118,,,,,,,,,,,,0.851,1,,,,,,,,,,,,,,z,1,0.851,,,,,,,,0.124074074,-0.158333333,0,0,0,,0,127,127,88,1,GLUSH,HB,old,z,./images/GLUSHHB.png,,,,,,,,,,,,,,,,,,,,,,,,,,,,,,,,,,
,,,,,,,,,,,,,,,,,5d1a7bb2339da6001a12b11a,67,2022-02-12_16h51.25.501,lexical_decision_task_DD_L3,2021.2.3,Win32,59.99160118,,,,,,,,,,,,0.7258,1,,,,,,,,,,,,,,z,1,0.7258,,,,,,,,0.124074074,-0.158333333,0,0,0,,0,128,128,159,1,CUDDY,C,old,z,./images/CUDDY.png,,,,,,,,,,,,,,,,,,,,,,,,,,,,,,,,,,
,,,,,,,,,,,,,,,,,5d1a7bb2339da6001a12b11a,67,2022-02-12_16h51.25.501,lexical_decision_task_DD_L3,2021.2.3,Win32,59.99160118,,,,,,,,,,,,0.9352,1,,,,,,,,,,,,,,z,1,0.9352,,,,,,,,0.124074074,-0.158333333,0,0,0,,0,129,129,94,1,BLANS,HB,old,z,./images/BLANSHB.png,,,,,,,,,,,,,,,,,,,,,,,,,,,,,,,,,,
,,,,,,,,,,,,,,,,,5d1a7bb2339da6001a12b11a,67,2022-02-12_16h51.25.501,lexical_decision_task_DD_L3,2021.2.3,Win32,59.99160118,,,,,,,,,,,,0.9204,1,,,,,,,,,,,,,,z,1,0.9204,,,,,,,,0.124074074,-0.158333333,0,0,0,,0,130,130,124,1,TUNCH,HB,old,z,./images/TUNCHHB.png,,,,,,,,,,,,,,,,,,,,,,,,,,,,,,,,,,
,,,,,,,,,,,,,,,,,5d1a7bb2339da6001a12b11a,67,2022-02-12_16h51.25.501,lexical_decision_task_DD_L3,2021.2.3,Win32,59.99160118,,,,,,,,,,,,0.6263,1,,,,,,,,,,,,,,z,1,0.6263,,,,,,,,0.124074074,-0.158333333,0,0,0,,0,131,131,102,1,DULLE,C,old,z,./images/DULLE.png,,,,,,,,,,,,,,,,,,,,,,,,,,,,,,,,,,
,,,,,,,,,,,,,,,,,5d1a7bb2339da6001a12b11a,67,2022-02-12_16h51.25.501,lexical_decision_task_DD_L3,2021.2.3,Win32,59.99160118,,,,,,,,,,,,0.52,1,,,,,,,,,,,,,,m,1,0.52,,,,,,,,0.124074074,-0.158333333,0,0,0,,0,132,132,67,1,SAILOR,C,old,m,./images/SAILOR.png,,,,,,,,,,,,,,,,,,,,,,,,,,,,,,,,,,
,,,,,,,,,,,,,,,,,5d1a7bb2339da6001a12b11a,67,2022-02-12_16h51.25.501,lexical_decision_task_DD_L3,2021.2.3,Win32,59.99160118,,,,,,,,,,,,0.6096,1,,,,,,,,,,,,,,z,1,0.6096,,,,,,,,0.124074074,-0.158333333,0,0,0,,0,133,133,101,1,GLEET,LB,old,z,./images/GLEETLB.png,,,,,,,,,,,,,,,,,,,,,,,,,,,,,,,,,,
,,,,,,,,,,,,,,,,,5d1a7bb2339da6001a12b11a,67,2022-02-12_16h51.25.501,lexical_decision_task_DD_L3,2021.2.3,Win32,59.99160118,,,,,,,,,,,,0.5854,1,,,,,,,,,,,,,,m,1,0.5854,,,,,,,,0.124074074,-0.158333333,0,0,0,,0,134,134,1,1,PLANK,C,old,m,./images/PLANK.png,,,,,,,,,,,,,,,,,,,,,,,,,,,,,,,,,,
,,,,,,,,,,,,,,,,,5d1a7bb2339da6001a12b11a,67,2022-02-12_16h51.25.501,lexical_decision_task_DD_L3,2021.2.3,Win32,59.99160118,,,,,,,,,,,,0.72,0,,,,,,,,,,,,,,m,0,0.72,,,,,,,,0.124074074,-0.158333333,0,0,0,,0,135,135,128,1,GRIFT,LB,old,z,./images/GRIFTLB.png,,,,,,,,,,,,,,,,,,,,,,,,,,,,,,,,,,
,,,,,,,,,,,,,,,,,5d1a7bb2339da6001a12b11a,67,2022-02-12_16h51.25.501,lexical_decision_task_DD_L3,2021.2.3,Win32,59.99160118,,,,,,,,,,,,1.4739,1,,,,,,,,,,,,,,z,1,1.4739,,,,,,,,0.124074074,-0.158333333,0,0,0,,0,136,136,91,1,SHENS,HB,old,z,./images/SHENSHB.png,,,,,,,,,,,,,,,,,,,,,,,,,,,,,,,,,,
,,,,,,,,,,,,,,,,,5d1a7bb2339da6001a12b11a,67,2022-02-12_16h51.25.501,lexical_decision_task_DD_L3,2021.2.3,Win32,59.99160118,,,,,,,,,,,,0.8002,1,,,,,,,,,,,,,,m,1,0.8002,,,,,,,,0.124074074,-0.158333333,0,0,0,,0,137,137,35,1,PEACH,HB,old,m,./images/PEACHHB.png,,,,,,,,,,,,,,,,,,,,,,,,,,,,,,,,,,
,,,,,,,,,,,,,,,,,5d1a7bb2339da6001a12b11a,67,2022-02-12_16h51.25.501,lexical_decision_task_DD_L3,2021.2.3,Win32,59.99160118,,,,,,,,,,,,0.973,1,,,,,,,,,,,,,,m,1,0.973,,,,,,,,0.124074074,-0.158333333,0,0,0,,0,138,138,23,1,WALRUS,HB,old,m,./images/WALRUSHB.png,,,,,,,,,,,,,,,,,,,,,,,,,,,,,,,,,,
,,,,,,,,,,,,,,,,,5d1a7bb2339da6001a12b11a,67,2022-02-12_16h51.25.501,lexical_decision_task_DD_L3,2021.2.3,Win32,59.99160118,,,,,,,,,,,,0.6762,1,,,,,,,,,,,,,,z,1,0.6762,,,,,,,,0.124074074,-0.158333333,0,0,0,,0,139,139,87,1,TRING,C,old,z,./images/TRING.png,,,,,,,,,,,,,,,,,,,,,,,,,,,,,,,,,,
,,,,,,,,,,,,,,,,,5d1a7bb2339da6001a12b11a,67,2022-02-12_16h51.25.501,lexical_decision_task_DD_L3,2021.2.3,Win32,59.99160118,,,,,,,,,,,,1.0672,1,,,,,,,,,,,,,,z,1,1.0672,,,,,,,,0.124074074,-0.158333333,0,0,0,,0,140,140,100,1,DRIBS,HB,old,z,./images/DRIBSHB.png,,,,,,,,,,,,,,,,,,,,,,,,,,,,,,,,,,
,,,,,,,,,,,,,,,,,5d1a7bb2339da6001a12b11a,67,2022-02-12_16h51.25.501,lexical_decision_task_DD_L3,2021.2.3,Win32,59.99160118,,,,,,,,,,,,0.7261,1,,,,,,,,,,,,,,m,1,0.7261,,,,,,,,0.124074074,-0.158333333,0,0,0,,0,141,141,24,1,SCREW,LB,old,m,./images/SCREWLB.png,,,,,,,,,,,,,,,,,,,,,,,,,,,,,,,,,,
,,,,,,,,,,,,,,,,,5d1a7bb2339da6001a12b11a,67,2022-02-12_16h51.25.501,lexical_decision_task_DD_L3,2021.2.3,Win32,59.99160118,,,,,,,,,,,,1.2397,1,,,,,,,,,,,,,,z,1,1.2397,,,,,,,,0.124074074,-0.158333333,0,0,0,,0,142,142,106,1,CLUMS,HB,old,z,./images/CLUMSHB.png,,,,,,,,,,,,,,,,,,,,,,,,,,,,,,,,,,
,,,,,,,,,,,,,,,,,5d1a7bb2339da6001a12b11a,67,2022-02-12_16h51.25.501,lexical_decision_task_DD_L3,2021.2.3,Win32,59.99160118,,,,,,,,,,,,0.7649,1,,,,,,,,,,,,,,m,1,0.7649,,,,,,,,0.124074074,-0.158333333,0,0,0,,0,143,143,31,1,QUILL,C,old,m,./images/QUILL.png,,,,,,,,,,,,,,,,,,,,,,,,,,,,,,,,,,
,,,,,,,,,,,,,,,,,5d1a7bb2339da6001a12b11a,67,2022-02-12_16h51.25.501,lexical_decision_task_DD_L3,2021.2.3,Win32,59.99160118,,,,,,,,,,,,1.3256,1,,,,,,,,,,,,,,z,1,1.3256,,,,,,,,0.124074074,-0.158333333,0,0,0,,0,144,144,151,1,TINKY,HB,old,z,./images/TINKYHB.png,,,,,,,,,,,,,,,,,,,,,,,,,,,,,,,,,,
,,,,,,,,,,,,,,,,,5d1a7bb2339da6001a12b11a,67,2022-02-12_16h51.25.501,lexical_decision_task_DD_L3,2021.2.3,Win32,59.99160118,,,,,,,,,,,,0.8503,1,,,,,,,,,,,,,,m,1,0.8503,,,,,,,,0.124074074,-0.158333333,0,0,0,,0,145,145,59,1,BURIAL,HB,old,m,./images/BURIALHB.png,,,,,,,,,,,,,,,,,,,,,,,,,,,,,,,,,,
,,,,,,,,,,,,,,,,,5d1a7bb2339da6001a12b11a,67,2022-02-12_16h51.25.501,lexical_decision_task_DD_L3,2021.2.3,Win32,59.99160118,,,,,,,,,,,,0.6365,1,,,,,,,,,,,,,,z,1,0.6365,,,,,,,,0.124074074,-0.158333333,0,0,0,,0,146,146,110,1,CRUNK,LB,old,z,./images/CRUNKLB.png,,,,,,,,,,,,,,,,,,,,,,,,,,,,,,,,,,
,,,,,,,,,,,,,,,,,5d1a7bb2339da6001a12b11a,67,2022-02-12_16h51.25.501,lexical_decision_task_DD_L3,2021.2.3,Win32,59.99160118,,,,,,,,,,,,0.5693,1,,,,,,,,,,,,,,m,1,0.5693,,,,,,,,0.124074074,-0.158333333,0,0,0,,0,147,147,42,1,FOLDER,LB,old,m,./images/FOLDERLB.png,,,,,,,,,,,,,,,,,,,,,,,,,,,,,,,,,,
,,,,,,,,,,,,,,,,,5d1a7bb2339da6001a12b11a,67,2022-02-12_16h51.25.501,lexical_decision_task_DD_L3,2021.2.3,Win32,59.99160118,,,,,,,,,,,,0.6016,1,,,,,,,,,,,,,,z,1,0.6016,,,,,,,,0.124074074,-0.158333333,0,0,0,,0,148,148,152,1,FRAIN,LB,old,z,./images/FRAINLB.png,,,,,,,,,,,,,,,,,,,,,,,,,,,,,,,,,,
,,,,,,,,,,,,,,,,,5d1a7bb2339da6001a12b11a,67,2022-02-12_16h51.25.501,lexical_decision_task_DD_L3,2021.2.3,Win32,59.99160118,,,,,,,,,,,,0.6079,1,,,,,,,,,,,,,,z,1,0.6079,,,,,,,,0.124074074,-0.158333333,0,0,0,,0,149,149,162,1,LEICH,C,old,z,./images/LEICH.png,,,,,,,,,,,,,,,,,,,,,,,,,,,,,,,,,,
,,,,,,,,,,,,,,,,,5d1a7bb2339da6001a12b11a,67,2022-02-12_16h51.25.501,lexical_decision_task_DD_L3,2021.2.3,Win32,59.99160118,,,,,,,,,,,,0.639,0,,,,,,,,,,,,,,z,0,0.639,,,,,,,,0.124074074,-0.158333333,0,0,0,,0,150,150,77,1,COUCH,HB,old,m,./images/COUCHHB.png,,,,,,,,,,,,,,,,,,,,,,,,,,,,,,,,,,
,,,,,,,,,,,,,,,,,5d1a7bb2339da6001a12b11a,67,2022-02-12_16h51.25.501,lexical_decision_task_DD_L3,2021.2.3,Win32,59.99160118,,,,,,,,,,,,0.8117,1,,,,,,,,,,,,,,m,1,0.8117,,,,,,,,0.124074074,-0.158333333,0,0,0,,0,151,151,50,1,MALLET,HB,old,m,./images/MALLETHB.png,,,,,,,,,,,,,,,,,,,,,,,,,,,,,,,,,,
,,,,,,,,,,,,,,,,,5d1a7bb2339da6001a12b11a,67,2022-02-12_16h51.25.501,lexical_decision_task_DD_L3,2021.2.3,Win32,59.99160118,,,,,,,,,,,,0.5634,1,,,,,,,,,,,,,,z,1,0.5634,,,,,,,,0.124074074,-0.158333333,0,0,0,,0,152,152,134,1,TROSS,LB,old,z,./images/TROSSLB.png,,,,,,,,,,,,,,,,,,,,,,,,,,,,,,,,,,
,,,,,,,,,,,,,,,,,5d1a7bb2339da6001a12b11a,67,2022-02-12_16h51.25.501,lexical_decision_task_DD_L3,2021.2.3,Win32,59.99160118,,,,,,,,,,,,0.5873,1,,,,,,,,,,,,,,z,1,0.5873,,,,,,,,0.124074074,-0.158333333,0,0,0,,0,153,153,156,1,HIXES,C,old,z,./images/HIXES.png,,,,,,,,,,,,,,,,,,,,,,,,,,,,,,,,,,
,,,,,,,,,,,,,,,,,5d1a7bb2339da6001a12b11a,67,2022-02-12_16h51.25.501,lexical_decision_task_DD_L3,2021.2.3,Win32,59.99160118,,,,,,,,,,,,0.9859,1,,,,,,,,,,,,,,m,1,0.9859,,,,,,,,0.124074074,-0.158333333,0,0,0,,0,154,154,44,1,LIZARD,HB,old,m,./images/LIZARDHB.png,,,,,,,,,,,,,,,,,,,,,,,,,,,,,,,,,,
,,,,,,,,,,,,,,,,,5d1a7bb2339da6001a12b11a,67,2022-02-12_16h51.25.501,lexical_decision_task_DD_L3,2021.2.3,Win32,59.99160118,,,,,,,,,,,,0.8421,1,,,,,,,,,,,,,,m,1,0.8421,,,,,,,,0.124074074,-0.158333333,0,0,0,,0,155,155,16,1,PENCE,C,old,m,./images/PENCE.png,,,,,,,,,,,,,,,,,,,,,,,,,,,,,,,,,,
,,,,,,,,,,,,,,,,,5d1a7bb2339da6001a12b11a,67,2022-02-12_16h51.25.501,lexical_decision_task_DD_L3,2021.2.3,Win32,59.99160118,,,,,,,,,,,,0.6631,1,,,,,,,,,,,,,,z,1,0.6631,,,,,,,,0.124074074,-0.158333333,0,0,0,,0,156,156,99,1,BACKY,C,old,z,./images/BACKY.png,,,,,,,,,,,,,,,,,,,,,,,,,,,,,,,,,,
,,,,,,,,,,,,,,,,,5d1a7bb2339da6001a12b11a,67,2022-02-12_16h51.25.501,lexical_decision_task_DD_L3,2021.2.3,Win32,59.99160118,,,,,,,,,,,,0.6916,1,,,,,,,,,,,,,,m,1,0.6916,,,,,,,,0.124074074,-0.158333333,0,0,0,,0,157,157,14,1,PICKLE,HB,old,m,./images/PICKLEHB.png,,,,,,,,,,,,,,,,,,,,,,,,,,,,,,,,,,
,,,,,,,,,,,,,,,,,5d1a7bb2339da6001a12b11a,67,2022-02-12_16h51.25.501,lexical_decision_task_DD_L3,2021.2.3,Win32,59.99160118,,,,,,,,,,,,0.5114,1,,,,,,,,,,,,,,m,1,0.5114,,,,,,,,0.124074074,-0.158333333,0,0,0,,0,158,158,3,1,FINGER,LB,old,m,./images/FINGERLB.png,,,,,,,,,,,,,,,,,,,,,,,,,,,,,,,,,,
,,,,,,,,,,,,,,,,,5d1a7bb2339da6001a12b11a,67,2022-02-12_16h51.25.501,lexical_decision_task_DD_L3,2021.2.3,Win32,59.99160118,,,,,,,,,,,,1.0511,1,,,,,,,,,,,,,,z,1,1.0511,,,,,,,,0.124074074,-0.158333333,0,0,0,,0,159,159,97,1,CHIDS,HB,old,z,./images/CHIDSHB.png,,,,,,,,,,,,,,,,,,,,,,,,,,,,,,,,,,
,,,,,,,,,,,,,,,,,5d1a7bb2339da6001a12b11a,67,2022-02-12_16h51.25.501,lexical_decision_task_DD_L3,2021.2.3,Win32,59.99160118,,,,,,,,,,,,1.2781,1,,,,,,,,,,,,,,m,1,1.2781,,,,,,,,0.124074074,-0.158333333,0,0,0,,0,160,160,74,1,CEMENT,HB,old,m,./images/CEMENTHB.png,,,,,,,,,,,,,,,,,,,,,,,,,,,,,,,,,,
,,,,,,,,,,,,,,,,,5d1a7bb2339da6001a12b11a,67,2022-02-12_16h51.25.501,lexical_decision_task_DD_L3,2021.2.3,Win32,59.99160118,,,,,,,,,,,,0.5538,1,,,,,,,,,,,,,,m,1,0.5538,,,,,,,,0.124074074,-0.158333333,0,0,0,,0,161,161,39,1,SHELF,LB,old,m,./images/SHELFLB.png,,,,,,,,,,,,,,,,,,,,,,,,,,,,,,,,,,
,,,,,,,,,,,,,,,,,5d1a7bb2339da6001a12b11a,67,2022-02-12_16h51.25.501,lexical_decision_task_DD_L3,2021.2.3,Win32,59.99160118,,,,,,,,,,,,0.5308,1,,,,,,,,,,,,,,m,1,0.5308,,,,,,,,0.124074074,-0.158333333,0,0,0,,0,162,162,73,1,SNACK,C,old,m,./images/SNACK.png,,,,,,,,,,,,,,,,,,,,,,,,,,,,,,,,,,
,,,,,,,,,,,,,,,,,5d1a7bb2339da6001a12b11a,67,2022-02-12_16h51.25.501,lexical_decision_task_DD_L3,2021.2.3,Win32,59.99160118,,,,,,,,,,,,0.7007,1,,,,,,,,,,,,,,z,1,0.7007,,,,,,,,0.124074074,-0.158333333,0,0,0,,0,163,163,93,1,SMONE,C,old,z,./images/SMONE.png,,,,,,,,,,,,,,,,,,,,,,,,,,,,,,,,,,
,,,,,,,,,,,,,,,,,5d1a7bb2339da6001a12b11a,67,2022-02-12_16h51.25.501,lexical_decision_task_DD_L3,2021.2.3,Win32,59.99160118,,,,,,,,,,,,0.6161,1,,,,,,,,,,,,,,m,1,0.6161,,,,,,,,0.124074074,-0.158333333,0,0,0,,0,164,164,27,1,ATTIC,LB,old,m,./images/ATTICLB.png,,,,,,,,,,,,,,,,,,,,,,,,,,,,,,,,,,
,,,,,,,,,,,,,,,,,5d1a7bb2339da6001a12b11a,67,2022-02-12_16h51.25.501,lexical_decision_task_DD_L3,2021.2.3,Win32,59.99160118,,,,,,,,,,,,0.8617,1,,,,,,,,,,,,,,z,1,0.8617,,,,,,,,0.124074074,-0.158333333,0,0,0,,0,165,165,123,1,SEDGE,C,old,z,./images/SEDGE.png,,,,,,,,,,,,,,,,,,,,,,,,,,,,,,,,,,
,,,,,,,,,,,,,,,,,5d1a7bb2339da6001a12b11a,67,2022-02-12_16h51.25.501,lexical_decision_task_DD_L3,2021.2.3,Win32,59.99160118,,,,,,,,,,,,0.5857,1,,,,,,,,,,,,,,m,1,0.5857,,,,,,,,0.124074074,-0.158333333,0,0,0,,0,166,166,43,1,MOSQUE,C,old,m,./images/MOSQUE.png,,,,,,,,,,,,,,,,,,,,,,,,,,,,,,,,,,
,,,,,,,,,,,,,,,,,5d1a7bb2339da6001a12b11a,67,2022-02-12_16h51.25.501,lexical_decision_task_DD_L3,2021.2.3,Win32,59.99160118,,,,,,,,,,,,0.9938,1,,,,,,,,,,,,,,m,1,0.9938,,,,,,,,0.124074074,-0.158333333,0,0,0,,0,167,167,82,1,SUNSET,C,old,m,./images/SUNSET.png,,,,,,,,,,,,,,,,,,,,,,,,,,,,,,,,,,
,,,,,,,,,,,,,,,,,5d1a7bb2339da6001a12b11a,67,2022-02-12_16h51.25.501,lexical_decision_task_DD_L3,2021.2.3,Win32,59.99160118,,,,,,,,,,,,,,,,,,,,,,,,,,,,,,,,,,,,,,,,,,,,,,,,,How likely will it be that you will recognize the words presented clearly on a scale of 0 (not likely) to 100 (most likely)?,,,,,0.009259259,-0.416666667,1,0,0,jol_adv,6,12.7865,0,0,0,0,1,,,,,,,,,,,,,,,,,,,,
,,,,,,,,,,,,,,,,,5d1a7bb2339da6001a12b11a,67,2022-02-12_16h51.25.501,lexical_decision_task_DD_L3,2021.2.3,Win32,59.99160118,,,,,,,,,,,,,,,,,,,,,,,,,,,,,,,,,,,,,,,,,,,,,,,,,How likely will it be that you will recognize the words presented slighly blurred on a scale of 0 (not likely) to 100 (most likely)?,,,,,,,,,,,6,7.1254,0,1,1,1,1,,,,,,,,,,,,,,,,,,,,
,,,,,,,,,,,,,,,,,5d1a7bb2339da6001a12b11a,67,2022-02-12_16h51.25.501,lexical_decision_task_DD_L3,2021.2.3,Win32,59.99160118,,,,,,,,,,,,,,,,,,,,,,,,,,,,,,,,,,,,,,,,,,,,,,,,,How likely will it be that you will recognize the words presented very blurred on a scale of 0 (not likely) to 100 (most likely)?,,,,,,,,,,,2,8.5706,0,2,2,2,1,,,,,,,,,,,,,,,,,,,,
space,-0.12962963,-0.147222222,0,0,0,,,,,,,1,test,"In the next phase you will be presented with the words from the the first phase. Your job is to decide whether you remember seeing the word or not. If you remember seeing the word press ""old"" or type ""m"". If you do not remember seeing the word press ""new"" or type ""z"". Please press the space bar or click on continue to begin. ",,,5d1a7bb2339da6001a12b11a,67,2022-02-12_16h51.25.501,lexical_decision_task_DD_L3,2021.2.3,Win32,59.99160118,33.2031,,,,,,,,,,,,,,,,,,,,,,,,,,,,,,,,,,,,,,,,,,,,,,,,,,,,,,,,,,,,,,,,,,0,0,0,0,1,,,,,,,,,,,,,,,
space,-0.12962963,-0.147222222,0,0,0,,,,,,,1,test,"In the next phase you will be presented with the words from the the first phase. Your job is to decide whether you remember seeing the word or not. If you remember seeing the word press ""old"" or type ""m"". If you do not remember seeing the word press ""new"" or type ""z"". Please press the space bar or click on continue to begin. ",,,5d1a7bb2339da6001a12b11a,67,2022-02-12_16h51.25.501,lexical_decision_task_DD_L3,2021.2.3,Win32,59.99160118,3.3759,,,,,,,,,,,,,,,,,,,,,,,,,,,,,,,,,,,,,,,,,,,,,,,,,,,,,,,,,,,,,,,,,,1,0,1,0,1,,,,,,,,,,,,,,,
,0.053703704,-0.378703704,1,0,0,instr_done_button,,,,,,1,test,"In the next phase you will be presented with the words from the the first phase. Your job is to decide whether you remember seeing the word or not. If you remember seeing the word press ""old"" or type ""m"". If you do not remember seeing the word press ""new"" or type ""z"". Please press the space bar or click on continue to begin. ",,,5d1a7bb2339da6001a12b11a,67,2022-02-12_16h51.25.501,lexical_decision_task_DD_L3,2021.2.3,Win32,59.99160118,,,,,,,,,,,,,,,,,,,,,,,,,,,,,,,,,,,,,,,,,,,,,,,,,,,,,,,,,,,,,,,,,,,2,0,2,0,1,,,,,,,,,,,,,,,
,0.005555556,-0.416666667,1,0,0,instr_done_button,,,,,,1,test,"In the next phase you will be presented with the words from the the first phase. Your job is to decide whether you remember seeing the word or not. If you remember seeing the word press ""old"" or type ""m"". If you do not remember seeing the word press ""new"" or type ""z"". Please press the space bar or click on continue to begin. ",,,5d1a7bb2339da6001a12b11a,67,2022-02-12_16h51.25.501,lexical_decision_task_DD_L3,2021.2.3,Win32,59.99160118,,,,,,,,,,,,,,,,,,,,,,,,,,,,,,,,,,,,,,,,,,,,,,,,,,,,,,,,,,,,,,,,,,,3,0,3,0,1,,,,,,,,,,,,,,,
,0.058333333,-0.423148148,1,0,0,instr_done_button,,,,,,1,test,"In the next phase you will be presented with the words from the the first phase. Your job is to decide whether you remember seeing the word or not. If you remember seeing the word press ""old"" or type ""m"". If you do not remember seeing the word press ""new"" or type ""z"". Please press the space bar or click on continue to begin. ",,,5d1a7bb2339da6001a12b11a,67,2022-02-12_16h51.25.501,lexical_decision_task_DD_L3,2021.2.3,Win32,59.99160118,,,,,,,,,,,,,,,,,,,,,,,,,,,,,,,,,,,,,,,,,,,,,,,,,,,,,,,,,,,,,,,,,,,4,0,4,0,1,,,,,,,,,,,,,,,
,,,,,,,,,,,,,,,,,5d1a7bb2339da6001a12b11a,67,2022-02-12_16h51.25.501,lexical_decision_task_DD_L3,2021.2.3,Win32,59.99160118,,,,,,,,,,,,2.0687,0,,,,,,,,,,,,,,,,,,,,,,,,0.059259259,-0.424074074,0,0,0,,,,,,,COUCH,HB,m,m,./images/COUCHHB.png,,,,,,,,,,,,,,,,,,,,z,0,2.0687,,,,,,,,0,0,0,77,1
,,,,,,,,,,,,,,,,,5d1a7bb2339da6001a12b11a,67,2022-02-12_16h51.25.501,lexical_decision_task_DD_L3,2021.2.3,Win32,59.99160118,,,,,,,,,,,,0.867,1,,,,,,,,,,,,,,,,,,,,,,,,0.059259259,-0.424074074,0,0,0,,,,,,,PIMPLE,HB,m,m,./images/PIMPLEHB.png,,,,,,,,,,,,,,,,,,,,m,1,0.867,,,,,,,,0,1,1,71,1
,,,,,,,,,,,,,,,,,5d1a7bb2339da6001a12b11a,67,2022-02-12_16h51.25.501,lexical_decision_task_DD_L3,2021.2.3,Win32,59.99160118,,,,,,,,,,,,1.1576,1,,,,,,,,,,,,,,,,,,,,,,,,0.059259259,-0.424074074,0,0,0,,,,,,,SMOKER,HB,m,m,./images/SMOKERHB.png,,,,,,,,,,,,,,,,,,,,m,1,1.1576,,,,,,,,0,2,2,26,1
,,,,,,,,,,,,,,,,,5d1a7bb2339da6001a12b11a,67,2022-02-12_16h51.25.501,lexical_decision_task_DD_L3,2021.2.3,Win32,59.99160118,,,,,,,,,,,,0.7837,1,,,,,,,,,,,,,,,,,,,,,,,,0.059259259,-0.424074074,0,0,0,,,,,,,KITTEN,LB,m,m,./images/KITTENLB.png,,,,,,,,,,,,,,,,,,,,m,1,0.7837,,,,,,,,0,3,3,45,1
,,,,,,,,,,,,,,,,,5d1a7bb2339da6001a12b11a,67,2022-02-12_16h51.25.501,lexical_decision_task_DD_L3,2021.2.3,Win32,59.99160118,,,,,,,,,,,,0.9508,0,,,,,,,,,,,,,,,,,,,,,,,,0.059259259,-0.424074074,0,0,0,,,,,,,FENCE,HB,z,m,./images/FENCEHB.png,,,,,,,,,,,,,,,,,,,,m,0,0.9508,,,,,,,,0,4,4,98,1
,,,,,,,,,,,,,,,,,5d1a7bb2339da6001a12b11a,67,2022-02-12_16h51.25.501,lexical_decision_task_DD_L3,2021.2.3,Win32,59.99160118,,,,,,,,,,,,0.6861,1,,,,,,,,,,,,,,,,,,,,,,,,0.059259259,-0.424074074,0,0,0,,,,,,,LIZARD,HB,m,m,./images/LIZARDHB.png,,,,,,,,,,,,,,,,,,,,m,1,0.6861,,,,,,,,0,5,5,44,1
,,,,,,,,,,,,,,,,,5d1a7bb2339da6001a12b11a,67,2022-02-12_16h51.25.501,lexical_decision_task_DD_L3,2021.2.3,Win32,59.99160118,,,,,,,,,,,,1.0341,1,,,,,,,,,,,,,,,,,,,,,,,,0.059259259,-0.424074074,0,0,0,,,,,,,TOWEL,C,z,m,./images/TOWEL.png,,,,,,,,,,,,,,,,,,,,z,1,1.0341,,,,,,,,0,6,6,85,1
,,,,,,,,,,,,,,,,,5d1a7bb2339da6001a12b11a,67,2022-02-12_16h51.25.501,lexical_decision_task_DD_L3,2021.2.3,Win32,59.99160118,,,,,,,,,,,,0.831,1,,,,,,,,,,,,,,,,,,,,,,,,0.059259259,-0.424074074,0,0,0,,,,,,,SNACK,C,m,m,./images/SNACK.png,,,,,,,,,,,,,,,,,,,,m,1,0.831,,,,,,,,0,7,7,73,1
,,,,,,,,,,,,,,,,,5d1a7bb2339da6001a12b11a,67,2022-02-12_16h51.25.501,lexical_decision_task_DD_L3,2021.2.3,Win32,59.99160118,,,,,,,,,,,,0.9178,0,,,,,,,,,,,,,,,,,,,,,,,,0.059259259,-0.424074074,0,0,0,,,,,,,FERRY,LB,z,m,./images/FERRYLB.png,,,,,,,,,,,,,,,,,,,,m,0,0.9178,,,,,,,,0,8,8,141,1
,,,,,,,,,,,,,,,,,5d1a7bb2339da6001a12b11a,67,2022-02-12_16h51.25.501,lexical_decision_task_DD_L3,2021.2.3,Win32,59.99160118,,,,,,,,,,,,1.1006,1,,,,,,,,,,,,,,,,,,,,,,,,0.059259259,-0.424074074,0,0,0,,,,,,,STATUE,LB,z,m,./images/STATUELB.png,,,,,,,,,,,,,,,,,,,,z,1,1.1006,,,,,,,,0,9,9,150,1
,,,,,,,,,,,,,,,,,5d1a7bb2339da6001a12b11a,67,2022-02-12_16h51.25.501,lexical_decision_task_DD_L3,2021.2.3,Win32,59.99160118,,,,,,,,,,,,0.817,1,,,,,,,,,,,,,,,,,,,,,,,,0.059259259,-0.424074074,0,0,0,,,,,,,BRIDE,C,z,m,./images/BRIDE.png,,,,,,,,,,,,,,,,,,,,z,1,0.817,,,,,,,,0,10,10,148,1
,,,,,,,,,,,,,,,,,5d1a7bb2339da6001a12b11a,67,2022-02-12_16h51.25.501,lexical_decision_task_DD_L3,2021.2.3,Win32,59.99160118,,,,,,,,,,,,0.8179,1,,,,,,,,,,,,,,,,,,,,,,,,0.059259259,-0.424074074,0,0,0,,,,,,,PLANK,C,m,m,./images/PLANK.png,,,,,,,,,,,,,,,,,,,,m,1,0.8179,,,,,,,,0,11,11,1,1
,,,,,,,,,,,,,,,,,5d1a7bb2339da6001a12b11a,67,2022-02-12_16h51.25.501,lexical_decision_task_DD_L3,2021.2.3,Win32,59.99160118,,,,,,,,,,,,0.8385,1,,,,,,,,,,,,,,,,,,,,,,,,0.059259259,-0.424074074,0,0,0,,,,,,,POSTER,HB,z,m,./images/POSTERHB.png,,,,,,,,,,,,,,,,,,,,z,1,0.8385,,,,,,,,0,12,12,137,1
,,,,,,,,,,,,,,,,,5d1a7bb2339da6001a12b11a,67,2022-02-12_16h51.25.501,lexical_decision_task_DD_L3,2021.2.3,Win32,59.99160118,,,,,,,,,,,,1.1569,1,,,,,,,,,,,,,,,,,,,,,,,,0.059259259,-0.424074074,0,0,0,,,,,,,SHIELD,LB,z,m,./images/SHIELDLB.png,,,,,,,,,,,,,,,,,,,,z,1,1.1569,,,,,,,,0,13,13,132,1
,,,,,,,,,,,,,,,,,5d1a7bb2339da6001a12b11a,67,2022-02-12_16h51.25.501,lexical_decision_task_DD_L3,2021.2.3,Win32,59.99160118,,,,,,,,,,,,1.0288,0,,,,,,,,,,,,,,,,,,,,,,,,0.059259259,-0.424074074,0,0,0,,,,,,,FLASK,LB,z,m,./images/FLASKLB.png,,,,,,,,,,,,,,,,,,,,m,0,1.0288,,,,,,,,0,14,14,156,1
,,,,,,,,,,,,,,,,,5d1a7bb2339da6001a12b11a,67,2022-02-12_16h51.25.501,lexical_decision_task_DD_L3,2021.2.3,Win32,59.99160118,,,,,,,,,,,,0.9695,1,,,,,,,,,,,,,,,,,,,,,,,,0.059259259,-0.424074074,0,0,0,,,,,,,CHALK,C,z,m,./images/CHALK.png,,,,,,,,,,,,,,,,,,,,z,1,0.9695,,,,,,,,0,15,15,109,1
,,,,,,,,,,,,,,,,,5d1a7bb2339da6001a12b11a,67,2022-02-12_16h51.25.501,lexical_decision_task_DD_L3,2021.2.3,Win32,59.99160118,,,,,,,,,,,,1.1538,1,,,,,,,,,,,,,,,,,,,,,,,,0.059259259,-0.424074074,0,0,0,,,,,,,ONION,LB,m,m,./images/ONIONLB.png,,,,,,,,,,,,,,,,,,,,m,1,1.1538,,,,,,,,0,16,16,51,1
,,,,,,,,,,,,,,,,,5d1a7bb2339da6001a12b11a,67,2022-02-12_16h51.25.501,lexical_decision_task_DD_L3,2021.2.3,Win32,59.99160118,,,,,,,,,,,,0.9707,1,,,,,,,,,,,,,,,,,,,,,,,,0.059259259,-0.424074074,0,0,0,,,,,,,PARCEL,LB,z,m,./images/PARCELLB.png,,,,,,,,,,,,,,,,,,,,z,1,0.9707,,,,,,,,0,17,17,102,1
,,,,,,,,,,,,,,,,,5d1a7bb2339da6001a12b11a,67,2022-02-12_16h51.25.501,lexical_decision_task_DD_L3,2021.2.3,Win32,59.99160118,,,,,,,,,,,,0.8836,1,,,,,,,,,,,,,,,,,,,,,,,,0.059259259,-0.424074074,0,0,0,,,,,,,STORM,LB,m,m,./images/STORMLB.png,,,,,,,,,,,,,,,,,,,,m,1,0.8836,,,,,,,,0,18,18,30,1
,,,,,,,,,,,,,,,,,5d1a7bb2339da6001a12b11a,67,2022-02-12_16h51.25.501,lexical_decision_task_DD_L3,2021.2.3,Win32,59.99160118,,,,,,,,,,,,0.8139,0,,,,,,,,,,,,,,,,,,,,,,,,0.059259259,-0.424074074,0,0,0,,,,,,,BASKET,HB,z,m,./images/BASKETHB.png,,,,,,,,,,,,,,,,,,,,m,0,0.8139,,,,,,,,0,19,19,128,1
,,,,,,,,,,,,,,,,,5d1a7bb2339da6001a12b11a,67,2022-02-12_16h51.25.501,lexical_decision_task_DD_L3,2021.2.3,Win32,59.99160118,,,,,,,,,,,,0.7169,1,,,,,,,,,,,,,,,,,,,,,,,,0.059259259,-0.424074074,0,0,0,,,,,,,COLLAR,LB,z,m,./images/COLLARLB.png,,,,,,,,,,,,,,,,,,,,z,1,0.7169,,,,,,,,0,20,20,99,1
,,,,,,,,,,,,,,,,,5d1a7bb2339da6001a12b11a,67,2022-02-12_16h51.25.501,lexical_decision_task_DD_L3,2021.2.3,Win32,59.99160118,,,,,,,,,,,,1.0788,1,,,,,,,,,,,,,,,,,,,,,,,,0.059259259,-0.424074074,0,0,0,,,,,,,PILOT,HB,z,m,./images/PILOTHB.png,,,,,,,,,,,,,,,,,,,,z,1,1.0788,,,,,,,,0,21,21,134,1
,,,,,,,,,,,,,,,,,5d1a7bb2339da6001a12b11a,67,2022-02-12_16h51.25.501,lexical_decision_task_DD_L3,2021.2.3,Win32,59.99160118,,,,,,,,,,,,0.7307,0,,,,,,,,,,,,,,,,,,,,,,,,0.059259259,-0.424074074,0,0,0,,,,,,,STREAM,HB,z,m,./images/STREAMHB.png,,,,,,,,,,,,,,,,,,,,m,0,0.7307,,,,,,,,0,22,22,125,1
,,,,,,,,,,,,,,,,,5d1a7bb2339da6001a12b11a,67,2022-02-12_16h51.25.501,lexical_decision_task_DD_L3,2021.2.3,Win32,59.99160118,,,,,,,,,,,,0.9094,0,,,,,,,,,,,,,,,,,,,,,,,,0.059259259,-0.424074074,0,0,0,,,,,,,BANNER,C,m,m,./images/BANNER.png,,,,,,,,,,,,,,,,,,,,z,0,0.9094,,,,,,,,0,23,23,52,1
,,,,,,,,,,,,,,,,,5d1a7bb2339da6001a12b11a,67,2022-02-12_16h51.25.501,lexical_decision_task_DD_L3,2021.2.3,Win32,59.99160118,,,,,,,,,,,,0.7598,0,,,,,,,,,,,,,,,,,,,,,,,,0.059259259,-0.424074074,0,0,0,,,,,,,LAGOON,HB,z,m,./images/LAGOONHB.png,,,,,,,,,,,,,,,,,,,,m,0,0.7598,,,,,,,,0,24,24,131,1
,,,,,,,,,,,,,,,,,5d1a7bb2339da6001a12b11a,67,2022-02-12_16h51.25.501,lexical_decision_task_DD_L3,2021.2.3,Win32,59.99160118,,,,,,,,,,,,0.6316,0,,,,,,,,,,,,,,,,,,,,,,,,0.059259259,-0.424074074,0,0,0,,,,,,,CHAIN,LB,z,m,./images/CHAINLB.png,,,,,,,,,,,,,,,,,,,,m,0,0.6316,,,,,,,,0,25,25,126,1
,,,,,,,,,,,,,,,,,5d1a7bb2339da6001a12b11a,67,2022-02-12_16h51.25.501,lexical_decision_task_DD_L3,2021.2.3,Win32,59.99160118,,,,,,,,,,,,0.7171,1,,,,,,,,,,,,,,,,,,,,,,,,0.059259259,-0.424074074,0,0,0,,,,,,,WAGON,C,z,m,./images/WAGON.png,,,,,,,,,,,,,,,,,,,,z,1,0.7171,,,,,,,,0,26,26,91,1
,,,,,,,,,,,,,,,,,5d1a7bb2339da6001a12b11a,67,2022-02-12_16h51.25.501,lexical_decision_task_DD_L3,2021.2.3,Win32,59.99160118,,,,,,,,,,,,0.8481,0,,,,,,,,,,,,,,,,,,,,,,,,0.059259259,-0.424074074,0,0,0,,,,,,,BIRTH,C,m,m,./images/BIRTH.png,,,,,,,,,,,,,,,,,,,,z,0,0.8481,,,,,,,,0,27,27,37,1
,,,,,,,,,,,,,,,,,5d1a7bb2339da6001a12b11a,67,2022-02-12_16h51.25.501,lexical_decision_task_DD_L3,2021.2.3,Win32,59.99160118,,,,,,,,,,,,0.8451,1,,,,,,,,,,,,,,,,,,,,,,,,0.059259259,-0.424074074,0,0,0,,,,,,,PEBBLE,C,z,m,./images/PEBBLE.png,,,,,,,,,,,,,,,,,,,,z,1,0.8451,,,,,,,,0,28,28,166,1
,,,,,,,,,,,,,,,,,5d1a7bb2339da6001a12b11a,67,2022-02-12_16h51.25.501,lexical_decision_task_DD_L3,2021.2.3,Win32,59.99160118,,,,,,,,,,,,0.6834,0,,,,,,,,,,,,,,,,,,,,,,,,0.059259259,-0.424074074,0,0,0,,,,,,,MONKEY,LB,z,m,./images/MONKEYLB.png,,,,,,,,,,,,,,,,,,,,m,0,0.6834,,,,,,,,0,29,29,129,1
,,,,,,,,,,,,,,,,,5d1a7bb2339da6001a12b11a,67,2022-02-12_16h51.25.501,lexical_decision_task_DD_L3,2021.2.3,Win32,59.99160118,,,,,,,,,,,,0.6227,1,,,,,,,,,,,,,,,,,,,,,,,,0.059259259,-0.424074074,0,0,0,,,,,,,PACKET,HB,m,m,./images/PACKETHB.png,,,,,,,,,,,,,,,,,,,,m,1,0.6227,,,,,,,,0,30,30,56,1
,,,,,,,,,,,,,,,,,5d1a7bb2339da6001a12b11a,67,2022-02-12_16h51.25.501,lexical_decision_task_DD_L3,2021.2.3,Win32,59.99160118,,,,,,,,,,,,0.8681,1,,,,,,,,,,,,,,,,,,,,,,,,0.059259259,-0.424074074,0,0,0,,,,,,,FARMER,HB,m,m,./images/FARMERHB.png,,,,,,,,,,,,,,,,,,,,m,1,0.8681,,,,,,,,0,31,31,65,1
,,,,,,,,,,,,,,,,,5d1a7bb2339da6001a12b11a,67,2022-02-12_16h51.25.501,lexical_decision_task_DD_L3,2021.2.3,Win32,59.99160118,,,,,,,,,,,,0.6405,1,,,,,,,,,,,,,,,,,,,,,,,,0.059259259,-0.424074074,0,0,0,,,,,,,KIDNEY,LB,m,m,./images/KIDNEYLB.png,,,,,,,,,,,,,,,,,,,,m,1,0.6405,,,,,,,,0,32,32,21,1
,,,,,,,,,,,,,,,,,5d1a7bb2339da6001a12b11a,67,2022-02-12_16h51.25.501,lexical_decision_task_DD_L3,2021.2.3,Win32,59.99160118,,,,,,,,,,,,0.7792,1,,,,,,,,,,,,,,,,,,,,,,,,0.059259259,-0.424074074,0,0,0,,,,,,,TWINS,LB,m,m,./images/TWINSLB.png,,,,,,,,,,,,,,,,,,,,m,1,0.7792,,,,,,,,0,33,33,60,1
,,,,,,,,,,,,,,,,,5d1a7bb2339da6001a12b11a,67,2022-02-12_16h51.25.501,lexical_decision_task_DD_L3,2021.2.3,Win32,59.99160118,,,,,,,,,,,,0.6301,1,,,,,,,,,,,,,,,,,,,,,,,,0.059259259,-0.424074074,0,0,0,,,,,,,PEACH,HB,m,m,./images/PEACHHB.png,,,,,,,,,,,,,,,,,,,,m,1,0.6301,,,,,,,,0,34,34,35,1
,,,,,,,,,,,,,,,,,5d1a7bb2339da6001a12b11a,67,2022-02-12_16h51.25.501,lexical_decision_task_DD_L3,2021.2.3,Win32,59.99160118,,,,,,,,,,,,0.8721,0,,,,,,,,,,,,,,,,,,,,,,,,0.059259259,-0.424074074,0,0,0,,,,,,,ATTIC,LB,m,m,./images/ATTICLB.png,,,,,,,,,,,,,,,,,,,,z,0,0.8721,,,,,,,,0,35,35,27,1
,,,,,,,,,,,,,,,,,5d1a7bb2339da6001a12b11a,67,2022-02-12_16h51.25.501,lexical_decision_task_DD_L3,2021.2.3,Win32,59.99160118,,,,,,,,,,,,0.8458,1,,,,,,,,,,,,,,,,,,,,,,,,0.059259259,-0.424074074,0,0,0,,,,,,,GRANNY,HB,z,m,./images/GRANNYHB.png,,,,,,,,,,,,,,,,,,,,z,1,0.8458,,,,,,,,0,36,36,104,1
,,,,,,,,,,,,,,,,,5d1a7bb2339da6001a12b11a,67,2022-02-12_16h51.25.501,lexical_decision_task_DD_L3,2021.2.3,Win32,59.99160118,,,,,,,,,,,,0.814,1,,,,,,,,,,,,,,,,,,,,,,,,0.059259259,-0.424074074,0,0,0,,,,,,,MAMMAL,HB,z,m,./images/MAMMALHB.png,,,,,,,,,,,,,,,,,,,,z,1,0.814,,,,,,,,0,37,37,146,1
,,,,,,,,,,,,,,,,,5d1a7bb2339da6001a12b11a,67,2022-02-12_16h51.25.501,lexical_decision_task_DD_L3,2021.2.3,Win32,59.99160118,,,,,,,,,,,,0.7641,1,,,,,,,,,,,,,,,,,,,,,,,,0.059259259,-0.424074074,0,0,0,,,,,,,MIRROR,LB,m,m,./images/MIRRORLB.png,,,,,,,,,,,,,,,,,,,,m,1,0.7641,,,,,,,,0,38,38,63,1
,,,,,,,,,,,,,,,,,5d1a7bb2339da6001a12b11a,67,2022-02-12_16h51.25.501,lexical_decision_task_DD_L3,2021.2.3,Win32,59.99160118,,,,,,,,,,,,0.6931,1,,,,,,,,,,,,,,,,,,,,,,,,0.059259259,-0.424074074,0,0,0,,,,,,,WEASEL,HB,m,m,./images/WEASELHB.png,,,,,,,,,,,,,,,,,,,,m,1,0.6931,,,,,,,,0,39,39,80,1
,,,,,,,,,,,,,,,,,5d1a7bb2339da6001a12b11a,67,2022-02-12_16h51.25.501,lexical_decision_task_DD_L3,2021.2.3,Win32,59.99160118,,,,,,,,,,,,0.7682,1,,,,,,,,,,,,,,,,,,,,,,,,0.059259259,-0.424074074,0,0,0,,,,,,,GARDEN,C,z,m,./images/GARDEN.png,,,,,,,,,,,,,,,,,,,,z,1,0.7682,,,,,,,,0,40,40,94,1
,,,,,,,,,,,,,,,,,5d1a7bb2339da6001a12b11a,67,2022-02-12_16h51.25.501,lexical_decision_task_DD_L3,2021.2.3,Win32,59.99160118,,,,,,,,,,,,1.0006,1,,,,,,,,,,,,,,,,,,,,,,,,0.059259259,-0.424074074,0,0,0,space,,,,,,ENGINE,HB,z,m,./images/ENGINEHB.png,9.3016,,,,,,,,,,,,,,,,,,,z,1,1.0006,,,,,,,,0,41,41,122,1
,,,,,,,,,,,,,,,,,5d1a7bb2339da6001a12b11a,67,2022-02-12_16h51.25.501,lexical_decision_task_DD_L3,2021.2.3,Win32,59.99160118,,,,,,,,,,,,0.7129,1,,,,,,,,,,,,,,,,,,,,,,,,0.059259259,-0.424074074,0,0,0,,,,,,,LADDER,HB,m,m,./images/LADDERHB.png,,,,,,,,,,,,,,,,,,,,m,1,0.7129,,,,,,,,0,42,42,38,1
,,,,,,,,,,,,,,,,,5d1a7bb2339da6001a12b11a,67,2022-02-12_16h51.25.501,lexical_decision_task_DD_L3,2021.2.3,Win32,59.99160118,,,,,,,,,,,,0.8114,1,,,,,,,,,,,,,,,,,,,,,,,,0.059259259,-0.424074074,0,0,0,,,,,,,STAIN,LB,z,m,./images/STAINLB.png,,,,,,,,,,,,,,,,,,,,z,1,0.8114,,,,,,,,0,43,43,90,1
,,,,,,,,,,,,,,,,,5d1a7bb2339da6001a12b11a,67,2022-02-12_16h51.25.501,lexical_decision_task_DD_L3,2021.2.3,Win32,59.99160118,,,,,,,,,,,,0.7296,0,,,,,,,,,,,,,,,,,,,,,,,,0.059259259,-0.424074074,0,0,0,,,,,,,CURRY,LB,z,m,./images/CURRYLB.png,,,,,,,,,,,,,,,,,,,,m,0,0.7296,,,,,,,,0,44,44,144,1
,,,,,,,,,,,,,,,,,5d1a7bb2339da6001a12b11a,67,2022-02-12_16h51.25.501,lexical_decision_task_DD_L3,2021.2.3,Win32,59.99160118,,,,,,,,,,,,0.6838,1,,,,,,,,,,,,,,,,,,,,,,,,0.059259259,-0.424074074,0,0,0,,,,,,,WRIST,C,m,m,./images/WRIST.png,,,,,,,,,,,,,,,,,,,,m,1,0.6838,,,,,,,,0,45,45,25,1
,,,,,,,,,,,,,,,,,5d1a7bb2339da6001a12b11a,67,2022-02-12_16h51.25.501,lexical_decision_task_DD_L3,2021.2.3,Win32,59.99160118,,,,,,,,,,,,0.7912,1,,,,,,,,,,,,,,,,,,,,,,,,0.059259259,-0.424074074,0,0,0,,,,,,,GRAPE,C,z,m,./images/GRAPE.png,,,,,,,,,,,,,,,,,,,,z,1,0.7912,,,,,,,,0,46,46,100,1
,,,,,,,,,,,,,,,,,5d1a7bb2339da6001a12b11a,67,2022-02-12_16h51.25.501,lexical_decision_task_DD_L3,2021.2.3,Win32,59.99160118,,,,,,,,,,,,0.7902,1,,,,,,,,,,,,,,,,,,,,,,,,0.059259259,-0.424074074,0,0,0,,,,,,,VALLEY,HB,z,m,./images/VALLEYHB.png,,,,,,,,,,,,,,,,,,,,z,1,0.7902,,,,,,,,0,47,47,152,1
,,,,,,,,,,,,,,,,,5d1a7bb2339da6001a12b11a,67,2022-02-12_16h51.25.501,lexical_decision_task_DD_L3,2021.2.3,Win32,59.99160118,,,,,,,,,,,,0.7344,1,,,,,,,,,,,,,,,,,,,,,,,,0.059259259,-0.424074074,0,0,0,,,,,,,CRATER,LB,z,m,./images/CRATERLB.png,,,,,,,,,,,,,,,,,,,,z,1,0.7344,,,,,,,,0,48,48,87,1
,,,,,,,,,,,,,,,,,5d1a7bb2339da6001a12b11a,67,2022-02-12_16h51.25.501,lexical_decision_task_DD_L3,2021.2.3,Win32,59.99160118,,,,,,,,,,,,0.8341,1,,,,,,,,,,,,,,,,,,,,,,,,0.059259259,-0.424074074,0,0,0,,,,,,,PISTOL,HB,z,m,./images/PISTOLHB.png,,,,,,,,,,,,,,,,,,,,z,1,0.8341,,,,,,,,0,49,49,113,1
,,,,,,,,,,,,,,,,,5d1a7bb2339da6001a12b11a,67,2022-02-12_16h51.25.501,lexical_decision_task_DD_L3,2021.2.3,Win32,59.99160118,,,,,,,,,,,,0.7574,1,,,,,,,,,,,,,,,,,,,,,,,,0.059259259,-0.424074074,0,0,0,,,,,,,BANANA,C,z,m,./images/BANANA.png,,,,,,,,,,,,,,,,,,,,z,1,0.7574,,,,,,,,0,50,50,154,1
,,,,,,,,,,,,,,,,,5d1a7bb2339da6001a12b11a,67,2022-02-12_16h51.25.501,lexical_decision_task_DD_L3,2021.2.3,Win32,59.99160118,,,,,,,,,,,,0.7981,1,,,,,,,,,,,,,,,,,,,,,,,,0.059259259,-0.424074074,0,0,0,,,,,,,TIGER,C,z,m,./images/TIGER.png,,,,,,,,,,,,,,,,,,,,z,1,0.7981,,,,,,,,0,51,51,121,1
,,,,,,,,,,,,,,,,,5d1a7bb2339da6001a12b11a,67,2022-02-12_16h51.25.501,lexical_decision_task_DD_L3,2021.2.3,Win32,59.99160118,,,,,,,,,,,,0.7408,1,,,,,,,,,,,,,,,,,,,,,,,,0.059259259,-0.424074074,0,0,0,,,,,,,CLOUD,HB,z,m,./images/CLOUDHB.png,,,,,,,,,,,,,,,,,,,,z,1,0.7408,,,,,,,,0,52,52,110,1
,,,,,,,,,,,,,,,,,5d1a7bb2339da6001a12b11a,67,2022-02-12_16h51.25.501,lexical_decision_task_DD_L3,2021.2.3,Win32,59.99160118,,,,,,,,,,,,0.7017,0,,,,,,,,,,,,,,,,,,,,,,,,0.059259259,-0.424074074,0,0,0,,,,,,,STOVE,HB,z,m,./images/STOVEHB.png,,,,,,,,,,,,,,,,,,,,m,0,0.7017,,,,,,,,0,53,53,86,1
,,,,,,,,,,,,,,,,,5d1a7bb2339da6001a12b11a,67,2022-02-12_16h51.25.501,lexical_decision_task_DD_L3,2021.2.3,Win32,59.99160118,,,,,,,,,,,,0.8815,0,,,,,,,,,,,,,,,,,,,,,,,,0.059259259,-0.424074074,0,0,0,,,,,,,COOKER,LB,m,m,./images/COOKERLB.png,,,,,,,,,,,,,,,,,,,,z,0,0.8815,,,,,,,,0,54,54,69,1
,,,,,,,,,,,,,,,,,5d1a7bb2339da6001a12b11a,67,2022-02-12_16h51.25.501,lexical_decision_task_DD_L3,2021.2.3,Win32,59.99160118,,,,,,,,,,,,0.6606,1,,,,,,,,,,,,,,,,,,,,,,,,0.059259259,-0.424074074,0,0,0,,,,,,,BURIAL,HB,m,m,./images/BURIALHB.png,,,,,,,,,,,,,,,,,,,,m,1,0.6606,,,,,,,,0,55,55,59,1
,,,,,,,,,,,,,,,,,5d1a7bb2339da6001a12b11a,67,2022-02-12_16h51.25.501,lexical_decision_task_DD_L3,2021.2.3,Win32,59.99160118,,,,,,,,,,,,0.7132,1,,,,,,,,,,,,,,,,,,,,,,,,0.059259259,-0.424074074,0,0,0,,,,,,,BEARD,HB,m,m,./images/BEARDHB.png,,,,,,,,,,,,,,,,,,,,m,1,0.7132,,,,,,,,0,56,56,2,1
,,,,,,,,,,,,,,,,,5d1a7bb2339da6001a12b11a,67,2022-02-12_16h51.25.501,lexical_decision_task_DD_L3,2021.2.3,Win32,59.99160118,,,,,,,,,,,,0.6279,0,,,,,,,,,,,,,,,,,,,,,,,,0.059259259,-0.424074074,0,0,0,,,,,,,CANOE,C,z,m,./images/CANOE.png,,,,,,,,,,,,,,,,,,,,m,0,0.6279,,,,,,,,0,57,57,142,1
,,,,,,,,,,,,,,,,,5d1a7bb2339da6001a12b11a,67,2022-02-12_16h51.25.501,lexical_decision_task_DD_L3,2021.2.3,Win32,59.99160118,,,,,,,,,,,,0.6737,1,,,,,,,,,,,,,,,,,,,,,,,,0.059259259,-0.424074074,0,0,0,,,,,,,MUMMY,C,z,m,./images/MUMMY.png,,,,,,,,,,,,,,,,,,,,z,1,0.6737,,,,,,,,0,58,58,130,1
,,,,,,,,,,,,,,,,,5d1a7bb2339da6001a12b11a,67,2022-02-12_16h51.25.501,lexical_decision_task_DD_L3,2021.2.3,Win32,59.99160118,,,,,,,,,,,,1.1505,0,,,,,,,,,,,,,,,,,,,,,,,,0.059259259,-0.424074074,0,0,0,,,,,,,GLOVE,C,z,m,./images/GLOVE.png,,,,,,,,,,,,,,,,,,,,m,0,1.1505,,,,,,,,0,59,59,157,1
,,,,,,,,,,,,,,,,,5d1a7bb2339da6001a12b11a,67,2022-02-12_16h51.25.501,lexical_decision_task_DD_L3,2021.2.3,Win32,59.99160118,,,,,,,,,,,,0.8312,1,,,,,,,,,,,,,,,,,,,,,,,,0.059259259,-0.424074074,0,0,0,,,,,,,TOMATO,LB,m,m,./images/TOMATOLB.png,,,,,,,,,,,,,,,,,,,,m,1,0.8312,,,,,,,,0,60,60,0,1
,,,,,,,,,,,,,,,,,5d1a7bb2339da6001a12b11a,67,2022-02-12_16h51.25.501,lexical_decision_task_DD_L3,2021.2.3,Win32,59.99160118,,,,,,,,,,,,0.6198,1,,,,,,,,,,,,,,,,,,,,,,,,0.059259259,-0.424074074,0,0,0,,,,,,,PENCE,C,m,m,./images/PENCE.png,,,,,,,,,,,,,,,,,,,,m,1,0.6198,,,,,,,,0,61,61,16,1
,,,,,,,,,,,,,,,,,5d1a7bb2339da6001a12b11a,67,2022-02-12_16h51.25.501,lexical_decision_task_DD_L3,2021.2.3,Win32,59.99160118,,,,,,,,,,,,0.9006,1,,,,,,,,,,,,,,,,,,,,,,,,0.059259259,-0.424074074,0,0,0,,,,,,,SCREW,LB,m,m,./images/SCREWLB.png,,,,,,,,,,,,,,,,,,,,m,1,0.9006,,,,,,,,0,62,62,24,1
,,,,,,,,,,,,,,,,,5d1a7bb2339da6001a12b11a,67,2022-02-12_16h51.25.501,lexical_decision_task_DD_L3,2021.2.3,Win32,59.99160118,,,,,,,,,,,,0.7672,1,,,,,,,,,,,,,,,,,,,,,,,,0.059259259,-0.424074074,0,0,0,,,,,,,SQUARE,LB,m,m,./images/SQUARELB.png,,,,,,,,,,,,,,,,,,,,m,1,0.7672,,,,,,,,0,63,63,6,1
,,,,,,,,,,,,,,,,,5d1a7bb2339da6001a12b11a,67,2022-02-12_16h51.25.501,lexical_decision_task_DD_L3,2021.2.3,Win32,59.99160118,,,,,,,,,,,,0.774,1,,,,,,,,,,,,,,,,,,,,,,,,0.059259259,-0.424074074,0,0,0,,,,,,,DOUGH,C,m,m,./images/DOUGH.png,,,,,,,,,,,,,,,,,,,,m,1,0.774,,,,,,,,0,64,64,19,1
,,,,,,,,,,,,,,,,,5d1a7bb2339da6001a12b11a,67,2022-02-12_16h51.25.501,lexical_decision_task_DD_L3,2021.2.3,Win32,59.99160118,,,,,,,,,,,,1.022,1,,,,,,,,,,,,,,,,,,,,,,,,0.059259259,-0.424074074,0,0,0,,,,,,,CARPET,HB,m,m,./images/CARPETHB.png,,,,,,,,,,,,,,,,,,,,m,1,1.022,,,,,,,,0,65,65,53,1
,,,,,,,,,,,,,,,,,5d1a7bb2339da6001a12b11a,67,2022-02-12_16h51.25.501,lexical_decision_task_DD_L3,2021.2.3,Win32,59.99160118,,,,,,,,,,,,0.8913,1,,,,,,,,,,,,,,,,,,,,,,,,0.059259259,-0.424074074,0,0,0,,,,,,,BUTTER,LB,z,m,./images/BUTTERLB.png,,,,,,,,,,,,,,,,,,,,z,1,0.8913,,,,,,,,0,66,66,111,1
,,,,,,,,,,,,,,,,,5d1a7bb2339da6001a12b11a,67,2022-02-12_16h51.25.501,lexical_decision_task_DD_L3,2021.2.3,Win32,59.99160118,,,,,,,,,,,,1.0072,0,,,,,,,,,,,,,,,,,,,,,,,,0.059259259,-0.424074074,0,0,0,,,,,,,HOCKEY,HB,z,m,./images/HOCKEYHB.png,,,,,,,,,,,,,,,,,,,,m,0,1.0072,,,,,,,,0,67,67,116,1
,,,,,,,,,,,,,,,,,5d1a7bb2339da6001a12b11a,67,2022-02-12_16h51.25.501,lexical_decision_task_DD_L3,2021.2.3,Win32,59.99160118,,,,,,,,,,,,0.9097,1,,,,,,,,,,,,,,,,,,,,,,,,0.059259259,-0.424074074,0,0,0,,,,,,,FLESH,LB,z,m,./images/FLESHLB.png,,,,,,,,,,,,,,,,,,,,z,1,0.9097,,,,,,,,0,68,68,108,1
,,,,,,,,,,,,,,,,,5d1a7bb2339da6001a12b11a,67,2022-02-12_16h51.25.501,lexical_decision_task_DD_L3,2021.2.3,Win32,59.99160118,,,,,,,,,,,,0.7122,1,,,,,,,,,,,,,,,,,,,,,,,,0.059259259,-0.424074074,0,0,0,,,,,,,PAINT,C,m,m,./images/PAINT.png,,,,,,,,,,,,,,,,,,,,m,1,0.7122,,,,,,,,0,69,69,7,1
,,,,,,,,,,,,,,,,,5d1a7bb2339da6001a12b11a,67,2022-02-12_16h51.25.501,lexical_decision_task_DD_L3,2021.2.3,Win32,59.99160118,,,,,,,,,,,,0.8272,1,,,,,,,,,,,,,,,,,,,,,,,,0.059259259,-0.424074074,0,0,0,,,,,,,SPINE,HB,z,m,./images/SPINEHB.png,,,,,,,,,,,,,,,,,,,,z,1,0.8272,,,,,,,,0,70,70,149,1
,,,,,,,,,,,,,,,,,5d1a7bb2339da6001a12b11a,67,2022-02-12_16h51.25.501,lexical_decision_task_DD_L3,2021.2.3,Win32,59.99160118,,,,,,,,,,,,0.7451,1,,,,,,,,,,,,,,,,,,,,,,,,0.059259259,-0.424074074,0,0,0,,,,,,,SKIING,HB,m,m,./images/SKIINGHB.png,,,,,,,,,,,,,,,,,,,,m,1,0.7451,,,,,,,,0,71,71,17,1
,,,,,,,,,,,,,,,,,5d1a7bb2339da6001a12b11a,67,2022-02-12_16h51.25.501,lexical_decision_task_DD_L3,2021.2.3,Win32,59.99160118,,,,,,,,,,,,0.9856,0,,,,,,,,,,,,,,,,,,,,,,,,0.059259259,-0.424074074,0,0,0,,,,,,,POKER,C,z,m,./images/POKER.png,,,,,,,,,,,,,,,,,,,,m,0,0.9856,,,,,,,,0,72,72,151,1
,,,,,,,,,,,,,,,,,5d1a7bb2339da6001a12b11a,67,2022-02-12_16h51.25.501,lexical_decision_task_DD_L3,2021.2.3,Win32,59.99160118,,,,,,,,,,,,0.6966,1,,,,,,,,,,,,,,,,,,,,,,,,0.059259259,-0.424074074,0,0,0,,,,,,,STRING,HB,m,m,./images/STRINGHB.png,,,,,,,,,,,,,,,,,,,,m,1,0.6966,,,,,,,,0,73,73,41,1
,,,,,,,,,,,,,,,,,5d1a7bb2339da6001a12b11a,67,2022-02-12_16h51.25.501,lexical_decision_task_DD_L3,2021.2.3,Win32,59.99160118,,,,,,,,,,,,0.6446,1,,,,,,,,,,,,,,,,,,,,,,,,0.059259259,-0.424074074,0,0,0,,,,,,,MAGGOT,LB,m,m,./images/MAGGOTLB.png,,,,,,,,,,,,,,,,,,,,m,1,0.6446,,,,,,,,0,74,74,33,1
,,,,,,,,,,,,,,,,,5d1a7bb2339da6001a12b11a,67,2022-02-12_16h51.25.501,lexical_decision_task_DD_L3,2021.2.3,Win32,59.99160118,,,,,,,,,,,,0.7218,1,,,,,,,,,,,,,,,,,,,,,,,,0.059259259,-0.424074074,0,0,0,,,,,,,RULER,C,z,m,./images/RULER.png,,,,,,,,,,,,,,,,,,,,z,1,0.7218,,,,,,,,0,75,75,163,1
,,,,,,,,,,,,,,,,,5d1a7bb2339da6001a12b11a,67,2022-02-12_16h51.25.501,lexical_decision_task_DD_L3,2021.2.3,Win32,59.99160118,,,,,,,,,,,,1.1242,0,,,,,,,,,,,,,,,,,,,,,,,,0.059259259,-0.424074074,0,0,0,,,,,,,FINGER,LB,m,m,./images/FINGERLB.png,,,,,,,,,,,,,,,,,,,,z,0,1.1242,,,,,,,,0,76,76,3,1
,,,,,,,,,,,,,,,,,5d1a7bb2339da6001a12b11a,67,2022-02-12_16h51.25.501,lexical_decision_task_DD_L3,2021.2.3,Win32,59.99160118,,,,,,,,,,,,0.9414,1,,,,,,,,,,,,,,,,,,,,,,,,0.059259259,-0.424074074,0,0,0,,,,,,,STEAK,C,z,m,./images/STEAK.png,,,,,,,,,,,,,,,,,,,,z,1,0.9414,,,,,,,,0,77,77,115,1
,,,,,,,,,,,,,,,,,5d1a7bb2339da6001a12b11a,67,2022-02-12_16h51.25.501,lexical_decision_task_DD_L3,2021.2.3,Win32,59.99160118,,,,,,,,,,,,0.6788,0,,,,,,,,,,,,,,,,,,,,,,,,0.059259259,-0.424074074,0,0,0,,,,,,,CASINO,C,z,m,./images/CASINO.png,,,,,,,,,,,,,,,,,,,,m,0,0.6788,,,,,,,,0,78,78,112,1
,,,,,,,,,,,,,,,,,5d1a7bb2339da6001a12b11a,67,2022-02-12_16h51.25.501,lexical_decision_task_DD_L3,2021.2.3,Win32,59.99160118,,,,,,,,,,,,0.8747,1,,,,,,,,,,,,,,,,,,,,,,,,0.059259259,-0.424074074,0,0,0,,,,,,,BRUSH,HB,z,m,./images/BRUSHHB.png,,,,,,,,,,,,,,,,,,,,z,1,0.8747,,,,,,,,0,79,79,143,1
,,,,,,,,,,,,,,,,,5d1a7bb2339da6001a12b11a,67,2022-02-12_16h51.25.501,lexical_decision_task_DD_L3,2021.2.3,Win32,59.99160118,,,,,,,,,,,,0.702,1,,,,,,,,,,,,,,,,,,,,,,,,0.059259259,-0.424074074,0,0,0,,,,,,,BLOKE,LB,z,m,./images/BLOKELB.png,,,,,,,,,,,,,,,,,,,,z,1,0.702,,,,,,,,0,80,80,96,1
,,,,,,,,,,,,,,,,,5d1a7bb2339da6001a12b11a,67,2022-02-12_16h51.25.501,lexical_decision_task_DD_L3,2021.2.3,Win32,59.99160118,,,,,,,,,,,,0.6732,1,,,,,,,,,,,,,,,,,,,,,,,,0.059259259,-0.424074074,0,0,0,,,,,,,WALNUT,LB,z,m,./images/WALNUTLB.png,,,,,,,,,,,,,,,,,,,,z,1,0.6732,,,,,,,,0,81,81,84,1
,,,,,,,,,,,,,,,,,5d1a7bb2339da6001a12b11a,67,2022-02-12_16h51.25.501,lexical_decision_task_DD_L3,2021.2.3,Win32,59.99160118,,,,,,,,,,,,0.637,1,,,,,,,,,,,,,,,,,,,,,,,,0.059259259,-0.424074074,0,0,0,,,,,,,BARREL,HB,m,m,./images/BARRELHB.png,,,,,,,,,,,,,,,,,,,,m,1,0.637,,,,,,,,0,82,82,32,1
,,,,,,,,,,,,,,,,,5d1a7bb2339da6001a12b11a,67,2022-02-12_16h51.25.501,lexical_decision_task_DD_L3,2021.2.3,Win32,59.99160118,,,,,,,,,,,,0.9543,0,,,,,,,,,,,,,,,,,,,,,,,,0.059259259,-0.424074074,0,0,0,space,,,,,,MUSCLE,C,m,m,./images/MUSCLE.png,5.0747,,,,,,,,,,,,,,,,,,,z,0,0.9543,,,,,,,,0,83,83,4,1
,,,,,,,,,,,,,,,,,5d1a7bb2339da6001a12b11a,67,2022-02-12_16h51.25.501,lexical_decision_task_DD_L3,2021.2.3,Win32,59.99160118,,,,,,,,,,,,0.6068,1,,,,,,,,,,,,,,,,,,,,,,,,0.059259259,-0.424074074,0,0,0,,,,,,,MALLET,HB,m,m,./images/MALLETHB.png,,,,,,,,,,,,,,,,,,,,m,1,0.6068,,,,,,,,0,84,84,50,1
,,,,,,,,,,,,,,,,,5d1a7bb2339da6001a12b11a,67,2022-02-12_16h51.25.501,lexical_decision_task_DD_L3,2021.2.3,Win32,59.99160118,,,,,,,,,,,,0.7573,1,,,,,,,,,,,,,,,,,,,,,,,,0.059259259,-0.424074074,0,0,0,,,,,,,SWEAT,LB,m,m,./images/SWEATLB.png,,,,,,,,,,,,,,,,,,,,m,1,0.7573,,,,,,,,0,85,85,66,1
,,,,,,,,,,,,,,,,,5d1a7bb2339da6001a12b11a,67,2022-02-12_16h51.25.501,lexical_decision_task_DD_L3,2021.2.3,Win32,59.99160118,,,,,,,,,,,,0.7338,0,,,,,,,,,,,,,,,,,,,,,,,,0.059259259,-0.424074074,0,0,0,,,,,,,RAZOR,C,z,m,./images/RAZOR.png,,,,,,,,,,,,,,,,,,,,m,0,0.7338,,,,,,,,0,86,86,118,1
,,,,,,,,,,,,,,,,,5d1a7bb2339da6001a12b11a,67,2022-02-12_16h51.25.501,lexical_decision_task_DD_L3,2021.2.3,Win32,59.99160118,,,,,,,,,,,,0.7186,1,,,,,,,,,,,,,,,,,,,,,,,,0.059259259,-0.424074074,0,0,0,,,,,,,DIVER,LB,z,m,./images/DIVERLB.png,,,,,,,,,,,,,,,,,,,,z,1,0.7186,,,,,,,,0,87,87,93,1
,,,,,,,,,,,,,,,,,5d1a7bb2339da6001a12b11a,67,2022-02-12_16h51.25.501,lexical_decision_task_DD_L3,2021.2.3,Win32,59.99160118,,,,,,,,,,,,0.6338,1,,,,,,,,,,,,,,,,,,,,,,,,0.059259259,-0.424074074,0,0,0,,,,,,,SWING,C,m,m,./images/SWING.png,,,,,,,,,,,,,,,,,,,,m,1,0.6338,,,,,,,,0,88,88,40,1
,,,,,,,,,,,,,,,,,5d1a7bb2339da6001a12b11a,67,2022-02-12_16h51.25.501,lexical_decision_task_DD_L3,2021.2.3,Win32,59.99160118,,,,,,,,,,,,0.863,0,,,,,,,,,,,,,,,,,,,,,,,,0.059259259,-0.424074074,0,0,0,,,,,,,CRUST,C,m,m,./images/CRUST.png,,,,,,,,,,,,,,,,,,,,z,0,0.863,,,,,,,,0,89,89,79,1
,,,,,,,,,,,,,,,,,5d1a7bb2339da6001a12b11a,67,2022-02-12_16h51.25.501,lexical_decision_task_DD_L3,2021.2.3,Win32,59.99160118,,,,,,,,,,,,0.5958,1,,,,,,,,,,,,,,,,,,,,,,,,0.059259259,-0.424074074,0,0,0,,,,,,,PEARL,C,m,m,./images/PEARL.png,,,,,,,,,,,,,,,,,,,,m,1,0.5958,,,,,,,,0,90,90,46,1
,,,,,,,,,,,,,,,,,5d1a7bb2339da6001a12b11a,67,2022-02-12_16h51.25.501,lexical_decision_task_DD_L3,2021.2.3,Win32,59.99160118,,,,,,,,,,,,0.7339,1,,,,,,,,,,,,,,,,,,,,,,,,0.059259259,-0.424074074,0,0,0,,,,,,,DRILL,LB,z,m,./images/DRILLLB.png,,,,,,,,,,,,,,,,,,,,z,1,0.7339,,,,,,,,0,91,91,165,1
,,,,,,,,,,,,,,,,,5d1a7bb2339da6001a12b11a,67,2022-02-12_16h51.25.501,lexical_decision_task_DD_L3,2021.2.3,Win32,59.99160118,,,,,,,,,,,,0.7013,1,,,,,,,,,,,,,,,,,,,,,,,,0.059259259,-0.424074074,0,0,0,,,,,,,CRUMB,HB,m,m,./images/CRUMBHB.png,,,,,,,,,,,,,,,,,,,,m,1,0.7013,,,,,,,,0,92,92,29,1
,,,,,,,,,,,,,,,,,5d1a7bb2339da6001a12b11a,67,2022-02-12_16h51.25.501,lexical_decision_task_DD_L3,2021.2.3,Win32,59.99160118,,,,,,,,,,,,0.8477,1,,,,,,,,,,,,,,,,,,,,,,,,0.059259259,-0.424074074,0,0,0,,,,,,,SAUCE,LB,z,m,./images/SAUCELB.png,,,,,,,,,,,,,,,,,,,,z,1,0.8477,,,,,,,,0,93,93,135,1
,,,,,,,,,,,,,,,,,5d1a7bb2339da6001a12b11a,67,2022-02-12_16h51.25.501,lexical_decision_task_DD_L3,2021.2.3,Win32,59.99160118,,,,,,,,,,,,0.7809,1,,,,,,,,,,,,,,,,,,,,,,,,0.059259259,-0.424074074,0,0,0,,,,,,,SHELF,LB,m,m,./images/SHELFLB.png,,,,,,,,,,,,,,,,,,,,m,1,0.7809,,,,,,,,0,94,94,39,1
,,,,,,,,,,,,,,,,,5d1a7bb2339da6001a12b11a,67,2022-02-12_16h51.25.501,lexical_decision_task_DD_L3,2021.2.3,Win32,59.99160118,,,,,,,,,,,,0.8683,0,,,,,,,,,,,,,,,,,,,,,,,,0.059259259,-0.424074074,0,0,0,,,,,,,THROAT,LB,m,m,./images/THROATLB.png,,,,,,,,,,,,,,,,,,,,z,0,0.8683,,,,,,,,0,95,95,36,1
,,,,,,,,,,,,,,,,,5d1a7bb2339da6001a12b11a,67,2022-02-12_16h51.25.501,lexical_decision_task_DD_L3,2021.2.3,Win32,59.99160118,,,,,,,,,,,,0.6088,0,,,,,,,,,,,,,,,,,,,,,,,,0.059259259,-0.424074074,0,0,0,,,,,,,BELLY,C,m,m,./images/BELLY.png,,,,,,,,,,,,,,,,,,,,z,0,0.6088,,,,,,,,0,96,96,10,1
,,,,,,,,,,,,,,,,,5d1a7bb2339da6001a12b11a,67,2022-02-12_16h51.25.501,lexical_decision_task_DD_L3,2021.2.3,Win32,59.99160118,,,,,,,,,,,,0.8076,1,,,,,,,,,,,,,,,,,,,,,,,,0.059259259,-0.424074074,0,0,0,,,,,,,FOLDER,LB,m,m,./images/FOLDERLB.png,,,,,,,,,,,,,,,,,,,,m,1,0.8076,,,,,,,,0,97,97,42,1
,,,,,,,,,,,,,,,,,5d1a7bb2339da6001a12b11a,67,2022-02-12_16h51.25.501,lexical_decision_task_DD_L3,2021.2.3,Win32,59.99160118,,,,,,,,,,,,0.6527,1,,,,,,,,,,,,,,,,,,,,,,,,0.059259259,-0.424074074,0,0,0,,,,,,,DRUMS,C,m,m,./images/DRUMS.png,,,,,,,,,,,,,,,,,,,,m,1,0.6527,,,,,,,,0,98,98,49,1
,,,,,,,,,,,,,,,,,5d1a7bb2339da6001a12b11a,67,2022-02-12_16h51.25.501,lexical_decision_task_DD_L3,2021.2.3,Win32,59.99160118,,,,,,,,,,,,0.7303,1,,,,,,,,,,,,,,,,,,,,,,,,0.059259259,-0.424074074,0,0,0,,,,,,,INFANT,C,m,m,./images/INFANT.png,,,,,,,,,,,,,,,,,,,,m,1,0.7303,,,,,,,,0,99,99,76,1
,,,,,,,,,,,,,,,,,5d1a7bb2339da6001a12b11a,67,2022-02-12_16h51.25.501,lexical_decision_task_DD_L3,2021.2.3,Win32,59.99160118,,,,,,,,,,,,0.6515,1,,,,,,,,,,,,,,,,,,,,,,,,0.059259259,-0.424074074,0,0,0,,,,,,,CLOTH,HB,z,m,./images/CLOTHHB.png,,,,,,,,,,,,,,,,,,,,z,1,0.6515,,,,,,,,0,100,100,107,1
,,,,,,,,,,,,,,,,,5d1a7bb2339da6001a12b11a,67,2022-02-12_16h51.25.501,lexical_decision_task_DD_L3,2021.2.3,Win32,59.99160118,,,,,,,,,,,,0.6726,1,,,,,,,,,,,,,,,,,,,,,,,,0.059259259,-0.424074074,0,0,0,,,,,,,URINE,C,m,m,./images/URINE.png,,,,,,,,,,,,,,,,,,,,m,1,0.6726,,,,,,,,0,101,101,70,1
,,,,,,,,,,,,,,,,,5d1a7bb2339da6001a12b11a,67,2022-02-12_16h51.25.501,lexical_decision_task_DD_L3,2021.2.3,Win32,59.99160118,,,,,,,,,,,,0.7407,1,,,,,,,,,,,,,,,,,,,,,,,,0.059259259,-0.424074074,0,0,0,,,,,,,BABOON,C,m,m,./images/BABOON.png,,,,,,,,,,,,,,,,,,,,m,1,0.7407,,,,,,,,0,102,102,58,1
,,,,,,,,,,,,,,,,,5d1a7bb2339da6001a12b11a,67,2022-02-12_16h51.25.501,lexical_decision_task_DD_L3,2021.2.3,Win32,59.99160118,,,,,,,,,,,,0.7426,1,,,,,,,,,,,,,,,,,,,,,,,,0.059259259,-0.424074074,0,0,0,,,,,,,BAKER,LB,z,m,./images/BAKERLB.png,,,,,,,,,,,,,,,,,,,,z,1,0.7426,,,,,,,,0,103,103,147,1
,,,,,,,,,,,,,,,,,5d1a7bb2339da6001a12b11a,67,2022-02-12_16h51.25.501,lexical_decision_task_DD_L3,2021.2.3,Win32,59.99160118,,,,,,,,,,,,0.8174,1,,,,,,,,,,,,,,,,,,,,,,,,0.059259259,-0.424074074,0,0,0,,,,,,,PARADE,HB,z,m,./images/PARADEHB.png,,,,,,,,,,,,,,,,,,,,z,1,0.8174,,,,,,,,0,104,104,101,1
,,,,,,,,,,,,,,,,,5d1a7bb2339da6001a12b11a,67,2022-02-12_16h51.25.501,lexical_decision_task_DD_L3,2021.2.3,Win32,59.99160118,,,,,,,,,,,,0.805,1,,,,,,,,,,,,,,,,,,,,,,,,0.059259259,-0.424074074,0,0,0,,,,,,,GREASE,LB,m,m,./images/GREASELB.png,,,,,,,,,,,,,,,,,,,,m,1,0.805,,,,,,,,0,105,105,15,1
,,,,,,,,,,,,,,,,,5d1a7bb2339da6001a12b11a,67,2022-02-12_16h51.25.501,lexical_decision_task_DD_L3,2021.2.3,Win32,59.99160118,,,,,,,,,,,,0.7959,1,,,,,,,,,,,,,,,,,,,,,,,,0.059259259,-0.424074074,0,0,0,,,,,,,MOSQUE,C,m,m,./images/MOSQUE.png,,,,,,,,,,,,,,,,,,,,m,1,0.7959,,,,,,,,0,106,106,43,1
,,,,,,,,,,,,,,,,,5d1a7bb2339da6001a12b11a,67,2022-02-12_16h51.25.501,lexical_decision_task_DD_L3,2021.2.3,Win32,59.99160118,,,,,,,,,,,,0.7172,0,,,,,,,,,,,,,,,,,,,,,,,,0.059259259,-0.424074074,0,0,0,,,,,,,CLIFF,HB,z,m,./images/CLIFFHB.png,,,,,,,,,,,,,,,,,,,,m,0,0.7172,,,,,,,,0,107,107,92,1
,,,,,,,,,,,,,,,,,5d1a7bb2339da6001a12b11a,67,2022-02-12_16h51.25.501,lexical_decision_task_DD_L3,2021.2.3,Win32,59.99160118,,,,,,,,,,,,0.6462,1,,,,,,,,,,,,,,,,,,,,,,,,0.059259259,-0.424074074,0,0,0,,,,,,,TORCH,HB,m,m,./images/TORCHHB.png,,,,,,,,,,,,,,,,,,,,m,1,0.6462,,,,,,,,0,108,108,68,1
,,,,,,,,,,,,,,,,,5d1a7bb2339da6001a12b11a,67,2022-02-12_16h51.25.501,lexical_decision_task_DD_L3,2021.2.3,Win32,59.99160118,,,,,,,,,,,,0.9794,0,,,,,,,,,,,,,,,,,,,,,,,,0.059259259,-0.424074074,0,0,0,,,,,,,NOOSE,LB,m,m,./images/NOOSELB.png,,,,,,,,,,,,,,,,,,,,z,0,0.9794,,,,,,,,0,109,109,72,1
,,,,,,,,,,,,,,,,,5d1a7bb2339da6001a12b11a,67,2022-02-12_16h51.25.501,lexical_decision_task_DD_L3,2021.2.3,Win32,59.99160118,,,,,,,,,,,,0.8913,1,,,,,,,,,,,,,,,,,,,,,,,,0.059259259,-0.424074074,0,0,0,,,,,,,BUBBLE,HB,z,m,./images/BUBBLEHB.png,,,,,,,,,,,,,,,,,,,,z,1,0.8913,,,,,,,,0,110,110,155,1
,,,,,,,,,,,,,,,,,5d1a7bb2339da6001a12b11a,67,2022-02-12_16h51.25.501,lexical_decision_task_DD_L3,2021.2.3,Win32,59.99160118,,,,,,,,,,,,0.6705,1,,,,,,,,,,,,,,,,,,,,,,,,0.059259259,-0.424074074,0,0,0,,,,,,,MUFFIN,C,m,m,./images/MUFFIN.png,,,,,,,,,,,,,,,,,,,,m,1,0.6705,,,,,,,,0,111,111,55,1
,,,,,,,,,,,,,,,,,5d1a7bb2339da6001a12b11a,67,2022-02-12_16h51.25.501,lexical_decision_task_DD_L3,2021.2.3,Win32,59.99160118,,,,,,,,,,,,0.7147,1,,,,,,,,,,,,,,,,,,,,,,,,0.059259259,-0.424074074,0,0,0,,,,,,,POODLE,LB,m,m,./images/POODLELB.png,,,,,,,,,,,,,,,,,,,,m,1,0.7147,,,,,,,,0,112,112,81,1
,,,,,,,,,,,,,,,,,5d1a7bb2339da6001a12b11a,67,2022-02-12_16h51.25.501,lexical_decision_task_DD_L3,2021.2.3,Win32,59.99160118,,,,,,,,,,,,0.685,1,,,,,,,,,,,,,,,,,,,,,,,,0.059259259,-0.424074074,0,0,0,,,,,,,GRAIN,LB,m,m,./images/GRAINLB.png,,,,,,,,,,,,,,,,,,,,m,1,0.685,,,,,,,,0,113,113,75,1
,,,,,,,,,,,,,,,,,5d1a7bb2339da6001a12b11a,67,2022-02-12_16h51.25.501,lexical_decision_task_DD_L3,2021.2.3,Win32,59.99160118,,,,,,,,,,,,1.0003,1,,,,,,,,,,,,,,,,,,,,,,,,0.059259259,-0.424074074,0,0,0,,,,,,,DESERT,C,z,m,./images/DESERT.png,,,,,,,,,,,,,,,,,,,,z,1,1.0003,,,,,,,,0,114,114,136,1
,,,,,,,,,,,,,,,,,5d1a7bb2339da6001a12b11a,67,2022-02-12_16h51.25.501,lexical_decision_task_DD_L3,2021.2.3,Win32,59.99160118,,,,,,,,,,,,0.719,1,,,,,,,,,,,,,,,,,,,,,,,,0.059259259,-0.424074074,0,0,0,,,,,,,LLAMA,HB,z,m,./images/LLAMAHB.png,,,,,,,,,,,,,,,,,,,,z,1,0.719,,,,,,,,0,115,115,119,1
,,,,,,,,,,,,,,,,,5d1a7bb2339da6001a12b11a,67,2022-02-12_16h51.25.501,lexical_decision_task_DD_L3,2021.2.3,Win32,59.99160118,,,,,,,,,,,,0.7612,1,,,,,,,,,,,,,,,,,,,,,,,,0.059259259,-0.424074074,0,0,0,,,,,,,SPORT,LB,m,m,./images/SPORTLB.png,,,,,,,,,,,,,,,,,,,,m,1,0.7612,,,,,,,,0,116,116,48,1
,,,,,,,,,,,,,,,,,5d1a7bb2339da6001a12b11a,67,2022-02-12_16h51.25.501,lexical_decision_task_DD_L3,2021.2.3,Win32,59.99160118,,,,,,,,,,,,0.7139,1,,,,,,,,,,,,,,,,,,,,,,,,0.059259259,-0.424074074,0,0,0,,,,,,,CHERRY,LB,z,m,./images/CHERRYLB.png,,,,,,,,,,,,,,,,,,,,z,1,0.7139,,,,,,,,0,117,117,138,1
,,,,,,,,,,,,,,,,,5d1a7bb2339da6001a12b11a,67,2022-02-12_16h51.25.501,lexical_decision_task_DD_L3,2021.2.3,Win32,59.99160118,,,,,,,,,,,,0.804,0,,,,,,,,,,,,,,,,,,,,,,,,0.059259259,-0.424074074,0,0,0,,,,,,,DONKEY,C,z,m,./images/DONKEY.png,,,,,,,,,,,,,,,,,,,,m,0,0.804,,,,,,,,0,118,118,103,1
,,,,,,,,,,,,,,,,,5d1a7bb2339da6001a12b11a,67,2022-02-12_16h51.25.501,lexical_decision_task_DD_L3,2021.2.3,Win32,59.99160118,,,,,,,,,,,,0.7711,1,,,,,,,,,,,,,,,,,,,,,,,,0.059259259,-0.424074074,0,0,0,,,,,,,TRIPOD,LB,m,m,./images/TRIPODLB.png,,,,,,,,,,,,,,,,,,,,m,1,0.7711,,,,,,,,0,119,119,54,1
,,,,,,,,,,,,,,,,,5d1a7bb2339da6001a12b11a,67,2022-02-12_16h51.25.501,lexical_decision_task_DD_L3,2021.2.3,Win32,59.99160118,,,,,,,,,,,,0.6348,1,,,,,,,,,,,,,,,,,,,,,,,,0.059259259,-0.424074074,0,0,0,,,,,,,CANDLE,C,m,m,./images/CANDLE.png,,,,,,,,,,,,,,,,,,,,m,1,0.6348,,,,,,,,0,120,120,61,1
,,,,,,,,,,,,,,,,,5d1a7bb2339da6001a12b11a,67,2022-02-12_16h51.25.501,lexical_decision_task_DD_L3,2021.2.3,Win32,59.99160118,,,,,,,,,,,,0.6721,1,,,,,,,,,,,,,,,,,,,,,,,,0.059259259,-0.424074074,0,0,0,,,,,,,CRADLE,HB,m,m,./images/CRADLEHB.png,,,,,,,,,,,,,,,,,,,,m,1,0.6721,,,,,,,,0,121,121,20,1
,,,,,,,,,,,,,,,,,5d1a7bb2339da6001a12b11a,67,2022-02-12_16h51.25.501,lexical_decision_task_DD_L3,2021.2.3,Win32,59.99160118,,,,,,,,,,,,0.7509,0,,,,,,,,,,,,,,,,,,,,,,,,0.059259259,-0.424074074,0,0,0,,,,,,,DANCER,LB,z,m,./images/DANCERLB.png,,,,,,,,,,,,,,,,,,,,m,0,0.7509,,,,,,,,0,122,122,105,1
,,,,,,,,,,,,,,,,,5d1a7bb2339da6001a12b11a,67,2022-02-12_16h51.25.501,lexical_decision_task_DD_L3,2021.2.3,Win32,59.99160118,,,,,,,,,,,,0.7338,1,,,,,,,,,,,,,,,,,,,,,,,,0.059259259,-0.424074074,0,0,0,,,,,,,PURSE,HB,m,m,./images/PURSEHB.png,,,,,,,,,,,,,,,,,,,,m,1,0.7338,,,,,,,,0,123,123,62,1
,,,,,,,,,,,,,,,,,5d1a7bb2339da6001a12b11a,67,2022-02-12_16h51.25.501,lexical_decision_task_DD_L3,2021.2.3,Win32,59.99160118,,,,,,,,,,,,0.9027,0,,,,,,,,,,,,,,,,,,,,,,,,0.059259259,-0.424074074,0,0,0,,,,,,,BROOM,LB,z,m,./images/BROOMLB.png,,,,,,,,,,,,,,,,,,,,m,0,0.9027,,,,,,,,0,124,124,162,1
,,,,,,,,,,,,,,,,,5d1a7bb2339da6001a12b11a,67,2022-02-12_16h51.25.501,lexical_decision_task_DD_L3,2021.2.3,Win32,59.99160118,,,,,,,,,,,,0.7062,0,,,,,,,,,,,,,,,,,,,,,,,,0.059259259,-0.424074074,0,0,0,space,,,,,,BUNNY,C,z,m,./images/BUNNY.png,9.9974,,,,,,,,,,,,,,,,,,,m,0,0.7062,,,,,,,,0,125,125,97,1
,,,,,,,,,,,,,,,,,5d1a7bb2339da6001a12b11a,67,2022-02-12_16h51.25.501,lexical_decision_task_DD_L3,2021.2.3,Win32,59.99160118,,,,,,,,,,,,0.8274,1,,,,,,,,,,,,,,,,,,,,,,,,0.059259259,-0.424074074,0,0,0,,,,,,,FALCON,C,m,m,./images/FALCON.png,,,,,,,,,,,,,,,,,,,,m,1,0.8274,,,,,,,,0,126,126,28,1
,,,,,,,,,,,,,,,,,5d1a7bb2339da6001a12b11a,67,2022-02-12_16h51.25.501,lexical_decision_task_DD_L3,2021.2.3,Win32,59.99160118,,,,,,,,,,,,0.8186,1,,,,,,,,,,,,,,,,,,,,,,,,0.059259259,-0.424074074,0,0,0,,,,,,,BOXER,C,z,m,./images/BOXER.png,,,,,,,,,,,,,,,,,,,,z,1,0.8186,,,,,,,,0,127,127,88,1
,,,,,,,,,,,,,,,,,5d1a7bb2339da6001a12b11a,67,2022-02-12_16h51.25.501,lexical_decision_task_DD_L3,2021.2.3,Win32,59.99160118,,,,,,,,,,,,0.8706,1,,,,,,,,,,,,,,,,,,,,,,,,0.059259259,-0.424074074,0,0,0,,,,,,,CANDY,LB,z,m,./images/CANDYLB.png,,,,,,,,,,,,,,,,,,,,z,1,0.8706,,,,,,,,0,128,128,123,1
,,,,,,,,,,,,,,,,,5d1a7bb2339da6001a12b11a,67,2022-02-12_16h51.25.501,lexical_decision_task_DD_L3,2021.2.3,Win32,59.99160118,,,,,,,,,,,,0.7169,1,,,,,,,,,,,,,,,,,,,,,,,,0.059259259,-0.424074074,0,0,0,,,,,,,MIDGET,C,z,m,./images/MIDGET.png,,,,,,,,,,,,,,,,,,,,z,1,0.7169,,,,,,,,0,129,129,160,1
,,,,,,,,,,,,,,,,,5d1a7bb2339da6001a12b11a,67,2022-02-12_16h51.25.501,lexical_decision_task_DD_L3,2021.2.3,Win32,59.99160118,,,,,,,,,,,,0.6855,1,,,,,,,,,,,,,,,,,,,,,,,,0.059259259,-0.424074074,0,0,0,,,,,,,ARROW,LB,z,m,./images/ARROWLB.png,,,,,,,,,,,,,,,,,,,,z,1,0.6855,,,,,,,,0,130,130,153,1
,,,,,,,,,,,,,,,,,5d1a7bb2339da6001a12b11a,67,2022-02-12_16h51.25.501,lexical_decision_task_DD_L3,2021.2.3,Win32,59.99160118,,,,,,,,,,,,0.8246,0,,,,,,,,,,,,,,,,,,,,,,,,0.059259259,-0.424074074,0,0,0,,,,,,,ALLEY,C,z,m,./images/ALLEY.png,,,,,,,,,,,,,,,,,,,,m,0,0.8246,,,,,,,,0,131,131,139,1
