key_resp.keys,instr_done_touch.x,instr_done_touch.y,instr_done_touch.leftButton,instr_done_touch.midButton,instr_done_touch.rightButton,instr_done_touch.clicked_name,instruction_pages.thisRepN,instruction_pages.thisTrialN,instruction_pages.thisN,instruction_pages.thisIndex,instruction_pages.ran,pageN,phase,instruct_text,has_image,instruct_image,participant,age,date,expName,psychopyVersion,OS,frameRate,response.keys,response.corr,response.rt,touch_resp.x,touch_resp.y,touch_resp.leftButton,touch_resp.midButton,touch_resp.rightButton,touch_resp.time,touch_resp.clicked_name,rt,corr,practrials.thisRepN,practrials.thisTrialN,practrials.thisN,practrials.thisIndex,practrials.ran,TrialID,Target,corrAns,key_resp.rt,end_of_practice_trials_pages.thisRepN,end_of_practice_trials_pages.thisTrialN,end_of_practice_trials_pages.thisN,end_of_practice_trials_pages.thisIndex,end_of_practice_trials_pages.ran,key_resp_2.keys,key_resp_2.corr,key_resp_2.rt,targ_click.x,targ_click.y,targ_click.leftButton,targ_click.midButton,targ_click.rightButton,targ_click.time,targ_click.clicked_name,break_done_touch.x,break_done_touch.y,break_done_touch.leftButton,break_done_touch.midButton,break_done_touch.rightButton,break_done_keyboard.keys,maintrials.thisRepN,maintrials.thisTrialN,maintrials.thisN,maintrials.thisIndex,maintrials.ran,string,blur,study,lex,stim_path,break_done_keyboard.rt,mouse_2.x,mouse_2.y,mouse_2.leftButton,mouse_2.midButton,mouse_2.rightButton,mouse_2.clicked_name,slider.response,slider.rt,trials.thisRepN,trials.thisTrialN,trials.thisN,trials.thisIndex,trials.ran,test_instructions.thisRepN,test_instructions.thisTrialN,test_instructions.thisN,test_instructions.thisIndex,test_instructions.ran,key_resp_3.keys,key_resp_3.corr,key_resp_3.rt,test_click.x,test_click.y,test_click.leftButton,test_click.midButton,test_click.rightButton,test_click.time,test_click.clicked_name,test_phase.thisRepN,test_phase.thisTrialN,test_phase.thisN,test_phase.thisIndex,test_phase.ran
,0.006481481,-0.399074074,1,0,0,instr_done_button,0,0,0,0,1,1,instructions,"INSTRUCTIONS
At the start of each trial, look at the plus sign  (+) in the center of the screen.  This tells you that a trial is about to begin and where to look. Second, the plus sign will disappear and a string of letters will appear. Your task is to determine if the string of letters is a word or not. If the item is a word press the M key (on keyboard)  or touch the word button (phone/tablet).  If the item is not a word,  press the  Z key (on keyboard)  or touch the nonword button (on phone/tablet). 
Press the space bar or touch  continue.",0,,5d261fee347b0000014ab55a,53,2022-02-12_12h14.58.248,lexical_decision_task_DD_L3,2021.2.3,Win32,119.9904008,,,,,,,,,,,,,,,,,,,,,,,,,,,,,,,,,,,,,,,,,,,,,,,,,,,,,,,,,,,,,,,,,,,,,,,,,,,,,,,,,,,,,,
,0.006481481,-0.390740741,1,0,0,instr_done_button,0,1,1,1,1,2,instructions,"If your device has a keyboard, press the 'Z' key for nonwords and the 'M' key for words.





Press the space bar or touch the button below to continue.",0,keyboard-example.gif,5d261fee347b0000014ab55a,53,2022-02-12_12h14.58.248,lexical_decision_task_DD_L3,2021.2.3,Win32,119.9904008,,,,,,,,,,,,,,,,,,,,,,,,,,,,,,,,,,,,,,,,,,,,,,,,,,,,,,,,,,,,,,,,,,,,,,,,,,,,,,,,,,,,,,
,0.006481481,-0.390740741,1,0,0,instr_done_button,0,2,2,2,1,3,instructions,"If you are using a touchscreen only device, use the buttons on the screen. Do not use the mouse.





Press the space bar or touch the button below to continue.",0,touchscreen-example.gif,5d261fee347b0000014ab55a,53,2022-02-12_12h14.58.248,lexical_decision_task_DD_L3,2021.2.3,Win32,119.9904008,,,,,,,,,,,,,,,,,,,,,,,,,,,,,,,,,,,,,,,,,,,,,,,,,,,,,,,,,,,,,,,,,,,,,,,,,,,,,,,,,,,,,,
,-0.007407407,-0.405555556,1,0,0,instr_done_button,0,3,3,3,1,4,instructions,"It is very important that you respond as quickly and accurately as possible, as each letter string will only be on the screen for two seconds. If you do not respond within this time, the message 'Too slow!' will be displayed and the experiment will progress to the next letter string. The first 20 trials will be practice trials and you will receive feedback on your answers. 

Press the space bar or touch the button below to start the practice trials.",0,,5d261fee347b0000014ab55a,53,2022-02-12_12h14.58.248,lexical_decision_task_DD_L3,2021.2.3,Win32,119.9904008,,,,,,,,,,,,,,,,,,,,,,,,,,,,,,,,,,,,,,,,,,,,,,,,,,,,,,,,,,,,,,,,,,,,,,,,,,,,,,,,,,,,,,
,,,,,,,,,,,,,,,,,5d261fee347b0000014ab55a,53,2022-02-12_12h14.58.248,lexical_decision_task_DD_L3,2021.2.3,Win32,119.9904008,m,1,1.8927,,,,,,,,1.8927,1,0,0,0,4,1,1001,SQUEAK,m,,,,,,,,,,,,,,,,,,,,,,,,,,,,,,,,,,,,,,,,,,,,,,,,,,,,,,,,,,,,,,,,,,
,,,,,,,,,,,,,,,,,5d261fee347b0000014ab55a,53,2022-02-12_12h14.58.248,lexical_decision_task_DD_L3,2021.2.3,Win32,119.9904008,m,1,0.6275,,,,,,,,0.6275,1,0,1,1,6,1,1001,ZOMBIE,m,,,,,,,,,,,,,,,,,,,,,,,,,,,,,,,,,,,,,,,,,,,,,,,,,,,,,,,,,,,,,,,,,,
,,,,,,,,,,,,,,,,,5d261fee347b0000014ab55a,53,2022-02-12_12h14.58.248,lexical_decision_task_DD_L3,2021.2.3,Win32,119.9904008,m,1,0.9253,,,,,,,,0.9253,1,0,2,2,5,1,1001,OBTAIN,m,,,,,,,,,,,,,,,,,,,,,,,,,,,,,,,,,,,,,,,,,,,,,,,,,,,,,,,,,,,,,,,,,,
,,,,,,,,,,,,,,,,,5d261fee347b0000014ab55a,53,2022-02-12_12h14.58.248,lexical_decision_task_DD_L3,2021.2.3,Win32,119.9904008,z,1,2.2915,,,,,,,,2.2915,1,0,3,3,9,1,1001,FARINY,z,,,,,,,,,,,,,,,,,,,,,,,,,,,,,,,,,,,,,,,,,,,,,,,,,,,,,,,,,,,,,,,,,,
,,,,,,,,,,,,,,,,,5d261fee347b0000014ab55a,53,2022-02-12_12h14.58.248,lexical_decision_task_DD_L3,2021.2.3,Win32,119.9904008,z,1,0.9071,,,,,,,,0.9071,1,0,4,4,8,1,1001,ASLERT,z,,,,,,,,,,,,,,,,,,,,,,,,,,,,,,,,,,,,,,,,,,,,,,,,,,,,,,,,,,,,,,,,,,
,,,,,,,,,,,,,,,,,5d261fee347b0000014ab55a,53,2022-02-12_12h14.58.248,lexical_decision_task_DD_L3,2021.2.3,Win32,119.9904008,m,1,0.6646,,,,,,,,0.6646,1,0,5,5,7,1,1001,VOLUME,m,,,,,,,,,,,,,,,,,,,,,,,,,,,,,,,,,,,,,,,,,,,,,,,,,,,,,,,,,,,,,,,,,,
,,,,,,,,,,,,,,,,,5d261fee347b0000014ab55a,53,2022-02-12_12h14.58.248,lexical_decision_task_DD_L3,2021.2.3,Win32,119.9904008,m,1,0.6299,,,,,,,,0.6299,1,0,6,6,1,1,1001,ADJUST,m,,,,,,,,,,,,,,,,,,,,,,,,,,,,,,,,,,,,,,,,,,,,,,,,,,,,,,,,,,,,,,,,,,
,,,,,,,,,,,,,,,,,5d261fee347b0000014ab55a,53,2022-02-12_12h14.58.248,lexical_decision_task_DD_L3,2021.2.3,Win32,119.9904008,m,1,0.7214,,,,,,,,0.7214,1,0,7,7,3,1,1001,MATRIX,m,,,,,,,,,,,,,,,,,,,,,,,,,,,,,,,,,,,,,,,,,,,,,,,,,,,,,,,,,,,,,,,,,,
,,,,,,,,,,,,,,,,,5d261fee347b0000014ab55a,53,2022-02-12_12h14.58.248,lexical_decision_task_DD_L3,2021.2.3,Win32,119.9904008,z,1,0.8323,,,,,,,,0.8323,1,0,8,8,12,1,1001,SPRINY,z,,,,,,,,,,,,,,,,,,,,,,,,,,,,,,,,,,,,,,,,,,,,,,,,,,,,,,,,,,,,,,,,,,
,,,,,,,,,,,,,,,,,5d261fee347b0000014ab55a,53,2022-02-12_12h14.58.248,lexical_decision_task_DD_L3,2021.2.3,Win32,119.9904008,z,1,0.8624,,,,,,,,0.8624,1,0,9,9,14,1,1001,THRALE,z,,,,,,,,,,,,,,,,,,,,,,,,,,,,,,,,,,,,,,,,,,,,,,,,,,,,,,,,,,,,,,,,,,
,,,,,,,,,,,,,,,,,5d261fee347b0000014ab55a,53,2022-02-12_12h14.58.248,lexical_decision_task_DD_L3,2021.2.3,Win32,119.9904008,m,0,0.7337,,,,,,,,0.7337,0,0,10,10,13,1,1001,ROUPET,z,,,,,,,,,,,,,,,,,,,,,,,,,,,,,,,,,,,,,,,,,,,,,,,,,,,,,,,,,,,,,,,,,,
,,,,,,,,,,,,,,,,,5d261fee347b0000014ab55a,53,2022-02-12_12h14.58.248,lexical_decision_task_DD_L3,2021.2.3,Win32,119.9904008,z,1,0.9656,,,,,,,,0.9656,1,0,11,11,10,1,1001,INLADE,z,,,,,,,,,,,,,,,,,,,,,,,,,,,,,,,,,,,,,,,,,,,,,,,,,,,,,,,,,,,,,,,,,,
,,,,,,,,,,,,,,,,,5d261fee347b0000014ab55a,53,2022-02-12_12h14.58.248,lexical_decision_task_DD_L3,2021.2.3,Win32,119.9904008,z,1,0.6779,,,,,,,,0.6779,1,0,12,12,15,1,1001,WHAISE,z,,,,,,,,,,,,,,,,,,,,,,,,,,,,,,,,,,,,,,,,,,,,,,,,,,,,,,,,,,,,,,,,,,
,,,,,,,,,,,,,,,,,5d261fee347b0000014ab55a,53,2022-02-12_12h14.58.248,lexical_decision_task_DD_L3,2021.2.3,Win32,119.9904008,m,1,0.8099,,,,,,,,0.8099,1,0,13,13,0,1,1001,UTOPIA,m,,,,,,,,,,,,,,,,,,,,,,,,,,,,,,,,,,,,,,,,,,,,,,,,,,,,,,,,,,,,,,,,,,
,,,,,,,,,,,,,,,,,5d261fee347b0000014ab55a,53,2022-02-12_12h14.58.248,lexical_decision_task_DD_L3,2021.2.3,Win32,119.9904008,z,1,0.8134,,,,,,,,0.8134,1,0,14,14,11,1,1001,RASHET,z,,,,,,,,,,,,,,,,,,,,,,,,,,,,,,,,,,,,,,,,,,,,,,,,,,,,,,,,,,,,,,,,,,
,,,,,,,,,,,,,,,,,5d261fee347b0000014ab55a,53,2022-02-12_12h14.58.248,lexical_decision_task_DD_L3,2021.2.3,Win32,119.9904008,m,1,0.8824,,,,,,,,0.8824,1,0,15,15,2,1,1001,ALMOND,m,,,,,,,,,,,,,,,,,,,,,,,,,,,,,,,,,,,,,,,,,,,,,,,,,,,,,,,,,,,,,,,,,,
space,0.028703704,-0.37962963,0,0,0,,,,,,,1,end_of_practice,"You have completed the practice trials. During the experimental trials, you will not receive feedback. 
Before you begin, please ensure that you are in a comfortable and quiet location and will not be disturbed for about 15 minutes, as we cannot use your data if you do not complete all the trials. 
 When you are ready to start the experimental trials, please press space or touch the button below.",,,5d261fee347b0000014ab55a,53,2022-02-12_12h14.58.248,lexical_decision_task_DD_L3,2021.2.3,Win32,119.9904008,,,,,,,,,,,,,,,,,,,,,5.169,0,0,0,0,1,,,,,,,,,,,,,,,,,,,,,,,,,,,,,,,,,,,,,,,,,,,,,,,,,,,,,,,,,,,,
,,,,,,,,,,,,,,,,,5d261fee347b0000014ab55a,53,2022-02-12_12h14.58.248,lexical_decision_task_DD_L3,2021.2.3,Win32,119.9904008,,,,,,,,,,,3.2016,0,,,,,,,,,,,,,,,m,0,3.2016,,,,,,,,0.028703704,-0.37962963,0,0,0,,0,0,0,148,1,JOMS,HB,old,z,./images/JOMSHB.png,,,,,,,,,,,,,,,,,,,,,,,,,,,,,,,,,,
,,,,,,,,,,,,,,,,,5d261fee347b0000014ab55a,53,2022-02-12_12h14.58.248,lexical_decision_task_DD_L3,2021.2.3,Win32,119.9904008,,,,,,,,,,,0.7494,1,,,,,,,,,,,,,,,m,1,0.7494,,,,,,,,0.028703704,-0.37962963,0,0,0,,0,1,1,9,1,RHINO,LB,old,m,./images/RHINOLB.png,,,,,,,,,,,,,,,,,,,,,,,,,,,,,,,,,,
,,,,,,,,,,,,,,,,,5d261fee347b0000014ab55a,53,2022-02-12_12h14.58.248,lexical_decision_task_DD_L3,2021.2.3,Win32,119.9904008,,,,,,,,,,,1.5234,1,,,,,,,,,,,,,,,z,1,1.5234,,,,,,,,0.028703704,-0.37962963,0,0,0,,0,2,2,160,1,VEETS,HB,old,z,./images/VEETSHB.png,,,,,,,,,,,,,,,,,,,,,,,,,,,,,,,,,,
,,,,,,,,,,,,,,,,,5d261fee347b0000014ab55a,53,2022-02-12_12h14.58.248,lexical_decision_task_DD_L3,2021.2.3,Win32,119.9904008,,,,,,,,,,,1.1491,1,,,,,,,,,,,,,,,m,1,1.1491,,,,,,,,0.028703704,-0.37962963,0,0,0,,0,3,3,62,1,PURSE,HB,old,m,./images/PURSEHB.png,,,,,,,,,,,,,,,,,,,,,,,,,,,,,,,,,,
,,,,,,,,,,,,,,,,,5d261fee347b0000014ab55a,53,2022-02-12_12h14.58.248,lexical_decision_task_DD_L3,2021.2.3,Win32,119.9904008,,,,,,,,,,,0.9441,1,,,,,,,,,,,,,,,m,1,0.9441,,,,,,,,0.028703704,-0.37962963,0,0,0,,0,4,4,75,1,GRAIN,LB,old,m,./images/GRAINLB.png,,,,,,,,,,,,,,,,,,,,,,,,,,,,,,,,,,
,,,,,,,,,,,,,,,,,5d261fee347b0000014ab55a,53,2022-02-12_12h14.58.248,lexical_decision_task_DD_L3,2021.2.3,Win32,119.9904008,,,,,,,,,,,1.1141,1,,,,,,,,,,,,,,,m,1,1.1141,,,,,,,,0.028703704,-0.37962963,0,0,0,,0,5,5,32,1,BARREL,HB,old,m,./images/BARRELHB.png,,,,,,,,,,,,,,,,,,,,,,,,,,,,,,,,,,
,,,,,,,,,,,,,,,,,5d261fee347b0000014ab55a,53,2022-02-12_12h14.58.248,lexical_decision_task_DD_L3,2021.2.3,Win32,119.9904008,,,,,,,,,,,1.3258,1,,,,,,,,,,,,,,,z,1,1.3258,,,,,,,,0.028703704,-0.37962963,0,0,0,,0,6,6,124,1,TUNCH,HB,old,z,./images/TUNCHHB.png,,,,,,,,,,,,,,,,,,,,,,,,,,,,,,,,,,
,,,,,,,,,,,,,,,,,5d261fee347b0000014ab55a,53,2022-02-12_12h14.58.248,lexical_decision_task_DD_L3,2021.2.3,Win32,119.9904008,,,,,,,,,,,2.7011,1,,,,,,,,,,,,,,,m,1,2.7011,,,,,,,,0.028703704,-0.37962963,0,0,0,,0,7,7,17,1,SKIING,HB,old,m,./images/SKIINGHB.png,,,,,,,,,,,,,,,,,,,,,,,,,,,,,,,,,,
,,,,,,,,,,,,,,,,,5d261fee347b0000014ab55a,53,2022-02-12_12h14.58.248,lexical_decision_task_DD_L3,2021.2.3,Win32,119.9904008,,,,,,,,,,,1.4599,1,,,,,,,,,,,,,,,z,1,1.4599,,,,,,,,0.028703704,-0.37962963,0,0,0,,0,8,8,94,1,BLANS,HB,old,z,./images/BLANSHB.png,,,,,,,,,,,,,,,,,,,,,,,,,,,,,,,,,,
,,,,,,,,,,,,,,,,,5d261fee347b0000014ab55a,53,2022-02-12_12h14.58.248,lexical_decision_task_DD_L3,2021.2.3,Win32,119.9904008,,,,,,,,,,,1.2042,1,,,,,,,,,,,,,,,z,1,1.2042,,,,,,,,0.028703704,-0.37962963,0,0,0,,0,9,9,96,1,KEAMS,C,old,z,./images/KEAMS.png,,,,,,,,,,,,,,,,,,,,,,,,,,,,,,,,,,
,,,,,,,,,,,,,,,,,5d261fee347b0000014ab55a,53,2022-02-12_12h14.58.248,lexical_decision_task_DD_L3,2021.2.3,Win32,119.9904008,,,,,,,,,,,1.0875,1,,,,,,,,,,,,,,,z,1,1.0875,,,,,,,,0.028703704,-0.37962963,0,0,0,,0,10,10,122,1,BLOOT,LB,old,z,./images/BLOOTLB.png,,,,,,,,,,,,,,,,,,,,,,,,,,,,,,,,,,
,,,,,,,,,,,,,,,,,5d261fee347b0000014ab55a,53,2022-02-12_12h14.58.248,lexical_decision_task_DD_L3,2021.2.3,Win32,119.9904008,,,,,,,,,,,1.0037,1,,,,,,,,,,,,,,,m,1,1.0037,,,,,,,,0.028703704,-0.37962963,0,0,0,,0,11,11,20,1,CRADLE,HB,old,m,./images/CRADLEHB.png,,,,,,,,,,,,,,,,,,,,,,,,,,,,,,,,,,
,,,,,,,,,,,,,,,,,5d261fee347b0000014ab55a,53,2022-02-12_12h14.58.248,lexical_decision_task_DD_L3,2021.2.3,Win32,119.9904008,,,,,,,,,,,0.7998,1,,,,,,,,,,,,,,,z,1,0.7998,,,,,,,,0.028703704,-0.37962963,0,0,0,,0,12,12,125,1,MOOKY,LB,old,z,./images/MOOKYLB.png,,,,,,,,,,,,,,,,,,,,,,,,,,,,,,,,,,
,,,,,,,,,,,,,,,,,5d261fee347b0000014ab55a,53,2022-02-12_12h14.58.248,lexical_decision_task_DD_L3,2021.2.3,Win32,119.9904008,,,,,,,,,,,0.7614,0,,,,,,,,,,,,,,,m,0,0.7614,,,,,,,,0.028703704,-0.37962963,0,0,0,,0,13,13,128,1,GRIFT,LB,old,z,./images/GRIFTLB.png,,,,,,,,,,,,,,,,,,,,,,,,,,,,,,,,,,
,,,,,,,,,,,,,,,,,5d261fee347b0000014ab55a,53,2022-02-12_12h14.58.248,lexical_decision_task_DD_L3,2021.2.3,Win32,119.9904008,,,,,,,,,,,0.9167,1,,,,,,,,,,,,,,,m,1,0.9167,,,,,,,,0.028703704,-0.37962963,0,0,0,,0,14,14,37,1,BIRTH,C,old,m,./images/BIRTH.png,,,,,,,,,,,,,,,,,,,,,,,,,,,,,,,,,,
,,,,,,,,,,,,,,,,,5d261fee347b0000014ab55a,53,2022-02-12_12h14.58.248,lexical_decision_task_DD_L3,2021.2.3,Win32,119.9904008,,,,,,,,,,,0.6733,1,,,,,,,,,,,,,,,m,1,0.6733,,,,,,,,0.028703704,-0.37962963,0,0,0,,0,15,15,79,1,CRUST,C,old,m,./images/CRUST.png,,,,,,,,,,,,,,,,,,,,,,,,,,,,,,,,,,
,,,,,,,,,,,,,,,,,5d261fee347b0000014ab55a,53,2022-02-12_12h14.58.248,lexical_decision_task_DD_L3,2021.2.3,Win32,119.9904008,,,,,,,,,,,2.4004,1,,,,,,,,,,,,,,,z,1,2.4004,,,,,,,,0.028703704,-0.37962963,0,0,0,,0,16,16,100,1,DRIBS,HB,old,z,./images/DRIBSHB.png,,,,,,,,,,,,,,,,,,,,,,,,,,,,,,,,,,
,,,,,,,,,,,,,,,,,5d261fee347b0000014ab55a,53,2022-02-12_12h14.58.248,lexical_decision_task_DD_L3,2021.2.3,Win32,119.9904008,,,,,,,,,,,0.8836,1,,,,,,,,,,,,,,,z,1,0.8836,,,,,,,,0.028703704,-0.37962963,0,0,0,,0,17,17,146,1,MOOST,LB,old,z,./images/MOOSTLB.png,,,,,,,,,,,,,,,,,,,,,,,,,,,,,,,,,,
,,,,,,,,,,,,,,,,,5d261fee347b0000014ab55a,53,2022-02-12_12h14.58.248,lexical_decision_task_DD_L3,2021.2.3,Win32,119.9904008,,,,,,,,,,,1.1346,1,,,,,,,,,,,,,,,z,1,1.1346,,,,,,,,0.028703704,-0.37962963,0,0,0,,0,18,18,93,1,SMONE,C,old,z,./images/SMONE.png,,,,,,,,,,,,,,,,,,,,,,,,,,,,,,,,,,
,,,,,,,,,,,,,,,,,5d261fee347b0000014ab55a,53,2022-02-12_12h14.58.248,lexical_decision_task_DD_L3,2021.2.3,Win32,119.9904008,,,,,,,,,,,0.7377,1,,,,,,,,,,,,,,,m,1,0.7377,,,,,,,,0.028703704,-0.37962963,0,0,0,,0,19,19,34,1,CANYON,C,old,m,./images/CANYON.png,,,,,,,,,,,,,,,,,,,,,,,,,,,,,,,,,,
,,,,,,,,,,,,,,,,,5d261fee347b0000014ab55a,53,2022-02-12_12h14.58.248,lexical_decision_task_DD_L3,2021.2.3,Win32,119.9904008,,,,,,,,,,,1.1709,1,,,,,,,,,,,,,,,m,1,1.1709,,,,,,,,0.028703704,-0.37962963,0,0,0,,0,20,20,1,1,PLANK,C,old,m,./images/PLANK.png,,,,,,,,,,,,,,,,,,,,,,,,,,,,,,,,,,
,,,,,,,,,,,,,,,,,5d261fee347b0000014ab55a,53,2022-02-12_12h14.58.248,lexical_decision_task_DD_L3,2021.2.3,Win32,119.9904008,,,,,,,,,,,0.755,1,,,,,,,,,,,,,,,m,1,0.755,,,,,,,,0.028703704,-0.37962963,0,0,0,,0,21,21,76,1,INFANT,C,old,m,./images/INFANT.png,,,,,,,,,,,,,,,,,,,,,,,,,,,,,,,,,,
,,,,,,,,,,,,,,,,,5d261fee347b0000014ab55a,53,2022-02-12_12h14.58.248,lexical_decision_task_DD_L3,2021.2.3,Win32,119.9904008,,,,,,,,,,,0.6612,1,,,,,,,,,,,,,,,m,1,0.6612,,,,,,,,0.028703704,-0.37962963,0,0,0,,0,22,22,24,1,SCREW,LB,old,m,./images/SCREWLB.png,,,,,,,,,,,,,,,,,,,,,,,,,,,,,,,,,,
,,,,,,,,,,,,,,,,,5d261fee347b0000014ab55a,53,2022-02-12_12h14.58.248,lexical_decision_task_DD_L3,2021.2.3,Win32,119.9904008,,,,,,,,,,,1.3551,1,,,,,,,,,,,,,,,z,1,1.3551,,,,,,,,0.028703704,-0.37962963,0,0,0,,0,23,23,85,1,CHULK,HB,old,z,./images/CHULKHB.png,,,,,,,,,,,,,,,,,,,,,,,,,,,,,,,,,,
,,,,,,,,,,,,,,,,,5d261fee347b0000014ab55a,53,2022-02-12_12h14.58.248,lexical_decision_task_DD_L3,2021.2.3,Win32,119.9904008,,,,,,,,,,,0.8341,1,,,,,,,,,,,,,,,m,1,0.8341,,,,,,,,0.028703704,-0.37962963,0,0,0,,0,24,24,6,1,SQUARE,LB,old,m,./images/SQUARELB.png,,,,,,,,,,,,,,,,,,,,,,,,,,,,,,,,,,
,,,,,,,,,,,,,,,,,5d261fee347b0000014ab55a,53,2022-02-12_12h14.58.248,lexical_decision_task_DD_L3,2021.2.3,Win32,119.9904008,,,,,,,,,,,0.9367,1,,,,,,,,,,,,,,,z,1,0.9367,,,,,,,,0.028703704,-0.37962963,0,0,0,,0,25,25,165,1,TROWN,C,old,z,./images/TROWN.png,,,,,,,,,,,,,,,,,,,,,,,,,,,,,,,,,,
,,,,,,,,,,,,,,,,,5d261fee347b0000014ab55a,53,2022-02-12_12h14.58.248,lexical_decision_task_DD_L3,2021.2.3,Win32,119.9904008,,,,,,,,,,,0.7753,1,,,,,,,,,,,,,,,m,1,0.7753,,,,,,,,0.028703704,-0.37962963,0,0,0,,0,26,26,60,1,TWINS,LB,old,m,./images/TWINSLB.png,,,,,,,,,,,,,,,,,,,,,,,,,,,,,,,,,,
,,,,,,,,,,,,,,,,,5d261fee347b0000014ab55a,53,2022-02-12_12h14.58.248,lexical_decision_task_DD_L3,2021.2.3,Win32,119.9904008,,,,,,,,,,,0.8351,1,,,,,,,,,,,,,,,z,1,0.8351,,,,,,,,0.028703704,-0.37962963,0,0,0,,0,27,27,114,1,RIKES,C,old,z,./images/RIKES.png,,,,,,,,,,,,,,,,,,,,,,,,,,,,,,,,,,
,,,,,,,,,,,,,,,,,5d261fee347b0000014ab55a,53,2022-02-12_12h14.58.248,lexical_decision_task_DD_L3,2021.2.3,Win32,119.9904008,,,,,,,,,,,0.9234,1,,,,,,,,,,,,,,,m,1,0.9234,,,,,,,,0.028703704,-0.37962963,0,0,0,,0,28,28,25,1,WRIST,C,old,m,./images/WRIST.png,,,,,,,,,,,,,,,,,,,,,,,,,,,,,,,,,,
,,,,,,,,,,,,,,,,,5d261fee347b0000014ab55a,53,2022-02-12_12h14.58.248,lexical_decision_task_DD_L3,2021.2.3,Win32,119.9904008,,,,,,,,,,,0.6511,1,,,,,,,,,,,,,,,m,1,0.6511,,,,,,,,0.028703704,-0.37962963,0,0,0,,0,29,29,18,1,JAGUAR,LB,old,m,./images/JAGUARLB.png,,,,,,,,,,,,,,,,,,,,,,,,,,,,,,,,,,
,,,,,,,,,,,,,,,,,5d261fee347b0000014ab55a,53,2022-02-12_12h14.58.248,lexical_decision_task_DD_L3,2021.2.3,Win32,119.9904008,,,,,,,,,,,0.6107,1,,,,,,,,,,,,,,,m,1,0.6107,,,,,,,,0.028703704,-0.37962963,0,0,0,,0,30,30,43,1,MOSQUE,C,old,m,./images/MOSQUE.png,,,,,,,,,,,,,,,,,,,,,,,,,,,,,,,,,,
,,,,,,,,,,,,,,,,,5d261fee347b0000014ab55a,53,2022-02-12_12h14.58.248,lexical_decision_task_DD_L3,2021.2.3,Win32,119.9904008,,,,,,,,,,,0.9841,1,,,,,,,,,,,,,,,z,1,0.9841,,,,,,,,0.028703704,-0.37962963,0,0,0,,0,31,31,104,1,GITTY,LB,old,z,./images/GITTYLB.png,,,,,,,,,,,,,,,,,,,,,,,,,,,,,,,,,,
,,,,,,,,,,,,,,,,,5d261fee347b0000014ab55a,53,2022-02-12_12h14.58.248,lexical_decision_task_DD_L3,2021.2.3,Win32,119.9904008,,,,,,,,,,,1.0666,1,,,,,,,,,,,,,,,z,1,1.0666,,,,,,,,0.028703704,-0.37962963,0,0,0,,0,32,32,86,1,AIFED,LB,old,z,./images/AIFEDLB.png,,,,,,,,,,,,,,,,,,,,,,,,,,,,,,,,,,
,,,,,,,,,,,,,,,,,5d261fee347b0000014ab55a,53,2022-02-12_12h14.58.248,lexical_decision_task_DD_L3,2021.2.3,Win32,119.9904008,,,,,,,,,,,1.3138,1,,,,,,,,,,,,,,,z,1,1.3138,,,,,,,,0.028703704,-0.37962963,0,0,0,,0,33,33,140,1,DOVET,LB,old,z,./images/DOVETLB.png,,,,,,,,,,,,,,,,,,,,,,,,,,,,,,,,,,
,,,,,,,,,,,,,,,,,5d261fee347b0000014ab55a,53,2022-02-12_12h14.58.248,lexical_decision_task_DD_L3,2021.2.3,Win32,119.9904008,,,,,,,,,,,3.1093,1,,,,,,,,,,,,,,,z,1,3.1093,,,,,,,,0.028703704,-0.37962963,0,0,0,,0,34,34,144,1,NAIRY,C,old,z,./images/NAIRY.png,,,,,,,,,,,,,,,,,,,,,,,,,,,,,,,,,,
,,,,,,,,,,,,,,,,,5d261fee347b0000014ab55a,53,2022-02-12_12h14.58.248,lexical_decision_task_DD_L3,2021.2.3,Win32,119.9904008,,,,,,,,,,,2.5719,1,,,,,,,,,,,,,,,m,1,2.5719,,,,,,,,0.028703704,-0.37962963,0,0,0,,0,35,35,71,1,PIMPLE,HB,old,m,./images/PIMPLEHB.png,,,,,,,,,,,,,,,,,,,,,,,,,,,,,,,,,,
,,,,,,,,,,,,,,,,,5d261fee347b0000014ab55a,53,2022-02-12_12h14.58.248,lexical_decision_task_DD_L3,2021.2.3,Win32,119.9904008,,,,,,,,,,,1.3633,1,,,,,,,,,,,,,,,m,1,1.3633,,,,,,,,0.028703704,-0.37962963,0,0,0,,0,36,36,47,1,BERRY,HB,old,m,./images/BERRYHB.png,,,,,,,,,,,,,,,,,,,,,,,,,,,,,,,,,,
,,,,,,,,,,,,,,,,,5d261fee347b0000014ab55a,53,2022-02-12_12h14.58.248,lexical_decision_task_DD_L3,2021.2.3,Win32,119.9904008,,,,,,,,,,,0.7343,1,,,,,,,,,,,,,,,m,1,0.7343,,,,,,,,0.028703704,-0.37962963,0,0,0,,0,37,37,51,1,ONION,LB,old,m,./images/ONIONLB.png,,,,,,,,,,,,,,,,,,,,,,,,,,,,,,,,,,
,,,,,,,,,,,,,,,,,5d261fee347b0000014ab55a,53,2022-02-12_12h14.58.248,lexical_decision_task_DD_L3,2021.2.3,Win32,119.9904008,,,,,,,,,,,0.9477,1,,,,,,,,,,,,,,,z,1,0.9477,,,,,,,,0.028703704,-0.37962963,0,0,0,,0,38,38,107,1,FASKS,LB,old,z,./images/FASKSLB.png,,,,,,,,,,,,,,,,,,,,,,,,,,,,,,,,,,
,,,,,,,,,,,,,,,,,5d261fee347b0000014ab55a,53,2022-02-12_12h14.58.248,lexical_decision_task_DD_L3,2021.2.3,Win32,119.9904008,,,,,,,,,,,3.2512,1,,,,,,,,,,,,,,,z,1,3.2512,,,,,,,,0.028703704,-0.37962963,0,0,0,,0,39,39,166,1,SHORY,HB,old,z,./images/SHORYHB.png,,,,,,,,,,,,,,,,,,,,,,,,,,,,,,,,,,
,,,,,,,,,,,,,,,,,5d261fee347b0000014ab55a,53,2022-02-12_12h14.58.248,lexical_decision_task_DD_L3,2021.2.3,Win32,119.9904008,,,,,,,,,,,0.7779,1,,,,,,,,,,,,,,,m,1,0.7779,,,,,,,,0.028703704,-0.37962963,0,0,0,,0,40,40,27,1,ATTIC,LB,old,m,./images/ATTICLB.png,,,,,,,,,,,,,,,,,,,,,,,,,,,,,,,,,,
,,,,,,,,,,,,,,,,,5d261fee347b0000014ab55a,53,2022-02-12_12h14.58.248,lexical_decision_task_DD_L3,2021.2.3,Win32,119.9904008,,,,,,,,,,,0.9588,1,,,,,,,,,,,,,,,z,1,0.9588,,,,,,,,0.028703704,-0.37962963,0,0,0,space,0,41,41,155,1,CANGY,LB,old,z,./images/CANGYLB.png,4.0605,,,,,,,,,,,,,,,,,,,,,,,,,,,,,,,,,
,,,,,,,,,,,,,,,,,5d261fee347b0000014ab55a,53,2022-02-12_12h14.58.248,lexical_decision_task_DD_L3,2021.2.3,Win32,119.9904008,,,,,,,,,,,0.7216,1,,,,,,,,,,,,,,,m,1,0.7216,,,,,,,,0.028703704,-0.37962963,0,0,0,,0,42,42,21,1,KIDNEY,LB,old,m,./images/KIDNEYLB.png,,,,,,,,,,,,,,,,,,,,,,,,,,,,,,,,,,
,,,,,,,,,,,,,,,,,5d261fee347b0000014ab55a,53,2022-02-12_12h14.58.248,lexical_decision_task_DD_L3,2021.2.3,Win32,119.9904008,,,,,,,,,,,0.7167,1,,,,,,,,,,,,,,,z,1,0.7167,,,,,,,,0.028703704,-0.37962963,0,0,0,,0,43,43,131,1,NACES,LB,old,z,./images/NACESLB.png,,,,,,,,,,,,,,,,,,,,,,,,,,,,,,,,,,
,,,,,,,,,,,,,,,,,5d261fee347b0000014ab55a,53,2022-02-12_12h14.58.248,lexical_decision_task_DD_L3,2021.2.3,Win32,119.9904008,,,,,,,,,,,0.6705,1,,,,,,,,,,,,,,,z,1,0.6705,,,,,,,,0.028703704,-0.37962963,0,0,0,,0,44,44,111,1,HOSSE,C,old,z,./images/HOSSE.png,,,,,,,,,,,,,,,,,,,,,,,,,,,,,,,,,,
,,,,,,,,,,,,,,,,,5d261fee347b0000014ab55a,53,2022-02-12_12h14.58.248,lexical_decision_task_DD_L3,2021.2.3,Win32,119.9904008,,,,,,,,,,,0.6879,1,,,,,,,,,,,,,,,z,1,0.6879,,,,,,,,0.028703704,-0.37962963,0,0,0,,0,45,45,150,1,NOOLS,C,old,z,./images/NOOLS.png,,,,,,,,,,,,,,,,,,,,,,,,,,,,,,,,,,
,,,,,,,,,,,,,,,,,5d261fee347b0000014ab55a,53,2022-02-12_12h14.58.248,lexical_decision_task_DD_L3,2021.2.3,Win32,119.9904008,,,,,,,,,,,1.1328,1,,,,,,,,,,,,,,,z,1,1.1328,,,,,,,,0.028703704,-0.37962963,0,0,0,,0,46,46,120,1,RINED,C,old,z,./images/RINED.png,,,,,,,,,,,,,,,,,,,,,,,,,,,,,,,,,,
,,,,,,,,,,,,,,,,,5d261fee347b0000014ab55a,53,2022-02-12_12h14.58.248,lexical_decision_task_DD_L3,2021.2.3,Win32,119.9904008,,,,,,,,,,,0.7389,1,,,,,,,,,,,,,,,z,1,0.7389,,,,,,,,0.028703704,-0.37962963,0,0,0,,0,47,47,126,1,GUELS,C,old,z,./images/GUELS.png,,,,,,,,,,,,,,,,,,,,,,,,,,,,,,,,,,
,,,,,,,,,,,,,,,,,5d261fee347b0000014ab55a,53,2022-02-12_12h14.58.248,lexical_decision_task_DD_L3,2021.2.3,Win32,119.9904008,,,,,,,,,,,0.7067,1,,,,,,,,,,,,,,,z,1,0.7067,,,,,,,,0.028703704,-0.37962963,0,0,0,,0,48,48,123,1,SEDGE,C,old,z,./images/SEDGE.png,,,,,,,,,,,,,,,,,,,,,,,,,,,,,,,,,,
,,,,,,,,,,,,,,,,,5d261fee347b0000014ab55a,53,2022-02-12_12h14.58.248,lexical_decision_task_DD_L3,2021.2.3,Win32,119.9904008,,,,,,,,,,,0.7893,1,,,,,,,,,,,,,,,z,1,0.7893,,,,,,,,0.028703704,-0.37962963,0,0,0,,0,49,49,152,1,FRAIN,LB,old,z,./images/FRAINLB.png,,,,,,,,,,,,,,,,,,,,,,,,,,,,,,,,,,
,,,,,,,,,,,,,,,,,5d261fee347b0000014ab55a,53,2022-02-12_12h14.58.248,lexical_decision_task_DD_L3,2021.2.3,Win32,119.9904008,,,,,,,,,,,0.9181,1,,,,,,,,,,,,,,,z,1,0.9181,,,,,,,,0.028703704,-0.37962963,0,0,0,,0,50,50,167,1,ZONET,LB,old,z,./images/ZONETLB.png,,,,,,,,,,,,,,,,,,,,,,,,,,,,,,,,,,
,,,,,,,,,,,,,,,,,5d261fee347b0000014ab55a,53,2022-02-12_12h14.58.248,lexical_decision_task_DD_L3,2021.2.3,Win32,119.9904008,,,,,,,,,,,0.8515,1,,,,,,,,,,,,,,,z,1,0.8515,,,,,,,,0.028703704,-0.37962963,0,0,0,,0,51,51,95,1,HANTY,LB,old,z,./images/HANTYLB.png,,,,,,,,,,,,,,,,,,,,,,,,,,,,,,,,,,
,,,,,,,,,,,,,,,,,5d261fee347b0000014ab55a,53,2022-02-12_12h14.58.248,lexical_decision_task_DD_L3,2021.2.3,Win32,119.9904008,,,,,,,,,,,0.7211,1,,,,,,,,,,,,,,,m,1,0.7211,,,,,,,,0.028703704,-0.37962963,0,0,0,,0,52,52,39,1,SHELF,LB,old,m,./images/SHELFLB.png,,,,,,,,,,,,,,,,,,,,,,,,,,,,,,,,,,
,,,,,,,,,,,,,,,,,5d261fee347b0000014ab55a,53,2022-02-12_12h14.58.248,lexical_decision_task_DD_L3,2021.2.3,Win32,119.9904008,,,,,,,,,,,1.14,1,,,,,,,,,,,,,,,z,1,1.14,,,,,,,,0.028703704,-0.37962963,0,0,0,,0,53,53,164,1,SGREW,LB,old,z,./images/SGREWLB.png,,,,,,,,,,,,,,,,,,,,,,,,,,,,,,,,,,
,,,,,,,,,,,,,,,,,5d261fee347b0000014ab55a,53,2022-02-12_12h14.58.248,lexical_decision_task_DD_L3,2021.2.3,Win32,119.9904008,,,,,,,,,,,1.3931,1,,,,,,,,,,,,,,,z,1,1.3931,,,,,,,,0.028703704,-0.37962963,0,0,0,,0,54,54,121,1,CEERS,HB,old,z,./images/CEERSHB.png,,,,,,,,,,,,,,,,,,,,,,,,,,,,,,,,,,
,,,,,,,,,,,,,,,,,5d261fee347b0000014ab55a,53,2022-02-12_12h14.58.248,lexical_decision_task_DD_L3,2021.2.3,Win32,119.9904008,,,,,,,,,,,1.1726,1,,,,,,,,,,,,,,,m,1,1.1726,,,,,,,,0.028703704,-0.37962963,0,0,0,,0,55,55,65,1,FARMER,HB,old,m,./images/FARMERHB.png,,,,,,,,,,,,,,,,,,,,,,,,,,,,,,,,,,
,,,,,,,,,,,,,,,,,5d261fee347b0000014ab55a,53,2022-02-12_12h14.58.248,lexical_decision_task_DD_L3,2021.2.3,Win32,119.9904008,,,,,,,,,,,1.1854,1,,,,,,,,,,,,,,,z,1,1.1854,,,,,,,,0.028703704,-0.37962963,0,0,0,,0,56,56,162,1,LEICH,C,old,z,./images/LEICH.png,,,,,,,,,,,,,,,,,,,,,,,,,,,,,,,,,,
,,,,,,,,,,,,,,,,,5d261fee347b0000014ab55a,53,2022-02-12_12h14.58.248,lexical_decision_task_DD_L3,2021.2.3,Win32,119.9904008,,,,,,,,,,,0.8438,1,,,,,,,,,,,,,,,m,1,0.8438,,,,,,,,0.028703704,-0.37962963,0,0,0,,0,57,57,68,1,TORCH,HB,old,m,./images/TORCHHB.png,,,,,,,,,,,,,,,,,,,,,,,,,,,,,,,,,,
,,,,,,,,,,,,,,,,,5d261fee347b0000014ab55a,53,2022-02-12_12h14.58.248,lexical_decision_task_DD_L3,2021.2.3,Win32,119.9904008,,,,,,,,,,,2.6676,1,,,,,,,,,,,,,,,z,1,2.6676,,,,,,,,0.028703704,-0.37962963,0,0,0,,0,58,58,154,1,THINT,HB,old,z,./images/THINTHB.png,,,,,,,,,,,,,,,,,,,,,,,,,,,,,,,,,,
,,,,,,,,,,,,,,,,,5d261fee347b0000014ab55a,53,2022-02-12_12h14.58.248,lexical_decision_task_DD_L3,2021.2.3,Win32,119.9904008,,,,,,,,,,,0.8348,1,,,,,,,,,,,,,,,z,1,0.8348,,,,,,,,0.028703704,-0.37962963,0,0,0,,0,59,59,132,1,SCIFF,C,old,z,./images/SCIFF.png,,,,,,,,,,,,,,,,,,,,,,,,,,,,,,,,,,
,,,,,,,,,,,,,,,,,5d261fee347b0000014ab55a,53,2022-02-12_12h14.58.248,lexical_decision_task_DD_L3,2021.2.3,Win32,119.9904008,,,,,,,,,,,1.1572,1,,,,,,,,,,,,,,,m,1,1.1572,,,,,,,,0.028703704,-0.37962963,0,0,0,,0,60,60,29,1,CRUMB,HB,old,m,./images/CRUMBHB.png,,,,,,,,,,,,,,,,,,,,,,,,,,,,,,,,,,
,,,,,,,,,,,,,,,,,5d261fee347b0000014ab55a,53,2022-02-12_12h14.58.248,lexical_decision_task_DD_L3,2021.2.3,Win32,119.9904008,,,,,,,,,,,0.8889,1,,,,,,,,,,,,,,,m,1,0.8889,,,,,,,,0.028703704,-0.37962963,0,0,0,,0,61,61,69,1,COOKER,LB,old,m,./images/COOKERLB.png,,,,,,,,,,,,,,,,,,,,,,,,,,,,,,,,,,
,,,,,,,,,,,,,,,,,5d261fee347b0000014ab55a,53,2022-02-12_12h14.58.248,lexical_decision_task_DD_L3,2021.2.3,Win32,119.9904008,,,,,,,,,,,0.7865,1,,,,,,,,,,,,,,,z,1,0.7865,,,,,,,,0.028703704,-0.37962963,0,0,0,,0,62,62,101,1,GLEET,LB,old,z,./images/GLEETLB.png,,,,,,,,,,,,,,,,,,,,,,,,,,,,,,,,,,
,,,,,,,,,,,,,,,,,5d261fee347b0000014ab55a,53,2022-02-12_12h14.58.248,lexical_decision_task_DD_L3,2021.2.3,Win32,119.9904008,,,,,,,,,,,0.8208,1,,,,,,,,,,,,,,,z,1,0.8208,,,,,,,,0.028703704,-0.37962963,0,0,0,,0,63,63,138,1,PLICE,C,old,z,./images/PLICE.png,,,,,,,,,,,,,,,,,,,,,,,,,,,,,,,,,,
,,,,,,,,,,,,,,,,,5d261fee347b0000014ab55a,53,2022-02-12_12h14.58.248,lexical_decision_task_DD_L3,2021.2.3,Win32,119.9904008,,,,,,,,,,,0.6914,1,,,,,,,,,,,,,,,m,1,0.6914,,,,,,,,0.028703704,-0.37962963,0,0,0,,0,64,64,0,1,TOMATO,LB,old,m,./images/TOMATOLB.png,,,,,,,,,,,,,,,,,,,,,,,,,,,,,,,,,,
,,,,,,,,,,,,,,,,,5d261fee347b0000014ab55a,53,2022-02-12_12h14.58.248,lexical_decision_task_DD_L3,2021.2.3,Win32,119.9904008,,,,,,,,,,,3.0129,1,,,,,,,,,,,,,,,z,1,3.0129,,,,,,,,0.028703704,-0.37962963,0,0,0,,0,65,65,151,1,TINKY,HB,old,z,./images/TINKYHB.png,,,,,,,,,,,,,,,,,,,,,,,,,,,,,,,,,,
,,,,,,,,,,,,,,,,,5d261fee347b0000014ab55a,53,2022-02-12_12h14.58.248,lexical_decision_task_DD_L3,2021.2.3,Win32,119.9904008,,,,,,,,,,,0.677,1,,,,,,,,,,,,,,,m,1,0.677,,,,,,,,0.028703704,-0.37962963,0,0,0,,0,66,66,66,1,SWEAT,LB,old,m,./images/SWEATLB.png,,,,,,,,,,,,,,,,,,,,,,,,,,,,,,,,,,
,,,,,,,,,,,,,,,,,5d261fee347b0000014ab55a,53,2022-02-12_12h14.58.248,lexical_decision_task_DD_L3,2021.2.3,Win32,119.9904008,,,,,,,,,,,0.5783,1,,,,,,,,,,,,,,,m,1,0.5783,,,,,,,,0.028703704,-0.37962963,0,0,0,,0,67,67,72,1,NOOSE,LB,old,m,./images/NOOSELB.png,,,,,,,,,,,,,,,,,,,,,,,,,,,,,,,,,,
,,,,,,,,,,,,,,,,,5d261fee347b0000014ab55a,53,2022-02-12_12h14.58.248,lexical_decision_task_DD_L3,2021.2.3,Win32,119.9904008,,,,,,,,,,,1.0062,1,,,,,,,,,,,,,,,m,1,1.0062,,,,,,,,0.028703704,-0.37962963,0,0,0,,0,68,68,44,1,LIZARD,HB,old,m,./images/LIZARDHB.png,,,,,,,,,,,,,,,,,,,,,,,,,,,,,,,,,,
,,,,,,,,,,,,,,,,,5d261fee347b0000014ab55a,53,2022-02-12_12h14.58.248,lexical_decision_task_DD_L3,2021.2.3,Win32,119.9904008,,,,,,,,,,,0.5361,1,,,,,,,,,,,,,,,m,1,0.5361,,,,,,,,0.028703704,-0.37962963,0,0,0,,0,69,69,49,1,DRUMS,C,old,m,./images/DRUMS.png,,,,,,,,,,,,,,,,,,,,,,,,,,,,,,,,,,
,,,,,,,,,,,,,,,,,5d261fee347b0000014ab55a,53,2022-02-12_12h14.58.248,lexical_decision_task_DD_L3,2021.2.3,Win32,119.9904008,,,,,,,,,,,0.9035,1,,,,,,,,,,,,,,,z,1,0.9035,,,,,,,,0.028703704,-0.37962963,0,0,0,,0,70,70,87,1,TRING,C,old,z,./images/TRING.png,,,,,,,,,,,,,,,,,,,,,,,,,,,,,,,,,,
,,,,,,,,,,,,,,,,,5d261fee347b0000014ab55a,53,2022-02-12_12h14.58.248,lexical_decision_task_DD_L3,2021.2.3,Win32,119.9904008,,,,,,,,,,,0.8135,1,,,,,,,,,,,,,,,m,1,0.8135,,,,,,,,0.028703704,-0.37962963,0,0,0,,0,71,71,58,1,BABOON,C,old,m,./images/BABOON.png,,,,,,,,,,,,,,,,,,,,,,,,,,,,,,,,,,
,,,,,,,,,,,,,,,,,5d261fee347b0000014ab55a,53,2022-02-12_12h14.58.248,lexical_decision_task_DD_L3,2021.2.3,Win32,119.9904008,,,,,,,,,,,1.4447,1,,,,,,,,,,,,,,,z,1,1.4447,,,,,,,,0.028703704,-0.37962963,0,0,0,,0,72,72,145,1,LAMEL,HB,old,z,./images/LAMELHB.png,,,,,,,,,,,,,,,,,,,,,,,,,,,,,,,,,,
,,,,,,,,,,,,,,,,,5d261fee347b0000014ab55a,53,2022-02-12_12h14.58.248,lexical_decision_task_DD_L3,2021.2.3,Win32,119.9904008,,,,,,,,,,,0.9029,1,,,,,,,,,,,,,,,z,1,0.9029,,,,,,,,0.028703704,-0.37962963,0,0,0,,0,73,73,161,1,BLAPS,LB,old,z,./images/BLAPSLB.png,,,,,,,,,,,,,,,,,,,,,,,,,,,,,,,,,,
,,,,,,,,,,,,,,,,,5d261fee347b0000014ab55a,53,2022-02-12_12h14.58.248,lexical_decision_task_DD_L3,2021.2.3,Win32,119.9904008,,,,,,,,,,,0.6204,1,,,,,,,,,,,,,,,m,1,0.6204,,,,,,,,0.028703704,-0.37962963,0,0,0,,0,74,74,67,1,SAILOR,C,old,m,./images/SAILOR.png,,,,,,,,,,,,,,,,,,,,,,,,,,,,,,,,,,
,,,,,,,,,,,,,,,,,5d261fee347b0000014ab55a,53,2022-02-12_12h14.58.248,lexical_decision_task_DD_L3,2021.2.3,Win32,119.9904008,,,,,,,,,,,0.6646,1,,,,,,,,,,,,,,,m,1,0.6646,,,,,,,,0.028703704,-0.37962963,0,0,0,,0,75,75,13,1,MOTOR,C,old,m,./images/MOTOR.png,,,,,,,,,,,,,,,,,,,,,,,,,,,,,,,,,,
,,,,,,,,,,,,,,,,,5d261fee347b0000014ab55a,53,2022-02-12_12h14.58.248,lexical_decision_task_DD_L3,2021.2.3,Win32,119.9904008,,,,,,,,,,,0.7913,1,,,,,,,,,,,,,,,z,1,0.7913,,,,,,,,0.028703704,-0.37962963,0,0,0,,0,76,76,116,1,BALGY,LB,old,z,./images/BALGYLB.png,,,,,,,,,,,,,,,,,,,,,,,,,,,,,,,,,,
,,,,,,,,,,,,,,,,,5d261fee347b0000014ab55a,53,2022-02-12_12h14.58.248,lexical_decision_task_DD_L3,2021.2.3,Win32,119.9904008,,,,,,,,,,,2.4946,1,,,,,,,,,,,,,,,z,1,2.4946,,,,,,,,0.028703704,-0.37962963,0,0,0,,0,77,77,103,1,FLORT,HB,old,z,./images/FLORTHB.png,,,,,,,,,,,,,,,,,,,,,,,,,,,,,,,,,,
,,,,,,,,,,,,,,,,,5d261fee347b0000014ab55a,53,2022-02-12_12h14.58.248,lexical_decision_task_DD_L3,2021.2.3,Win32,119.9904008,,,,,,,,,,,1.041,1,,,,,,,,,,,,,,,z,1,1.041,,,,,,,,0.028703704,-0.37962963,0,0,0,,0,78,78,129,1,PRANS,C,old,z,./images/PRANS.png,,,,,,,,,,,,,,,,,,,,,,,,,,,,,,,,,,
,,,,,,,,,,,,,,,,,5d261fee347b0000014ab55a,53,2022-02-12_12h14.58.248,lexical_decision_task_DD_L3,2021.2.3,Win32,119.9904008,,,,,,,,,,,0.7033,1,,,,,,,,,,,,,,,m,1,0.7033,,,,,,,,0.028703704,-0.37962963,0,0,0,,0,79,79,45,1,KITTEN,LB,old,m,./images/KITTENLB.png,,,,,,,,,,,,,,,,,,,,,,,,,,,,,,,,,,
,,,,,,,,,,,,,,,,,5d261fee347b0000014ab55a,53,2022-02-12_12h14.58.248,lexical_decision_task_DD_L3,2021.2.3,Win32,119.9904008,,,,,,,,,,,1.5607,1,,,,,,,,,,,,,,,z,1,1.5607,,,,,,,,0.028703704,-0.37962963,0,0,0,,0,80,80,88,1,GLUSH,HB,old,z,./images/GLUSHHB.png,,,,,,,,,,,,,,,,,,,,,,,,,,,,,,,,,,
,,,,,,,,,,,,,,,,,5d261fee347b0000014ab55a,53,2022-02-12_12h14.58.248,lexical_decision_task_DD_L3,2021.2.3,Win32,119.9904008,,,,,,,,,,,1.1537,1,,,,,,,,,,,,,,,z,1,1.1537,,,,,,,,0.028703704,-0.37962963,0,0,0,,0,81,81,99,1,BACKY,C,old,z,./images/BACKY.png,,,,,,,,,,,,,,,,,,,,,,,,,,,,,,,,,,
,,,,,,,,,,,,,,,,,5d261fee347b0000014ab55a,53,2022-02-12_12h14.58.248,lexical_decision_task_DD_L3,2021.2.3,Win32,119.9904008,,,,,,,,,,,0.6917,1,,,,,,,,,,,,,,,m,1,0.6917,,,,,,,,0.028703704,-0.37962963,0,0,0,,0,82,82,22,1,MELON,C,old,m,./images/MELON.png,,,,,,,,,,,,,,,,,,,,,,,,,,,,,,,,,,
,,,,,,,,,,,,,,,,,5d261fee347b0000014ab55a,53,2022-02-12_12h14.58.248,lexical_decision_task_DD_L3,2021.2.3,Win32,119.9904008,,,,,,,,,,,1.789,1,,,,,,,,,,,,,,,m,1,1.789,,,,,,,,0.028703704,-0.37962963,0,0,0,space,0,83,83,14,1,PICKLE,HB,old,m,./images/PICKLEHB.png,2.7635,,,,,,,,,,,,,,,,,,,,,,,,,,,,,,,,,
,,,,,,,,,,,,,,,,,5d261fee347b0000014ab55a,53,2022-02-12_12h14.58.248,lexical_decision_task_DD_L3,2021.2.3,Win32,119.9904008,,,,,,,,,,,1.5442,1,,,,,,,,,,,,,,,z,1,1.5442,,,,,,,,0.028703704,-0.37962963,0,0,0,,0,84,84,136,1,WERVE,HB,old,z,./images/WERVEHB.png,,,,,,,,,,,,,,,,,,,,,,,,,,,,,,,,,,
,,,,,,,,,,,,,,,,,5d261fee347b0000014ab55a,53,2022-02-12_12h14.58.248,lexical_decision_task_DD_L3,2021.2.3,Win32,119.9904008,,,,,,,,,,,0.8565,1,,,,,,,,,,,,,,,z,1,0.8565,,,,,,,,0.028703704,-0.37962963,0,0,0,,0,85,85,143,1,MONGS,LB,old,z,./images/MONGSLB.png,,,,,,,,,,,,,,,,,,,,,,,,,,,,,,,,,,
,,,,,,,,,,,,,,,,,5d261fee347b0000014ab55a,53,2022-02-12_12h14.58.248,lexical_decision_task_DD_L3,2021.2.3,Win32,119.9904008,,,,,,,,,,,0.7729,1,,,,,,,,,,,,,,,z,1,0.7729,,,,,,,,0.028703704,-0.37962963,0,0,0,,0,86,86,90,1,NEAST,C,old,z,./images/NEAST.png,,,,,,,,,,,,,,,,,,,,,,,,,,,,,,,,,,
,,,,,,,,,,,,,,,,,5d261fee347b0000014ab55a,53,2022-02-12_12h14.58.248,lexical_decision_task_DD_L3,2021.2.3,Win32,119.9904008,,,,,,,,,,,0.7528,1,,,,,,,,,,,,,,,z,1,0.7528,,,,,,,,0.028703704,-0.37962963,0,0,0,,0,87,87,119,1,PAFER,LB,old,z,./images/PAFERLB.png,,,,,,,,,,,,,,,,,,,,,,,,,,,,,,,,,,
,,,,,,,,,,,,,,,,,5d261fee347b0000014ab55a,53,2022-02-12_12h14.58.248,lexical_decision_task_DD_L3,2021.2.3,Win32,119.9904008,,,,,,,,,,,1.0071,1,,,,,,,,,,,,,,,m,1,1.0071,,,,,,,,0.028703704,-0.37962963,0,0,0,,0,88,88,23,1,WALRUS,HB,old,m,./images/WALRUSHB.png,,,,,,,,,,,,,,,,,,,,,,,,,,,,,,,,,,
,,,,,,,,,,,,,,,,,5d261fee347b0000014ab55a,53,2022-02-12_12h14.58.248,lexical_decision_task_DD_L3,2021.2.3,Win32,119.9904008,,,,,,,,,,,2.3879,1,,,,,,,,,,,,,,,z,1,2.3879,,,,,,,,0.028703704,-0.37962963,0,0,0,,0,89,89,84,1,HAXES,C,old,z,./images/HAXES.png,,,,,,,,,,,,,,,,,,,,,,,,,,,,,,,,,,
,,,,,,,,,,,,,,,,,5d261fee347b0000014ab55a,53,2022-02-12_12h14.58.248,lexical_decision_task_DD_L3,2021.2.3,Win32,119.9904008,,,,,,,,,,,1.2358,1,,,,,,,,,,,,,,,m,1,1.2358,,,,,,,,0.028703704,-0.37962963,0,0,0,,0,90,90,31,1,QUILL,C,old,m,./images/QUILL.png,,,,,,,,,,,,,,,,,,,,,,,,,,,,,,,,,,
,,,,,,,,,,,,,,,,,5d261fee347b0000014ab55a,53,2022-02-12_12h14.58.248,lexical_decision_task_DD_L3,2021.2.3,Win32,119.9904008,,,,,,,,,,,1.9331,1,,,,,,,,,,,,,,,z,1,1.9331,,,,,,,,0.028703704,-0.37962963,0,0,0,,0,91,91,115,1,MAWNS,HB,old,z,./images/MAWNSHB.png,,,,,,,,,,,,,,,,,,,,,,,,,,,,,,,,,,
,,,,,,,,,,,,,,,,,5d261fee347b0000014ab55a,53,2022-02-12_12h14.58.248,lexical_decision_task_DD_L3,2021.2.3,Win32,119.9904008,,,,,,,,,,,1.7716,1,,,,,,,,,,,,,,,z,1,1.7716,,,,,,,,0.028703704,-0.37962963,0,0,0,,0,92,92,133,1,POWDY,HB,old,z,./images/POWDYHB.png,,,,,,,,,,,,,,,,,,,,,,,,,,,,,,,,,,
,,,,,,,,,,,,,,,,,5d261fee347b0000014ab55a,53,2022-02-12_12h14.58.248,lexical_decision_task_DD_L3,2021.2.3,Win32,119.9904008,,,,,,,,,,,0.844,1,,,,,,,,,,,,,,,z,1,0.844,,,,,,,,0.028703704,-0.37962963,0,0,0,,0,93,93,105,1,MOKER,C,old,z,./images/MOKER.png,,,,,,,,,,,,,,,,,,,,,,,,,,,,,,,,,,
,,,,,,,,,,,,,,,,,5d261fee347b0000014ab55a,53,2022-02-12_12h14.58.248,lexical_decision_task_DD_L3,2021.2.3,Win32,119.9904008,,,,,,,,,,,2.7067,1,,,,,,,,,,,,,,,m,1,2.7067,,,,,,,,0.028703704,-0.37962963,0,0,0,,0,94,94,16,1,PENCE,C,old,m,./images/PENCE.png,,,,,,,,,,,,,,,,,,,,,,,,,,,,,,,,,,
,,,,,,,,,,,,,,,,,5d261fee347b0000014ab55a,53,2022-02-12_12h14.58.248,lexical_decision_task_DD_L3,2021.2.3,Win32,119.9904008,,,,,,,,,,,0.9477,1,,,,,,,,,,,,,,,z,1,0.9477,,,,,,,,0.028703704,-0.37962963,0,0,0,,0,95,95,153,1,CLUPS,C,old,z,./images/CLUPS.png,,,,,,,,,,,,,,,,,,,,,,,,,,,,,,,,,,
,,,,,,,,,,,,,,,,,5d261fee347b0000014ab55a,53,2022-02-12_12h14.58.248,lexical_decision_task_DD_L3,2021.2.3,Win32,119.9904008,,,,,,,,,,,0.9367,1,,,,,,,,,,,,,,,m,1,0.9367,,,,,,,,0.028703704,-0.37962963,0,0,0,,0,96,96,5,1,PASTA,HB,old,m,./images/PASTAHB.png,,,,,,,,,,,,,,,,,,,,,,,,,,,,,,,,,,
,,,,,,,,,,,,,,,,,5d261fee347b0000014ab55a,53,2022-02-12_12h14.58.248,lexical_decision_task_DD_L3,2021.2.3,Win32,119.9904008,,,,,,,,,,,2.2591,1,,,,,,,,,,,,,,,z,1,2.2591,,,,,,,,0.028703704,-0.37962963,0,0,0,,0,97,97,91,1,SHENS,HB,old,z,./images/SHENSHB.png,,,,,,,,,,,,,,,,,,,,,,,,,,,,,,,,,,
,,,,,,,,,,,,,,,,,5d261fee347b0000014ab55a,53,2022-02-12_12h14.58.248,lexical_decision_task_DD_L3,2021.2.3,Win32,119.9904008,,,,,,,,,,,0.8415,1,,,,,,,,,,,,,,,z,1,0.8415,,,,,,,,0.028703704,-0.37962963,0,0,0,,0,98,98,117,1,STEEG,C,old,z,./images/STEEG.png,,,,,,,,,,,,,,,,,,,,,,,,,,,,,,,,,,
,,,,,,,,,,,,,,,,,5d261fee347b0000014ab55a,53,2022-02-12_12h14.58.248,lexical_decision_task_DD_L3,2021.2.3,Win32,119.9904008,,,,,,,,,,,0.6968,1,,,,,,,,,,,,,,,m,1,0.6968,,,,,,,,0.028703704,-0.37962963,0,0,0,,0,99,99,3,1,FINGER,LB,old,m,./images/FINGERLB.png,,,,,,,,,,,,,,,,,,,,,,,,,,,,,,,,,,
,,,,,,,,,,,,,,,,,5d261fee347b0000014ab55a,53,2022-02-12_12h14.58.248,lexical_decision_task_DD_L3,2021.2.3,Win32,119.9904008,,,,,,,,,,,0.8042,1,,,,,,,,,,,,,,,z,1,0.8042,,,,,,,,0.028703704,-0.37962963,0,0,0,,0,100,100,108,1,GRUET,C,old,z,./images/GRUET.png,,,,,,,,,,,,,,,,,,,,,,,,,,,,,,,,,,
,,,,,,,,,,,,,,,,,5d261fee347b0000014ab55a,53,2022-02-12_12h14.58.248,lexical_decision_task_DD_L3,2021.2.3,Win32,119.9904008,,,,,,,,,,,2.0792,1,,,,,,,,,,,,,,,m,1,2.0792,,,,,,,,0.028703704,-0.37962963,0,0,0,,0,101,101,50,1,MALLET,HB,old,m,./images/MALLETHB.png,,,,,,,,,,,,,,,,,,,,,,,,,,,,,,,,,,
,,,,,,,,,,,,,,,,,5d261fee347b0000014ab55a,53,2022-02-12_12h14.58.248,lexical_decision_task_DD_L3,2021.2.3,Win32,119.9904008,,,,,,,,,,,1.118,1,,,,,,,,,,,,,,,z,1,1.118,,,,,,,,0.028703704,-0.37962963,0,0,0,,0,102,102,113,1,LINEW,LB,old,z,./images/LINEWLB.png,,,,,,,,,,,,,,,,,,,,,,,,,,,,,,,,,,
,,,,,,,,,,,,,,,,,5d261fee347b0000014ab55a,53,2022-02-12_12h14.58.248,lexical_decision_task_DD_L3,2021.2.3,Win32,119.9904008,,,,,,,,,,,1.0773,1,,,,,,,,,,,,,,,z,1,1.0773,,,,,,,,0.028703704,-0.37962963,0,0,0,,0,103,103,141,1,PLEET,C,old,z,./images/PLEET.png,,,,,,,,,,,,,,,,,,,,,,,,,,,,,,,,,,
,,,,,,,,,,,,,,,,,5d261fee347b0000014ab55a,53,2022-02-12_12h14.58.248,lexical_decision_task_DD_L3,2021.2.3,Win32,119.9904008,,,,,,,,,,,1.474,1,,,,,,,,,,,,,,,m,1,1.474,,,,,,,,0.028703704,-0.37962963,0,0,0,,0,104,104,38,1,LADDER,HB,old,m,./images/LADDERHB.png,,,,,,,,,,,,,,,,,,,,,,,,,,,,,,,,,,
,,,,,,,,,,,,,,,,,5d261fee347b0000014ab55a,53,2022-02-12_12h14.58.248,lexical_decision_task_DD_L3,2021.2.3,Win32,119.9904008,,,,,,,,,,,0.838,1,,,,,,,,,,,,,,,m,1,0.838,,,,,,,,0.028703704,-0.37962963,0,0,0,,0,105,105,81,1,POODLE,LB,old,m,./images/POODLELB.png,,,,,,,,,,,,,,,,,,,,,,,,,,,,,,,,,,
,,,,,,,,,,,,,,,,,5d261fee347b0000014ab55a,53,2022-02-12_12h14.58.248,lexical_decision_task_DD_L3,2021.2.3,Win32,119.9904008,,,,,,,,,,,2.0644,1,,,,,,,,,,,,,,,z,1,2.0644,,,,,,,,0.028703704,-0.37962963,0,0,0,,0,106,106,112,1,MYING,HB,old,z,./images/MYINGHB.png,,,,,,,,,,,,,,,,,,,,,,,,,,,,,,,,,,
,,,,,,,,,,,,,,,,,5d261fee347b0000014ab55a,53,2022-02-12_12h14.58.248,lexical_decision_task_DD_L3,2021.2.3,Win32,119.9904008,,,,,,,,,,,0.7849,1,,,,,,,,,,,,,,,m,1,0.7849,,,,,,,,0.028703704,-0.37962963,0,0,0,,0,107,107,57,1,MOOSE,LB,old,m,./images/MOOSELB.png,,,,,,,,,,,,,,,,,,,,,,,,,,,,,,,,,,
,,,,,,,,,,,,,,,,,5d261fee347b0000014ab55a,53,2022-02-12_12h14.58.248,lexical_decision_task_DD_L3,2021.2.3,Win32,119.9904008,,,,,,,,,,,1.7061,1,,,,,,,,,,,,,,,z,1,1.7061,,,,,,,,0.028703704,-0.37962963,0,0,0,,0,108,108,142,1,PLASK,HB,old,z,./images/PLASKHB.png,,,,,,,,,,,,,,,,,,,,,,,,,,,,,,,,,,
,,,,,,,,,,,,,,,,,5d261fee347b0000014ab55a,53,2022-02-12_12h14.58.248,lexical_decision_task_DD_L3,2021.2.3,Win32,119.9904008,,,,,,,,,,,0.9261,1,,,,,,,,,,,,,,,z,1,0.9261,,,,,,,,0.028703704,-0.37962963,0,0,0,,0,109,109,92,1,PAIMS,LB,old,z,./images/PAIMSLB.png,,,,,,,,,,,,,,,,,,,,,,,,,,,,,,,,,,
,,,,,,,,,,,,,,,,,5d261fee347b0000014ab55a,53,2022-02-12_12h14.58.248,lexical_decision_task_DD_L3,2021.2.3,Win32,119.9904008,,,,,,,,,,,1.1024,1,,,,,,,,,,,,,,,m,1,1.1024,,,,,,,,0.028703704,-0.37962963,0,0,0,,0,110,110,11,1,BONNET,HB,old,m,./images/BONNETHB.png,,,,,,,,,,,,,,,,,,,,,,,,,,,,,,,,,,
,,,,,,,,,,,,,,,,,5d261fee347b0000014ab55a,53,2022-02-12_12h14.58.248,lexical_decision_task_DD_L3,2021.2.3,Win32,119.9904008,,,,,,,,,,,2.0872,1,,,,,,,,,,,,,,,z,1,2.0872,,,,,,,,0.028703704,-0.37962963,0,0,0,,0,111,111,127,1,NINDY,HB,old,z,./images/NINDYHB.png,,,,,,,,,,,,,,,,,,,,,,,,,,,,,,,,,,
,,,,,,,,,,,,,,,,,5d261fee347b0000014ab55a,53,2022-02-12_12h14.58.248,lexical_decision_task_DD_L3,2021.2.3,Win32,119.9904008,,,,,,,,,,,0.9397,1,,,,,,,,,,,,,,,m,1,0.9397,,,,,,,,0.028703704,-0.37962963,0,0,0,,0,112,112,56,1,PACKET,HB,old,m,./images/PACKETHB.png,,,,,,,,,,,,,,,,,,,,,,,,,,,,,,,,,,
,,,,,,,,,,,,,,,,,5d261fee347b0000014ab55a,53,2022-02-12_12h14.58.248,lexical_decision_task_DD_L3,2021.2.3,Win32,119.9904008,,,,,,,,,,,0.738,1,,,,,,,,,,,,,,,z,1,0.738,,,,,,,,0.028703704,-0.37962963,0,0,0,,0,113,113,89,1,DRIEK,LB,old,z,./images/DRIEKLB.png,,,,,,,,,,,,,,,,,,,,,,,,,,,,,,,,,,
,,,,,,,,,,,,,,,,,5d261fee347b0000014ab55a,53,2022-02-12_12h14.58.248,lexical_decision_task_DD_L3,2021.2.3,Win32,119.9904008,,,,,,,,,,,0.6347,1,,,,,,,,,,,,,,,m,1,0.6347,,,,,,,,0.028703704,-0.37962963,0,0,0,,0,114,114,36,1,THROAT,LB,old,m,./images/THROATLB.png,,,,,,,,,,,,,,,,,,,,,,,,,,,,,,,,,,
,,,,,,,,,,,,,,,,,5d261fee347b0000014ab55a,53,2022-02-12_12h14.58.248,lexical_decision_task_DD_L3,2021.2.3,Win32,119.9904008,,,,,,,,,,,1.4131,1,,,,,,,,,,,,,,,m,1,1.4131,,,,,,,,0.028703704,-0.37962963,0,0,0,,0,115,115,8,1,TULIP,HB,old,m,./images/TULIPHB.png,,,,,,,,,,,,,,,,,,,,,,,,,,,,,,,,,,
,,,,,,,,,,,,,,,,,5d261fee347b0000014ab55a,53,2022-02-12_12h14.58.248,lexical_decision_task_DD_L3,2021.2.3,Win32,119.9904008,,,,,,,,,,,1.2332,1,,,,,,,,,,,,,,,m,1,1.2332,,,,,,,,0.028703704,-0.37962963,0,0,0,,0,116,116,74,1,CEMENT,HB,old,m,./images/CEMENTHB.png,,,,,,,,,,,,,,,,,,,,,,,,,,,,,,,,,,
,,,,,,,,,,,,,,,,,5d261fee347b0000014ab55a,53,2022-02-12_12h14.58.248,lexical_decision_task_DD_L3,2021.2.3,Win32,119.9904008,,,,,,,,,,,0.9098,1,,,,,,,,,,,,,,,z,1,0.9098,,,,,,,,0.028703704,-0.37962963,0,0,0,,0,117,117,134,1,TROSS,LB,old,z,./images/TROSSLB.png,,,,,,,,,,,,,,,,,,,,,,,,,,,,,,,,,,
,,,,,,,,,,,,,,,,,5d261fee347b0000014ab55a,53,2022-02-12_12h14.58.248,lexical_decision_task_DD_L3,2021.2.3,Win32,119.9904008,,,,,,,,,,,0.7307,1,,,,,,,,,,,,,,,z,1,0.7307,,,,,,,,0.028703704,-0.37962963,0,0,0,,0,118,118,149,1,VEASE,LB,old,z,./images/VEASELB.png,,,,,,,,,,,,,,,,,,,,,,,,,,,,,,,,,,
,,,,,,,,,,,,,,,,,5d261fee347b0000014ab55a,53,2022-02-12_12h14.58.248,lexical_decision_task_DD_L3,2021.2.3,Win32,119.9904008,,,,,,,,,,,0.7042,1,,,,,,,,,,,,,,,m,1,0.7042,,,,,,,,0.028703704,-0.37962963,0,0,0,,0,119,119,73,1,SNACK,C,old,m,./images/SNACK.png,,,,,,,,,,,,,,,,,,,,,,,,,,,,,,,,,,
,,,,,,,,,,,,,,,,,5d261fee347b0000014ab55a,53,2022-02-12_12h14.58.248,lexical_decision_task_DD_L3,2021.2.3,Win32,119.9904008,,,,,,,,,,,0.8,1,,,,,,,,,,,,,,,z,1,0.8,,,,,,,,0.028703704,-0.37962963,0,0,0,,0,120,120,158,1,EGECT,LB,old,z,./images/EGECTLB.png,,,,,,,,,,,,,,,,,,,,,,,,,,,,,,,,,,
,,,,,,,,,,,,,,,,,5d261fee347b0000014ab55a,53,2022-02-12_12h14.58.248,lexical_decision_task_DD_L3,2021.2.3,Win32,119.9904008,,,,,,,,,,,0.6146,1,,,,,,,,,,,,,,,m,1,0.6146,,,,,,,,0.028703704,-0.37962963,0,0,0,,0,121,121,4,1,MUSCLE,C,old,m,./images/MUSCLE.png,,,,,,,,,,,,,,,,,,,,,,,,,,,,,,,,,,
,,,,,,,,,,,,,,,,,5d261fee347b0000014ab55a,53,2022-02-12_12h14.58.248,lexical_decision_task_DD_L3,2021.2.3,Win32,119.9904008,,,,,,,,,,,1.1219,1,,,,,,,,,,,,,,,z,1,1.1219,,,,,,,,0.028703704,-0.37962963,0,0,0,,0,122,122,97,1,CHIDS,HB,old,z,./images/CHIDSHB.png,,,,,,,,,,,,,,,,,,,,,,,,,,,,,,,,,,
,,,,,,,,,,,,,,,,,5d261fee347b0000014ab55a,53,2022-02-12_12h14.58.248,lexical_decision_task_DD_L3,2021.2.3,Win32,119.9904008,,,,,,,,,,,0.865,1,,,,,,,,,,,,,,,m,1,0.865,,,,,,,,0.028703704,-0.37962963,0,0,0,,0,123,123,53,1,CARPET,HB,old,m,./images/CARPETHB.png,,,,,,,,,,,,,,,,,,,,,,,,,,,,,,,,,,
,,,,,,,,,,,,,,,,,5d261fee347b0000014ab55a,53,2022-02-12_12h14.58.248,lexical_decision_task_DD_L3,2021.2.3,Win32,119.9904008,,,,,,,,,,,0.8584,1,,,,,,,,,,,,,,,z,1,0.8584,,,,,,,,0.028703704,-0.37962963,0,0,0,,0,124,124,159,1,CUDDY,C,old,z,./images/CUDDY.png,,,,,,,,,,,,,,,,,,,,,,,,,,,,,,,,,,
,,,,,,,,,,,,,,,,,5d261fee347b0000014ab55a,53,2022-02-12_12h14.58.248,lexical_decision_task_DD_L3,2021.2.3,Win32,119.9904008,,,,,,,,,,,0.6738,1,,,,,,,,,,,,,,,m,1,0.6738,,,,,,,,0.028703704,-0.37962963,0,0,0,space,0,125,125,52,1,BANNER,C,old,m,./images/BANNER.png,1.343,,,,,,,,,,,,,,,,,,,,,,,,,,,,,,,,,
,,,,,,,,,,,,,,,,,5d261fee347b0000014ab55a,53,2022-02-12_12h14.58.248,lexical_decision_task_DD_L3,2021.2.3,Win32,119.9904008,,,,,,,,,,,2.1867,1,,,,,,,,,,,,,,,z,1,2.1867,,,,,,,,0.028703704,-0.37962963,0,0,0,,0,126,126,130,1,CRILL,HB,old,z,./images/CRILLHB.png,,,,,,,,,,,,,,,,,,,,,,,,,,,,,,,,,,
,,,,,,,,,,,,,,,,,5d261fee347b0000014ab55a,53,2022-02-12_12h14.58.248,lexical_decision_task_DD_L3,2021.2.3,Win32,119.9904008,,,,,,,,,,,0.57,1,,,,,,,,,,,,,,,m,1,0.57,,,,,,,,0.028703704,-0.37962963,0,0,0,,0,127,127,40,1,SWING,C,old,m,./images/SWING.png,,,,,,,,,,,,,,,,,,,,,,,,,,,,,,,,,,
,,,,,,,,,,,,,,,,,5d261fee347b0000014ab55a,53,2022-02-12_12h14.58.248,lexical_decision_task_DD_L3,2021.2.3,Win32,119.9904008,,,,,,,,,,,0.6933,1,,,,,,,,,,,,,,,m,1,0.6933,,,,,,,,0.028703704,-0.37962963,0,0,0,,0,128,128,70,1,URINE,C,old,m,./images/URINE.png,,,,,,,,,,,,,,,,,,,,,,,,,,,,,,,,,,
,,,,,,,,,,,,,,,,,5d261fee347b0000014ab55a,53,2022-02-12_12h14.58.248,lexical_decision_task_DD_L3,2021.2.3,Win32,119.9904008,,,,,,,,,,,0.6264,1,,,,,,,,,,,,,,,m,1,0.6264,,,,,,,,0.028703704,-0.37962963,0,0,0,,0,129,129,78,1,LITTER,LB,old,m,./images/LITTERLB.png,,,,,,,,,,,,,,,,,,,,,,,,,,,,,,,,,,
,,,,,,,,,,,,,,,,,5d261fee347b0000014ab55a,53,2022-02-12_12h14.58.248,lexical_decision_task_DD_L3,2021.2.3,Win32,119.9904008,,,,,,,,,,,0.6967,1,,,,,,,,,,,,,,,m,1,0.6967,,,,,,,,0.028703704,-0.37962963,0,0,0,,0,130,130,82,1,SUNSET,C,old,m,./images/SUNSET.png,,,,,,,,,,,,,,,,,,,,,,,,,,,,,,,,,,
,,,,,,,,,,,,,,,,,5d261fee347b0000014ab55a,53,2022-02-12_12h14.58.248,lexical_decision_task_DD_L3,2021.2.3,Win32,119.9904008,,,,,,,,,,,1.5829,1,,,,,,,,,,,,,,,z,1,1.5829,,,,,,,,0.028703704,-0.37962963,0,0,0,,0,131,131,106,1,CLUMS,HB,old,z,./images/CLUMSHB.png,,,,,,,,,,,,,,,,,,,,,,,,,,,,,,,,,,
,,,,,,,,,,,,,,,,,5d261fee347b0000014ab55a,53,2022-02-12_12h14.58.248,lexical_decision_task_DD_L3,2021.2.3,Win32,119.9904008,,,,,,,,,,,1.932,1,,,,,,,,,,,,,,,m,1,1.932,,,,,,,,0.028703704,-0.37962963,0,0,0,,0,132,132,2,1,BEARD,HB,old,m,./images/BEARDHB.png,,,,,,,,,,,,,,,,,,,,,,,,,,,,,,,,,,
,,,,,,,,,,,,,,,,,5d261fee347b0000014ab55a,53,2022-02-12_12h14.58.248,lexical_decision_task_DD_L3,2021.2.3,Win32,119.9904008,,,,,,,,,,,0.6792,1,,,,,,,,,,,,,,,m,1,0.6792,,,,,,,,0.028703704,-0.37962963,0,0,0,,0,133,133,10,1,BELLY,C,old,m,./images/BELLY.png,,,,,,,,,,,,,,,,,,,,,,,,,,,,,,,,,,
,,,,,,,,,,,,,,,,,5d261fee347b0000014ab55a,53,2022-02-12_12h14.58.248,lexical_decision_task_DD_L3,2021.2.3,Win32,119.9904008,,,,,,,,,,,0.6288,1,,,,,,,,,,,,,,,m,1,0.6288,,,,,,,,0.028703704,-0.37962963,0,0,0,,0,134,134,64,1,JELLY,C,old,m,./images/JELLY.png,,,,,,,,,,,,,,,,,,,,,,,,,,,,,,,,,,
,,,,,,,,,,,,,,,,,5d261fee347b0000014ab55a,53,2022-02-12_12h14.58.248,lexical_decision_task_DD_L3,2021.2.3,Win32,119.9904008,,,,,,,,,,,0.6027,1,,,,,,,,,,,,,,,m,1,0.6027,,,,,,,,0.028703704,-0.37962963,0,0,0,,0,135,135,54,1,TRIPOD,LB,old,m,./images/TRIPODLB.png,,,,,,,,,,,,,,,,,,,,,,,,,,,,,,,,,,
,,,,,,,,,,,,,,,,,5d261fee347b0000014ab55a,53,2022-02-12_12h14.58.248,lexical_decision_task_DD_L3,2021.2.3,Win32,119.9904008,,,,,,,,,,,1.5691,1,,,,,,,,,,,,,,,z,1,1.5691,,,,,,,,0.028703704,-0.37962963,0,0,0,,0,136,136,139,1,BLEAR,HB,old,z,./images/BLEARHB.png,,,,,,,,,,,,,,,,,,,,,,,,,,,,,,,,,,
,,,,,,,,,,,,,,,,,5d261fee347b0000014ab55a,53,2022-02-12_12h14.58.248,lexical_decision_task_DD_L3,2021.2.3,Win32,119.9904008,,,,,,,,,,,2.7502,1,,,,,,,,,,,,,,,z,1,2.7502,,,,,,,,0.028703704,-0.37962963,0,0,0,,0,137,137,157,1,INLER,HB,old,z,./images/INLERHB.png,,,,,,,,,,,,,,,,,,,,,,,,,,,,,,,,,,
,,,,,,,,,,,,,,,,,5d261fee347b0000014ab55a,53,2022-02-12_12h14.58.248,lexical_decision_task_DD_L3,2021.2.3,Win32,119.9904008,,,,,,,,,,,0.7665,1,,,,,,,,,,,,,,,z,1,0.7665,,,,,,,,0.028703704,-0.37962963,0,0,0,,0,138,138,137,1,JOOST,LB,old,z,./images/JOOSTLB.png,,,,,,,,,,,,,,,,,,,,,,,,,,,,,,,,,,
,,,,,,,,,,,,,,,,,5d261fee347b0000014ab55a,53,2022-02-12_12h14.58.248,lexical_decision_task_DD_L3,2021.2.3,Win32,119.9904008,,,,,,,,,,,2.3702,1,,,,,,,,,,,,,,,z,1,2.3702,,,,,,,,0.028703704,-0.37962963,0,0,0,,0,139,139,163,1,GAMBA,HB,old,z,./images/GAMBAHB.png,,,,,,,,,,,,,,,,,,,,,,,,,,,,,,,,,,
,,,,,,,,,,,,,,,,,5d261fee347b0000014ab55a,53,2022-02-12_12h14.58.248,lexical_decision_task_DD_L3,2021.2.3,Win32,119.9904008,,,,,,,,,,,0.6521,1,,,,,,,,,,,,,,,m,1,0.6521,,,,,,,,0.028703704,-0.37962963,0,0,0,,0,140,140,55,1,MUFFIN,C,old,m,./images/MUFFIN.png,,,,,,,,,,,,,,,,,,,,,,,,,,,,,,,,,,
,,,,,,,,,,,,,,,,,5d261fee347b0000014ab55a,53,2022-02-12_12h14.58.248,lexical_decision_task_DD_L3,2021.2.3,Win32,119.9904008,,,,,,,,,,,0.8194,1,,,,,,,,,,,,,,,z,1,0.8194,,,,,,,,0.028703704,-0.37962963,0,0,0,,0,141,141,98,1,BAMPS,LB,old,z,./images/BAMPSLB.png,,,,,,,,,,,,,,,,,,,,,,,,,,,,,,,,,,
,,,,,,,,,,,,,,,,,5d261fee347b0000014ab55a,53,2022-02-12_12h14.58.248,lexical_decision_task_DD_L3,2021.2.3,Win32,119.9904008,,,,,,,,,,,0.9008,1,,,,,,,,,,,,,,,m,1,0.9008,,,,,,,,0.028703704,-0.37962963,0,0,0,,0,142,142,19,1,DOUGH,C,old,m,./images/DOUGH.png,,,,,,,,,,,,,,,,,,,,,,,,,,,,,,,,,,
,,,,,,,,,,,,,,,,,5d261fee347b0000014ab55a,53,2022-02-12_12h14.58.248,lexical_decision_task_DD_L3,2021.2.3,Win32,119.9904008,,,,,,,,,,,0.6161,1,,,,,,,,,,,,,,,m,1,0.6161,,,,,,,,0.028703704,-0.37962963,0,0,0,,0,143,143,42,1,FOLDER,LB,old,m,./images/FOLDERLB.png,,,,,,,,,,,,,,,,,,,,,,,,,,,,,,,,,,
,,,,,,,,,,,,,,,,,5d261fee347b0000014ab55a,53,2022-02-12_12h14.58.248,lexical_decision_task_DD_L3,2021.2.3,Win32,119.9904008,,,,,,,,,,,0.8827,1,,,,,,,,,,,,,,,m,1,0.8827,,,,,,,,0.028703704,-0.37962963,0,0,0,,0,144,144,59,1,BURIAL,HB,old,m,./images/BURIALHB.png,,,,,,,,,,,,,,,,,,,,,,,,,,,,,,,,,,
,,,,,,,,,,,,,,,,,5d261fee347b0000014ab55a,53,2022-02-12_12h14.58.248,lexical_decision_task_DD_L3,2021.2.3,Win32,119.9904008,,,,,,,,,,,2.3311,1,,,,,,,,,,,,,,,z,1,2.3311,,,,,,,,0.028703704,-0.37962963,0,0,0,,0,145,145,110,1,CRUNK,LB,old,z,./images/CRUNKLB.png,,,,,,,,,,,,,,,,,,,,,,,,,,,,,,,,,,
,,,,,,,,,,,,,,,,,5d261fee347b0000014ab55a,53,2022-02-12_12h14.58.248,lexical_decision_task_DD_L3,2021.2.3,Win32,119.9904008,,,,,,,,,,,0.8856,1,,,,,,,,,,,,,,,z,1,0.8856,,,,,,,,0.028703704,-0.37962963,0,0,0,,0,146,146,135,1,JOODY,C,old,z,./images/JOODY.png,,,,,,,,,,,,,,,,,,,,,,,,,,,,,,,,,,
,,,,,,,,,,,,,,,,,5d261fee347b0000014ab55a,53,2022-02-12_12h14.58.248,lexical_decision_task_DD_L3,2021.2.3,Win32,119.9904008,,,,,,,,,,,1.0936,1,,,,,,,,,,,,,,,m,1,1.0936,,,,,,,,0.028703704,-0.37962963,0,0,0,,0,147,147,12,1,SHORE,LB,old,m,./images/SHORELB.png,,,,,,,,,,,,,,,,,,,,,,,,,,,,,,,,,,
,,,,,,,,,,,,,,,,,5d261fee347b0000014ab55a,53,2022-02-12_12h14.58.248,lexical_decision_task_DD_L3,2021.2.3,Win32,119.9904008,,,,,,,,,,,0.6528,1,,,,,,,,,,,,,,,m,1,0.6528,,,,,,,,0.028703704,-0.37962963,0,0,0,,0,148,148,61,1,CANDLE,C,old,m,./images/CANDLE.png,,,,,,,,,,,,,,,,,,,,,,,,,,,,,,,,,,
,,,,,,,,,,,,,,,,,5d261fee347b0000014ab55a,53,2022-02-12_12h14.58.248,lexical_decision_task_DD_L3,2021.2.3,Win32,119.9904008,,,,,,,,,,,1.1476,1,,,,,,,,,,,,,,,m,1,1.1476,,,,,,,,0.028703704,-0.37962963,0,0,0,,0,149,149,83,1,JUNGLE,HB,old,m,./images/JUNGLEHB.png,,,,,,,,,,,,,,,,,,,,,,,,,,,,,,,,,,
,,,,,,,,,,,,,,,,,5d261fee347b0000014ab55a,53,2022-02-12_12h14.58.248,lexical_decision_task_DD_L3,2021.2.3,Win32,119.9904008,,,,,,,,,,,1.9731,1,,,,,,,,,,,,,,,z,1,1.9731,,,,,,,,0.028703704,-0.37962963,0,0,0,,0,150,150,109,1,BURGE,HB,old,z,./images/BURGEHB.png,,,,,,,,,,,,,,,,,,,,,,,,,,,,,,,,,,
,,,,,,,,,,,,,,,,,5d261fee347b0000014ab55a,53,2022-02-12_12h14.58.248,lexical_decision_task_DD_L3,2021.2.3,Win32,119.9904008,,,,,,,,,,,0.7946,1,,,,,,,,,,,,,,,z,1,0.7946,,,,,,,,0.028703704,-0.37962963,0,0,0,,0,151,151,156,1,HIXES,C,old,z,./images/HIXES.png,,,,,,,,,,,,,,,,,,,,,,,,,,,,,,,,,,
,,,,,,,,,,,,,,,,,5d261fee347b0000014ab55a,53,2022-02-12_12h14.58.248,lexical_decision_task_DD_L3,2021.2.3,Win32,119.9904008,,,,,,,,,,,0.6582,1,,,,,,,,,,,,,,,m,1,0.6582,,,,,,,,0.028703704,-0.37962963,0,0,0,,0,152,152,63,1,MIRROR,LB,old,m,./images/MIRRORLB.png,,,,,,,,,,,,,,,,,,,,,,,,,,,,,,,,,,
,,,,,,,,,,,,,,,,,5d261fee347b0000014ab55a,53,2022-02-12_12h14.58.248,lexical_decision_task_DD_L3,2021.2.3,Win32,119.9904008,,,,,,,,,,,0.6508,1,,,,,,,,,,,,,,,m,1,0.6508,,,,,,,,0.028703704,-0.37962963,0,0,0,,0,153,153,48,1,SPORT,LB,old,m,./images/SPORTLB.png,,,,,,,,,,,,,,,,,,,,,,,,,,,,,,,,,,
,,,,,,,,,,,,,,,,,5d261fee347b0000014ab55a,53,2022-02-12_12h14.58.248,lexical_decision_task_DD_L3,2021.2.3,Win32,119.9904008,,,,,,,,,,,1.166,1,,,,,,,,,,,,,,,z,1,1.166,,,,,,,,0.028703704,-0.37962963,0,0,0,,0,154,154,118,1,BAVEL,HB,old,z,./images/BAVELHB.png,,,,,,,,,,,,,,,,,,,,,,,,,,,,,,,,,,
,,,,,,,,,,,,,,,,,5d261fee347b0000014ab55a,53,2022-02-12_12h14.58.248,lexical_decision_task_DD_L3,2021.2.3,Win32,119.9904008,,,,,,,,,,,1.2873,1,,,,,,,,,,,,,,,m,1,1.2873,,,,,,,,0.028703704,-0.37962963,0,0,0,,0,155,155,41,1,STRING,HB,old,m,./images/STRINGHB.png,,,,,,,,,,,,,,,,,,,,,,,,,,,,,,,,,,
,,,,,,,,,,,,,,,,,5d261fee347b0000014ab55a,53,2022-02-12_12h14.58.248,lexical_decision_task_DD_L3,2021.2.3,Win32,119.9904008,,,,,,,,,,,0.8262,1,,,,,,,,,,,,,,,m,1,0.8262,,,,,,,,0.028703704,-0.37962963,0,0,0,,0,156,156,15,1,GREASE,LB,old,m,./images/GREASELB.png,,,,,,,,,,,,,,,,,,,,,,,,,,,,,,,,,,
,,,,,,,,,,,,,,,,,5d261fee347b0000014ab55a,53,2022-02-12_12h14.58.248,lexical_decision_task_DD_L3,2021.2.3,Win32,119.9904008,,,,,,,,,,,0.6727,1,,,,,,,,,,,,,,,m,1,0.6727,,,,,,,,0.028703704,-0.37962963,0,0,0,,0,157,157,28,1,FALCON,C,old,m,./images/FALCON.png,,,,,,,,,,,,,,,,,,,,,,,,,,,,,,,,,,
,,,,,,,,,,,,,,,,,5d261fee347b0000014ab55a,53,2022-02-12_12h14.58.248,lexical_decision_task_DD_L3,2021.2.3,Win32,119.9904008,,,,,,,,,,,0.7507,1,,,,,,,,,,,,,,,z,1,0.7507,,,,,,,,0.028703704,-0.37962963,0,0,0,,0,158,158,102,1,DULLE,C,old,z,./images/DULLE.png,,,,,,,,,,,,,,,,,,,,,,,,,,,,,,,,,,
,,,,,,,,,,,,,,,,,5d261fee347b0000014ab55a,53,2022-02-12_12h14.58.248,lexical_decision_task_DD_L3,2021.2.3,Win32,119.9904008,,,,,,,,,,,0.6287,1,,,,,,,,,,,,,,,m,1,0.6287,,,,,,,,0.028703704,-0.37962963,0,0,0,,0,159,159,30,1,STORM,LB,old,m,./images/STORMLB.png,,,,,,,,,,,,,,,,,,,,,,,,,,,,,,,,,,
,,,,,,,,,,,,,,,,,5d261fee347b0000014ab55a,53,2022-02-12_12h14.58.248,lexical_decision_task_DD_L3,2021.2.3,Win32,119.9904008,,,,,,,,,,,0.5827,1,,,,,,,,,,,,,,,m,1,0.5827,,,,,,,,0.028703704,-0.37962963,0,0,0,,0,160,160,7,1,PAINT,C,old,m,./images/PAINT.png,,,,,,,,,,,,,,,,,,,,,,,,,,,,,,,,,,
,,,,,,,,,,,,,,,,,5d261fee347b0000014ab55a,53,2022-02-12_12h14.58.248,lexical_decision_task_DD_L3,2021.2.3,Win32,119.9904008,,,,,,,,,,,1.077,1,,,,,,,,,,,,,,,m,1,1.077,,,,,,,,0.028703704,-0.37962963,0,0,0,,0,161,161,35,1,PEACH,HB,old,m,./images/PEACHHB.png,,,,,,,,,,,,,,,,,,,,,,,,,,,,,,,,,,
,,,,,,,,,,,,,,,,,5d261fee347b0000014ab55a,53,2022-02-12_12h14.58.248,lexical_decision_task_DD_L3,2021.2.3,Win32,119.9904008,,,,,,,,,,,0.9654,1,,,,,,,,,,,,,,,m,1,0.9654,,,,,,,,0.028703704,-0.37962963,0,0,0,,0,162,162,26,1,SMOKER,HB,old,m,./images/SMOKERHB.png,,,,,,,,,,,,,,,,,,,,,,,,,,,,,,,,,,
,,,,,,,,,,,,,,,,,5d261fee347b0000014ab55a,53,2022-02-12_12h14.58.248,lexical_decision_task_DD_L3,2021.2.3,Win32,119.9904008,,,,,,,,,,,0.7799,1,,,,,,,,,,,,,,,m,1,0.7799,,,,,,,,0.028703704,-0.37962963,0,0,0,,0,163,163,77,1,COUCH,HB,old,m,./images/COUCHHB.png,,,,,,,,,,,,,,,,,,,,,,,,,,,,,,,,,,
,,,,,,,,,,,,,,,,,5d261fee347b0000014ab55a,53,2022-02-12_12h14.58.248,lexical_decision_task_DD_L3,2021.2.3,Win32,119.9904008,,,,,,,,,,,0.7225,1,,,,,,,,,,,,,,,m,1,0.7225,,,,,,,,0.028703704,-0.37962963,0,0,0,,0,164,164,33,1,MAGGOT,LB,old,m,./images/MAGGOTLB.png,,,,,,,,,,,,,,,,,,,,,,,,,,,,,,,,,,
,,,,,,,,,,,,,,,,,5d261fee347b0000014ab55a,53,2022-02-12_12h14.58.248,lexical_decision_task_DD_L3,2021.2.3,Win32,119.9904008,,,,,,,,,,,0.6266,1,,,,,,,,,,,,,,,z,1,0.6266,,,,,,,,0.028703704,-0.37962963,0,0,0,,0,165,165,147,1,ZOLES,C,old,z,./images/ZOLES.png,,,,,,,,,,,,,,,,,,,,,,,,,,,,,,,,,,
,,,,,,,,,,,,,,,,,5d261fee347b0000014ab55a,53,2022-02-12_12h14.58.248,lexical_decision_task_DD_L3,2021.2.3,Win32,119.9904008,,,,,,,,,,,1.4769,1,,,,,,,,,,,,,,,m,1,1.4769,,,,,,,,0.028703704,-0.37962963,0,0,0,,0,166,166,80,1,WEASEL,HB,old,m,./images/WEASELHB.png,,,,,,,,,,,,,,,,,,,,,,,,,,,,,,,,,,
,,,,,,,,,,,,,,,,,5d261fee347b0000014ab55a,53,2022-02-12_12h14.58.248,lexical_decision_task_DD_L3,2021.2.3,Win32,119.9904008,,,,,,,,,,,0.662,1,,,,,,,,,,,,,,,m,1,0.662,,,,,,,,0.028703704,-0.37962963,0,0,0,,0,167,167,46,1,PEARL,C,old,m,./images/PEARL.png,,,,,,,,,,,,,,,,,,,,,,,,,,,,,,,,,,
,,,,,,,,,,,,,,,,,5d261fee347b0000014ab55a,53,2022-02-12_12h14.58.248,lexical_decision_task_DD_L3,2021.2.3,Win32,119.9904008,,,,,,,,,,,,,,,,,,,,,,,,,,,,,,,,,,,,,,,,,,,,,,,,,How likely will it be that you will recognize the words presented very blurred on a scale of 0 (not likely) to 100 (most likely)?,,,,,-0.002777778,-0.39537037,1,0,0,jol_adv,6,9.9903,0,0,0,2,1,,,,,,,,,,,,,,,,,,,,
,,,,,,,,,,,,,,,,,5d261fee347b0000014ab55a,53,2022-02-12_12h14.58.248,lexical_decision_task_DD_L3,2021.2.3,Win32,119.9904008,,,,,,,,,,,,,,,,,,,,,,,,,,,,,,,,,,,,,,,,,,,,,,,,,How likely will it be that you will recognize the words presented slighly blurred on a scale of 0 (not likely) to 100 (most likely)?,,,,,,,,,,,6,2.181,0,1,1,1,1,,,,,,,,,,,,,,,,,,,,
,,,,,,,,,,,,,,,,,5d261fee347b0000014ab55a,53,2022-02-12_12h14.58.248,lexical_decision_task_DD_L3,2021.2.3,Win32,119.9904008,,,,,,,,,,,,,,,,,,,,,,,,,,,,,,,,,,,,,,,,,,,,,,,,,How likely will it be that you will recognize the words presented clearly on a scale of 0 (not likely) to 100 (most likely)?,,,,,,,,,,,6,9.5144,0,2,2,0,1,,,,,,,,,,,,,,,,,,,,
space,0.124074074,-0.396296296,0,0,0,,,,,,,1,test,"In the next phase you will be presented with the words from the the first phase. Your job is to decide whether you remember seeing the word or not. If you remember seeing the word press ""old"" or type ""m"". If you do not remember seeing the word press ""new"" or type ""z"". Please press the space bar or click on continue to begin. ",,,5d261fee347b0000014ab55a,53,2022-02-12_12h14.58.248,lexical_decision_task_DD_L3,2021.2.3,Win32,119.9904008,,,,,,,,,,,,,,,,,,,,,23.3535,,,,,,,,,,,,,,,,,,,,,,,,,,,,,,,,,,,,,,,,,,,,,,0,0,0,0,1,,,,,,,,,,,,,,,
,0.024074074,-0.402777778,1,0,0,instr_done_button,,,,,,1,test,"In the next phase you will be presented with the words from the the first phase. Your job is to decide whether you remember seeing the word or not. If you remember seeing the word press ""old"" or type ""m"". If you do not remember seeing the word press ""new"" or type ""z"". Please press the space bar or click on continue to begin. ",,,5d261fee347b0000014ab55a,53,2022-02-12_12h14.58.248,lexical_decision_task_DD_L3,2021.2.3,Win32,119.9904008,,,,,,,,,,,,,,,,,,,,,,,,,,,,,,,,,,,,,,,,,,,,,,,,,,,,,,,,,,,,,,,,,,,1,0,1,0,1,,,,,,,,,,,,,,,
,0.002777778,-0.402777778,1,0,0,instr_done_button,,,,,,1,test,"In the next phase you will be presented with the words from the the first phase. Your job is to decide whether you remember seeing the word or not. If you remember seeing the word press ""old"" or type ""m"". If you do not remember seeing the word press ""new"" or type ""z"". Please press the space bar or click on continue to begin. ",,,5d261fee347b0000014ab55a,53,2022-02-12_12h14.58.248,lexical_decision_task_DD_L3,2021.2.3,Win32,119.9904008,,,,,,,,,,,,,,,,,,,,,,,,,,,,,,,,,,,,,,,,,,,,,,,,,,,,,,,,,,,,,,,,,,,2,0,2,0,1,,,,,,,,,,,,,,,
space,0.034259259,-0.312037037,0,0,0,,,,,,,1,test,"In the next phase you will be presented with the words from the the first phase. Your job is to decide whether you remember seeing the word or not. If you remember seeing the word press ""old"" or type ""m"". If you do not remember seeing the word press ""new"" or type ""z"". Please press the space bar or click on continue to begin. ",,,5d261fee347b0000014ab55a,53,2022-02-12_12h14.58.248,lexical_decision_task_DD_L3,2021.2.3,Win32,119.9904008,,,,,,,,,,,,,,,,,,,,,1.3294,,,,,,,,,,,,,,,,,,,,,,,,,,,,,,,,,,,,,,,,,,,,,,3,0,3,0,1,,,,,,,,,,,,,,,
,-0.001851852,-0.399074074,1,0,0,instr_done_button,,,,,,1,test,"In the next phase you will be presented with the words from the the first phase. Your job is to decide whether you remember seeing the word or not. If you remember seeing the word press ""old"" or type ""m"". If you do not remember seeing the word press ""new"" or type ""z"". Please press the space bar or click on continue to begin. ",,,5d261fee347b0000014ab55a,53,2022-02-12_12h14.58.248,lexical_decision_task_DD_L3,2021.2.3,Win32,119.9904008,,,,,,,,,,,,,,,,,,,,,,,,,,,,,,,,,,,,,,,,,,,,,,,,,,,,,,,,,,,,,,,,,,,4,0,4,0,1,,,,,,,,,,,,,,,
,,,,,,,,,,,,,,,,,5d261fee347b0000014ab55a,53,2022-02-12_12h14.58.248,lexical_decision_task_DD_L3,2021.2.3,Win32,119.9904008,,,,,,,,,,,4.0203,0,,,,,,,,,,,,,,,,,,,,,,,,,-0.234259259,0.012037037,0,0,0,,,,,,,SAILOR,C,m,m,./images/SAILOR.png,,,,,,,,,,,,,,,,,,,,z,0,4.0203,,,,,,,,0,0,0,67,1
,,,,,,,,,,,,,,,,,5d261fee347b0000014ab55a,53,2022-02-12_12h14.58.248,lexical_decision_task_DD_L3,2021.2.3,Win32,119.9904008,,,,,,,,,,,1.8329,1,,,,,,,,,,,,,,,,,,,,,,,,,-0.234259259,0.012037037,0,0,0,,,,,,,CARPET,HB,m,m,./images/CARPETHB.png,,,,,,,,,,,,,,,,,,,,m,1,1.8329,,,,,,,,0,1,1,53,1
,,,,,,,,,,,,,,,,,5d261fee347b0000014ab55a,53,2022-02-12_12h14.58.248,lexical_decision_task_DD_L3,2021.2.3,Win32,119.9904008,,,,,,,,,,,0.8243,1,,,,,,,,,,,,,,,,,,,,,,,,,-0.234259259,0.012037037,0,0,0,,,,,,,CEMENT,HB,m,m,./images/CEMENTHB.png,,,,,,,,,,,,,,,,,,,,m,1,0.8243,,,,,,,,0,2,2,74,1
,,,,,,,,,,,,,,,,,5d261fee347b0000014ab55a,53,2022-02-12_12h14.58.248,lexical_decision_task_DD_L3,2021.2.3,Win32,119.9904008,,,,,,,,,,,1.1811,1,,,,,,,,,,,,,,,,,,,,,,,,,-0.234259259,0.012037037,0,0,0,,,,,,,DRILL,LB,z,m,./images/DRILLLB.png,,,,,,,,,,,,,,,,,,,,z,1,1.1811,,,,,,,,0,3,3,165,1
,,,,,,,,,,,,,,,,,5d261fee347b0000014ab55a,53,2022-02-12_12h14.58.248,lexical_decision_task_DD_L3,2021.2.3,Win32,119.9904008,,,,,,,,,,,0.8367,1,,,,,,,,,,,,,,,,,,,,,,,,,-0.234259259,0.012037037,0,0,0,,,,,,,SUNSET,C,m,m,./images/SUNSET.png,,,,,,,,,,,,,,,,,,,,m,1,0.8367,,,,,,,,0,4,4,82,1
,,,,,,,,,,,,,,,,,5d261fee347b0000014ab55a,53,2022-02-12_12h14.58.248,lexical_decision_task_DD_L3,2021.2.3,Win32,119.9904008,,,,,,,,,,,0.9711,1,,,,,,,,,,,,,,,,,,,,,,,,,-0.234259259,0.012037037,0,0,0,,,,,,,BANANA,C,z,m,./images/BANANA.png,,,,,,,,,,,,,,,,,,,,z,1,0.9711,,,,,,,,0,5,5,154,1
,,,,,,,,,,,,,,,,,5d261fee347b0000014ab55a,53,2022-02-12_12h14.58.248,lexical_decision_task_DD_L3,2021.2.3,Win32,119.9904008,,,,,,,,,,,1.9202,1,,,,,,,,,,,,,,,,,,,,,,,,,-0.234259259,0.012037037,0,0,0,,,,,,,CRATER,LB,z,m,./images/CRATERLB.png,,,,,,,,,,,,,,,,,,,,z,1,1.9202,,,,,,,,0,6,6,87,1
,,,,,,,,,,,,,,,,,5d261fee347b0000014ab55a,53,2022-02-12_12h14.58.248,lexical_decision_task_DD_L3,2021.2.3,Win32,119.9904008,,,,,,,,,,,0.9822,1,,,,,,,,,,,,,,,,,,,,,,,,,-0.234259259,0.012037037,0,0,0,,,,,,,DOUGH,C,m,m,./images/DOUGH.png,,,,,,,,,,,,,,,,,,,,m,1,0.9822,,,,,,,,0,7,7,19,1
,,,,,,,,,,,,,,,,,5d261fee347b0000014ab55a,53,2022-02-12_12h14.58.248,lexical_decision_task_DD_L3,2021.2.3,Win32,119.9904008,,,,,,,,,,,0.842,1,,,,,,,,,,,,,,,,,,,,,,,,,-0.234259259,0.012037037,0,0,0,,,,,,,GRANNY,HB,z,m,./images/GRANNYHB.png,,,,,,,,,,,,,,,,,,,,z,1,0.842,,,,,,,,0,8,8,104,1
,,,,,,,,,,,,,,,,,5d261fee347b0000014ab55a,53,2022-02-12_12h14.58.248,lexical_decision_task_DD_L3,2021.2.3,Win32,119.9904008,,,,,,,,,,,0.8944,1,,,,,,,,,,,,,,,,,,,,,,,,,-0.234259259,0.012037037,0,0,0,,,,,,,PACKET,HB,m,m,./images/PACKETHB.png,,,,,,,,,,,,,,,,,,,,m,1,0.8944,,,,,,,,0,9,9,56,1
,,,,,,,,,,,,,,,,,5d261fee347b0000014ab55a,53,2022-02-12_12h14.58.248,lexical_decision_task_DD_L3,2021.2.3,Win32,119.9904008,,,,,,,,,,,1.3835,1,,,,,,,,,,,,,,,,,,,,,,,,,-0.234259259,0.012037037,0,0,0,,,,,,,DIVER,LB,z,m,./images/DIVERLB.png,,,,,,,,,,,,,,,,,,,,z,1,1.3835,,,,,,,,0,10,10,93,1
,,,,,,,,,,,,,,,,,5d261fee347b0000014ab55a,53,2022-02-12_12h14.58.248,lexical_decision_task_DD_L3,2021.2.3,Win32,119.9904008,,,,,,,,,,,1.0366,1,,,,,,,,,,,,,,,,,,,,,,,,,-0.234259259,0.012037037,0,0,0,,,,,,,HEATER,HB,z,m,./images/HEATERHB.png,,,,,,,,,,,,,,,,,,,,z,1,1.0366,,,,,,,,0,11,11,140,1
,,,,,,,,,,,,,,,,,5d261fee347b0000014ab55a,53,2022-02-12_12h14.58.248,lexical_decision_task_DD_L3,2021.2.3,Win32,119.9904008,,,,,,,,,,,0.918,1,,,,,,,,,,,,,,,,,,,,,,,,,-0.234259259,0.012037037,0,0,0,,,,,,,SKIING,HB,m,m,./images/SKIINGHB.png,,,,,,,,,,,,,,,,,,,,m,1,0.918,,,,,,,,0,12,12,17,1
,,,,,,,,,,,,,,,,,5d261fee347b0000014ab55a,53,2022-02-12_12h14.58.248,lexical_decision_task_DD_L3,2021.2.3,Win32,119.9904008,,,,,,,,,,,0.8308,1,,,,,,,,,,,,,,,,,,,,,,,,,-0.234259259,0.012037037,0,0,0,,,,,,,MEDAL,HB,z,m,./images/MEDALHB.png,,,,,,,,,,,,,,,,,,,,z,1,0.8308,,,,,,,,0,13,13,95,1
,,,,,,,,,,,,,,,,,5d261fee347b0000014ab55a,53,2022-02-12_12h14.58.248,lexical_decision_task_DD_L3,2021.2.3,Win32,119.9904008,,,,,,,,,,,2.2668,1,,,,,,,,,,,,,,,,,,,,,,,,,-0.234259259,0.012037037,0,0,0,,,,,,,BUBBLE,HB,z,m,./images/BUBBLEHB.png,,,,,,,,,,,,,,,,,,,,z,1,2.2668,,,,,,,,0,14,14,155,1
,,,,,,,,,,,,,,,,,5d261fee347b0000014ab55a,53,2022-02-12_12h14.58.248,lexical_decision_task_DD_L3,2021.2.3,Win32,119.9904008,,,,,,,,,,,1.6925,0,,,,,,,,,,,,,,,,,,,,,,,,,-0.234259259,0.012037037,0,0,0,,,,,,,SQUARE,LB,m,m,./images/SQUARELB.png,,,,,,,,,,,,,,,,,,,,z,0,1.6925,,,,,,,,0,15,15,6,1
,,,,,,,,,,,,,,,,,5d261fee347b0000014ab55a,53,2022-02-12_12h14.58.248,lexical_decision_task_DD_L3,2021.2.3,Win32,119.9904008,,,,,,,,,,,0.8444,1,,,,,,,,,,,,,,,,,,,,,,,,,-0.234259259,0.012037037,0,0,0,,,,,,,MOOSE,LB,m,m,./images/MOOSELB.png,,,,,,,,,,,,,,,,,,,,m,1,0.8444,,,,,,,,0,16,16,57,1
,,,,,,,,,,,,,,,,,5d261fee347b0000014ab55a,53,2022-02-12_12h14.58.248,lexical_decision_task_DD_L3,2021.2.3,Win32,119.9904008,,,,,,,,,,,1.1953,1,,,,,,,,,,,,,,,,,,,,,,,,,-0.234259259,0.012037037,0,0,0,,,,,,,BRIDE,C,z,m,./images/BRIDE.png,,,,,,,,,,,,,,,,,,,,z,1,1.1953,,,,,,,,0,17,17,148,1
,,,,,,,,,,,,,,,,,5d261fee347b0000014ab55a,53,2022-02-12_12h14.58.248,lexical_decision_task_DD_L3,2021.2.3,Win32,119.9904008,,,,,,,,,,,0.9817,1,,,,,,,,,,,,,,,,,,,,,,,,,-0.234259259,0.012037037,0,0,0,,,,,,,FLESH,LB,z,m,./images/FLESHLB.png,,,,,,,,,,,,,,,,,,,,z,1,0.9817,,,,,,,,0,18,18,108,1
,,,,,,,,,,,,,,,,,5d261fee347b0000014ab55a,53,2022-02-12_12h14.58.248,lexical_decision_task_DD_L3,2021.2.3,Win32,119.9904008,,,,,,,,,,,1.1541,1,,,,,,,,,,,,,,,,,,,,,,,,,-0.234259259,0.012037037,0,0,0,,,,,,,FERRY,LB,z,m,./images/FERRYLB.png,,,,,,,,,,,,,,,,,,,,z,1,1.1541,,,,,,,,0,19,19,141,1
,,,,,,,,,,,,,,,,,5d261fee347b0000014ab55a,53,2022-02-12_12h14.58.248,lexical_decision_task_DD_L3,2021.2.3,Win32,119.9904008,,,,,,,,,,,0.8107,1,,,,,,,,,,,,,,,,,,,,,,,,,-0.234259259,0.012037037,0,0,0,,,,,,,SCREW,LB,m,m,./images/SCREWLB.png,,,,,,,,,,,,,,,,,,,,m,1,0.8107,,,,,,,,0,20,20,24,1
,,,,,,,,,,,,,,,,,5d261fee347b0000014ab55a,53,2022-02-12_12h14.58.248,lexical_decision_task_DD_L3,2021.2.3,Win32,119.9904008,,,,,,,,,,,0.7563,1,,,,,,,,,,,,,,,,,,,,,,,,,-0.234259259,0.012037037,0,0,0,,,,,,,PLANK,C,m,m,./images/PLANK.png,,,,,,,,,,,,,,,,,,,,m,1,0.7563,,,,,,,,0,21,21,1,1
,,,,,,,,,,,,,,,,,5d261fee347b0000014ab55a,53,2022-02-12_12h14.58.248,lexical_decision_task_DD_L3,2021.2.3,Win32,119.9904008,,,,,,,,,,,1.3467,1,,,,,,,,,,,,,,,,,,,,,,,,,-0.234259259,0.012037037,0,0,0,,,,,,,FARMER,HB,m,m,./images/FARMERHB.png,,,,,,,,,,,,,,,,,,,,m,1,1.3467,,,,,,,,0,22,22,65,1
,,,,,,,,,,,,,,,,,5d261fee347b0000014ab55a,53,2022-02-12_12h14.58.248,lexical_decision_task_DD_L3,2021.2.3,Win32,119.9904008,,,,,,,,,,,1.5007,0,,,,,,,,,,,,,,,,,,,,,,,,,-0.234259259,0.012037037,0,0,0,,,,,,,CRUST,C,m,m,./images/CRUST.png,,,,,,,,,,,,,,,,,,,,z,0,1.5007,,,,,,,,0,23,23,79,1
,,,,,,,,,,,,,,,,,5d261fee347b0000014ab55a,53,2022-02-12_12h14.58.248,lexical_decision_task_DD_L3,2021.2.3,Win32,119.9904008,,,,,,,,,,,0.9216,1,,,,,,,,,,,,,,,,,,,,,,,,,-0.234259259,0.012037037,0,0,0,,,,,,,PIMPLE,HB,m,m,./images/PIMPLEHB.png,,,,,,,,,,,,,,,,,,,,m,1,0.9216,,,,,,,,0,24,24,71,1
,,,,,,,,,,,,,,,,,5d261fee347b0000014ab55a,53,2022-02-12_12h14.58.248,lexical_decision_task_DD_L3,2021.2.3,Win32,119.9904008,,,,,,,,,,,0.8299,1,,,,,,,,,,,,,,,,,,,,,,,,,-0.234259259,0.012037037,0,0,0,,,,,,,PISTOL,HB,z,m,./images/PISTOLHB.png,,,,,,,,,,,,,,,,,,,,z,1,0.8299,,,,,,,,0,25,25,113,1
,,,,,,,,,,,,,,,,,5d261fee347b0000014ab55a,53,2022-02-12_12h14.58.248,lexical_decision_task_DD_L3,2021.2.3,Win32,119.9904008,,,,,,,,,,,0.7764,1,,,,,,,,,,,,,,,,,,,,,,,,,-0.234259259,0.012037037,0,0,0,,,,,,,WRIST,C,m,m,./images/WRIST.png,,,,,,,,,,,,,,,,,,,,m,1,0.7764,,,,,,,,0,26,26,25,1
,,,,,,,,,,,,,,,,,5d261fee347b0000014ab55a,53,2022-02-12_12h14.58.248,lexical_decision_task_DD_L3,2021.2.3,Win32,119.9904008,,,,,,,,,,,0.7132,1,,,,,,,,,,,,,,,,,,,,,,,,,-0.234259259,0.012037037,0,0,0,,,,,,,MOTOR,C,m,m,./images/MOTOR.png,,,,,,,,,,,,,,,,,,,,m,1,0.7132,,,,,,,,0,27,27,13,1
,,,,,,,,,,,,,,,,,5d261fee347b0000014ab55a,53,2022-02-12_12h14.58.248,lexical_decision_task_DD_L3,2021.2.3,Win32,119.9904008,,,,,,,,,,,2.1004,0,,,,,,,,,,,,,,,,,,,,,,,,,-0.234259259,0.012037037,0,0,0,,,,,,,SHELF,LB,m,m,./images/SHELFLB.png,,,,,,,,,,,,,,,,,,,,z,0,2.1004,,,,,,,,0,28,28,39,1
,,,,,,,,,,,,,,,,,5d261fee347b0000014ab55a,53,2022-02-12_12h14.58.248,lexical_decision_task_DD_L3,2021.2.3,Win32,119.9904008,,,,,,,,,,,2.6067,1,,,,,,,,,,,,,,,,,,,,,,,,,-0.234259259,0.012037037,0,0,0,,,,,,,CRUMB,HB,m,m,./images/CRUMBHB.png,,,,,,,,,,,,,,,,,,,,m,1,2.6067,,,,,,,,0,29,29,29,1
,,,,,,,,,,,,,,,,,5d261fee347b0000014ab55a,53,2022-02-12_12h14.58.248,lexical_decision_task_DD_L3,2021.2.3,Win32,119.9904008,,,,,,,,,,,0.8492,1,,,,,,,,,,,,,,,,,,,,,,,,,-0.234259259,0.012037037,0,0,0,,,,,,,PASTA,HB,m,m,./images/PASTAHB.png,,,,,,,,,,,,,,,,,,,,m,1,0.8492,,,,,,,,0,30,30,5,1
,,,,,,,,,,,,,,,,,5d261fee347b0000014ab55a,53,2022-02-12_12h14.58.248,lexical_decision_task_DD_L3,2021.2.3,Win32,119.9904008,,,,,,,,,,,0.7148,1,,,,,,,,,,,,,,,,,,,,,,,,,-0.234259259,0.012037037,0,0,0,,,,,,,BURIAL,HB,m,m,./images/BURIALHB.png,,,,,,,,,,,,,,,,,,,,m,1,0.7148,,,,,,,,0,31,31,59,1
,,,,,,,,,,,,,,,,,5d261fee347b0000014ab55a,53,2022-02-12_12h14.58.248,lexical_decision_task_DD_L3,2021.2.3,Win32,119.9904008,,,,,,,,,,,0.7333,1,,,,,,,,,,,,,,,,,,,,,,,,,-0.234259259,0.012037037,0,0,0,,,,,,,PICKLE,HB,m,m,./images/PICKLEHB.png,,,,,,,,,,,,,,,,,,,,m,1,0.7333,,,,,,,,0,32,32,14,1
,,,,,,,,,,,,,,,,,5d261fee347b0000014ab55a,53,2022-02-12_12h14.58.248,lexical_decision_task_DD_L3,2021.2.3,Win32,119.9904008,,,,,,,,,,,0.7161,1,,,,,,,,,,,,,,,,,,,,,,,,,-0.234259259,0.012037037,0,0,0,,,,,,,LIZARD,HB,m,m,./images/LIZARDHB.png,,,,,,,,,,,,,,,,,,,,m,1,0.7161,,,,,,,,0,33,33,44,1
,,,,,,,,,,,,,,,,,5d261fee347b0000014ab55a,53,2022-02-12_12h14.58.248,lexical_decision_task_DD_L3,2021.2.3,Win32,119.9904008,,,,,,,,,,,1.3737,1,,,,,,,,,,,,,,,,,,,,,,,,,-0.234259259,0.012037037,0,0,0,,,,,,,STAIN,LB,z,m,./images/STAINLB.png,,,,,,,,,,,,,,,,,,,,z,1,1.3737,,,,,,,,0,34,34,90,1
,,,,,,,,,,,,,,,,,5d261fee347b0000014ab55a,53,2022-02-12_12h14.58.248,lexical_decision_task_DD_L3,2021.2.3,Win32,119.9904008,,,,,,,,,,,0.7673,1,,,,,,,,,,,,,,,,,,,,,,,,,-0.234259259,0.012037037,0,0,0,,,,,,,LITTER,LB,m,m,./images/LITTERLB.png,,,,,,,,,,,,,,,,,,,,m,1,0.7673,,,,,,,,0,35,35,78,1
,,,,,,,,,,,,,,,,,5d261fee347b0000014ab55a,53,2022-02-12_12h14.58.248,lexical_decision_task_DD_L3,2021.2.3,Win32,119.9904008,,,,,,,,,,,1.0337,0,,,,,,,,,,,,,,,,,,,,,,,,,-0.234259259,0.012037037,0,0,0,,,,,,,BASKET,HB,z,m,./images/BASKETHB.png,,,,,,,,,,,,,,,,,,,,m,0,1.0337,,,,,,,,0,36,36,128,1
,,,,,,,,,,,,,,,,,5d261fee347b0000014ab55a,53,2022-02-12_12h14.58.248,lexical_decision_task_DD_L3,2021.2.3,Win32,119.9904008,,,,,,,,,,,0.7959,1,,,,,,,,,,,,,,,,,,,,,,,,,-0.234259259,0.012037037,0,0,0,,,,,,,DONKEY,C,z,m,./images/DONKEY.png,,,,,,,,,,,,,,,,,,,,z,1,0.7959,,,,,,,,0,37,37,103,1
,,,,,,,,,,,,,,,,,5d261fee347b0000014ab55a,53,2022-02-12_12h14.58.248,lexical_decision_task_DD_L3,2021.2.3,Win32,119.9904008,,,,,,,,,,,1.377,0,,,,,,,,,,,,,,,,,,,,,,,,,-0.234259259,0.012037037,0,0,0,,,,,,,BIRTH,C,m,m,./images/BIRTH.png,,,,,,,,,,,,,,,,,,,,z,0,1.377,,,,,,,,0,38,38,37,1
,,,,,,,,,,,,,,,,,5d261fee347b0000014ab55a,53,2022-02-12_12h14.58.248,lexical_decision_task_DD_L3,2021.2.3,Win32,119.9904008,,,,,,,,,,,1.0992,1,,,,,,,,,,,,,,,,,,,,,,,,,-0.234259259,0.012037037,0,0,0,,,,,,,TOWEL,C,z,m,./images/TOWEL.png,,,,,,,,,,,,,,,,,,,,z,1,1.0992,,,,,,,,0,39,39,85,1
,,,,,,,,,,,,,,,,,5d261fee347b0000014ab55a,53,2022-02-12_12h14.58.248,lexical_decision_task_DD_L3,2021.2.3,Win32,119.9904008,,,,,,,,,,,5.8939,0,,,,,,,,,,,,,,,,,,,,,,,,,-0.234259259,0.012037037,0,0,0,,,,,,,QUILL,C,m,m,./images/QUILL.png,,,,,,,,,,,,,,,,,,,,z,0,5.8939,,,,,,,,0,40,40,31,1
,,,,,,,,,,,,,,,,,5d261fee347b0000014ab55a,53,2022-02-12_12h14.58.248,lexical_decision_task_DD_L3,2021.2.3,Win32,119.9904008,,,,,,,,,,,2.8836,1,,,,,,,,,,,,,,,,,,,,,,,,,-0.234259259,0.012037037,0,0,0,space,,,,,,PILOT,HB,z,m,./images/PILOTHB.png,1.4766,,,,,,,,,,,,,,,,,,,z,1,2.8836,,,,,,,,0,41,41,134,1
,,,,,,,,,,,,,,,,,5d261fee347b0000014ab55a,53,2022-02-12_12h14.58.248,lexical_decision_task_DD_L3,2021.2.3,Win32,119.9904008,,,,,,,,,,,1.0499,1,,,,,,,,,,,,,,,,,,,,,,,,,-0.234259259,0.012037037,0,0,0,,,,,,,MAMMAL,HB,z,m,./images/MAMMALHB.png,,,,,,,,,,,,,,,,,,,,z,1,1.0499,,,,,,,,0,42,42,146,1
,,,,,,,,,,,,,,,,,5d261fee347b0000014ab55a,53,2022-02-12_12h14.58.248,lexical_decision_task_DD_L3,2021.2.3,Win32,119.9904008,,,,,,,,,,,2.4689,0,,,,,,,,,,,,,,,,,,,,,,,,,-0.234259259,0.012037037,0,0,0,,,,,,,SHORE,LB,m,m,./images/SHORELB.png,,,,,,,,,,,,,,,,,,,,z,0,2.4689,,,,,,,,0,43,43,12,1
,,,,,,,,,,,,,,,,,5d261fee347b0000014ab55a,53,2022-02-12_12h14.58.248,lexical_decision_task_DD_L3,2021.2.3,Win32,119.9904008,,,,,,,,,,,0.7712,1,,,,,,,,,,,,,,,,,,,,,,,,,-0.234259259,0.012037037,0,0,0,,,,,,,URINE,C,m,m,./images/URINE.png,,,,,,,,,,,,,,,,,,,,m,1,0.7712,,,,,,,,0,44,44,70,1
,,,,,,,,,,,,,,,,,5d261fee347b0000014ab55a,53,2022-02-12_12h14.58.248,lexical_decision_task_DD_L3,2021.2.3,Win32,119.9904008,,,,,,,,,,,2.87,0,,,,,,,,,,,,,,,,,,,,,,,,,-0.234259259,0.012037037,0,0,0,,,,,,,DESERT,C,z,m,./images/DESERT.png,,,,,,,,,,,,,,,,,,,,m,0,2.87,,,,,,,,0,45,45,136,1
,,,,,,,,,,,,,,,,,5d261fee347b0000014ab55a,53,2022-02-12_12h14.58.248,lexical_decision_task_DD_L3,2021.2.3,Win32,119.9904008,,,,,,,,,,,2.3843,1,,,,,,,,,,,,,,,,,,,,,,,,,-0.234259259,0.012037037,0,0,0,,,,,,,RULER,C,z,m,./images/RULER.png,,,,,,,,,,,,,,,,,,,,z,1,2.3843,,,,,,,,0,46,46,163,1
,,,,,,,,,,,,,,,,,5d261fee347b0000014ab55a,53,2022-02-12_12h14.58.248,lexical_decision_task_DD_L3,2021.2.3,Win32,119.9904008,,,,,,,,,,,2.208,0,,,,,,,,,,,,,,,,,,,,,,,,,-0.234259259,0.012037037,0,0,0,,,,,,,FENCE,HB,z,m,./images/FENCEHB.png,,,,,,,,,,,,,,,,,,,,m,0,2.208,,,,,,,,0,47,47,98,1
,,,,,,,,,,,,,,,,,5d261fee347b0000014ab55a,53,2022-02-12_12h14.58.248,lexical_decision_task_DD_L3,2021.2.3,Win32,119.9904008,,,,,,,,,,,0.8945,1,,,,,,,,,,,,,,,,,,,,,,,,,-0.234259259,0.012037037,0,0,0,,,,,,,TOMATO,LB,m,m,./images/TOMATOLB.png,,,,,,,,,,,,,,,,,,,,m,1,0.8945,,,,,,,,0,48,48,0,1
,,,,,,,,,,,,,,,,,5d261fee347b0000014ab55a,53,2022-02-12_12h14.58.248,lexical_decision_task_DD_L3,2021.2.3,Win32,119.9904008,,,,,,,,,,,0.8525,1,,,,,,,,,,,,,,,,,,,,,,,,,-0.234259259,0.012037037,0,0,0,,,,,,,MUMMY,C,z,m,./images/MUMMY.png,,,,,,,,,,,,,,,,,,,,z,1,0.8525,,,,,,,,0,49,49,130,1
,,,,,,,,,,,,,,,,,5d261fee347b0000014ab55a,53,2022-02-12_12h14.58.248,lexical_decision_task_DD_L3,2021.2.3,Win32,119.9904008,,,,,,,,,,,1.1086,1,,,,,,,,,,,,,,,,,,,,,,,,,-0.234259259,0.012037037,0,0,0,,,,,,,HOCKEY,HB,z,m,./images/HOCKEYHB.png,,,,,,,,,,,,,,,,,,,,z,1,1.1086,,,,,,,,0,50,50,116,1
,,,,,,,,,,,,,,,,,5d261fee347b0000014ab55a,53,2022-02-12_12h14.58.248,lexical_decision_task_DD_L3,2021.2.3,Win32,119.9904008,,,,,,,,,,,0.7615,1,,,,,,,,,,,,,,,,,,,,,,,,,-0.234259259,0.012037037,0,0,0,,,,,,,PENCE,C,m,m,./images/PENCE.png,,,,,,,,,,,,,,,,,,,,m,1,0.7615,,,,,,,,0,51,51,16,1
,,,,,,,,,,,,,,,,,5d261fee347b0000014ab55a,53,2022-02-12_12h14.58.248,lexical_decision_task_DD_L3,2021.2.3,Win32,119.9904008,,,,,,,,,,,0.7365,1,,,,,,,,,,,,,,,,,,,,,,,,,-0.234259259,0.012037037,0,0,0,,,,,,,POODLE,LB,m,m,./images/POODLELB.png,,,,,,,,,,,,,,,,,,,,m,1,0.7365,,,,,,,,0,52,52,81,1
,,,,,,,,,,,,,,,,,5d261fee347b0000014ab55a,53,2022-02-12_12h14.58.248,lexical_decision_task_DD_L3,2021.2.3,Win32,119.9904008,,,,,,,,,,,0.7026,1,,,,,,,,,,,,,,,,,,,,,,,,,-0.234259259,0.012037037,0,0,0,,,,,,,JAGUAR,LB,m,m,./images/JAGUARLB.png,,,,,,,,,,,,,,,,,,,,m,1,0.7026,,,,,,,,0,53,53,18,1
,,,,,,,,,,,,,,,,,5d261fee347b0000014ab55a,53,2022-02-12_12h14.58.248,lexical_decision_task_DD_L3,2021.2.3,Win32,119.9904008,,,,,,,,,,,2.4822,1,,,,,,,,,,,,,,,,,,,,,,,,,-0.234259259,0.012037037,0,0,0,,,,,,,LLAMA,HB,z,m,./images/LLAMAHB.png,,,,,,,,,,,,,,,,,,,,z,1,2.4822,,,,,,,,0,54,54,119,1
,,,,,,,,,,,,,,,,,5d261fee347b0000014ab55a,53,2022-02-12_12h14.58.248,lexical_decision_task_DD_L3,2021.2.3,Win32,119.9904008,,,,,,,,,,,1.0076,1,,,,,,,,,,,,,,,,,,,,,,,,,-0.234259259,0.012037037,0,0,0,,,,,,,CANYON,C,m,m,./images/CANYON.png,,,,,,,,,,,,,,,,,,,,m,1,1.0076,,,,,,,,0,55,55,34,1
,,,,,,,,,,,,,,,,,5d261fee347b0000014ab55a,53,2022-02-12_12h14.58.248,lexical_decision_task_DD_L3,2021.2.3,Win32,119.9904008,,,,,,,,,,,1.0957,1,,,,,,,,,,,,,,,,,,,,,,,,,-0.234259259,0.012037037,0,0,0,,,,,,,BLOKE,LB,z,m,./images/BLOKELB.png,,,,,,,,,,,,,,,,,,,,z,1,1.0957,,,,,,,,0,56,56,96,1
,,,,,,,,,,,,,,,,,5d261fee347b0000014ab55a,53,2022-02-12_12h14.58.248,lexical_decision_task_DD_L3,2021.2.3,Win32,119.9904008,,,,,,,,,,,1.7113,1,,,,,,,,,,,,,,,,,,,,,,,,,-0.234259259,0.012037037,0,0,0,,,,,,,STOOL,C,z,m,./images/STOOL.png,,,,,,,,,,,,,,,,,,,,z,1,1.7113,,,,,,,,0,57,57,127,1
,,,,,,,,,,,,,,,,,5d261fee347b0000014ab55a,53,2022-02-12_12h14.58.248,lexical_decision_task_DD_L3,2021.2.3,Win32,119.9904008,,,,,,,,,,,4.363,1,,,,,,,,,,,,,,,,,,,,,,,,,-0.234259259,0.012037037,0,0,0,,,,,,,MUFFIN,C,m,m,./images/MUFFIN.png,,,,,,,,,,,,,,,,,,,,m,1,4.363,,,,,,,,0,58,58,55,1
,,,,,,,,,,,,,,,,,5d261fee347b0000014ab55a,53,2022-02-12_12h14.58.248,lexical_decision_task_DD_L3,2021.2.3,Win32,119.9904008,,,,,,,,,,,0.8267,1,,,,,,,,,,,,,,,,,,,,,,,,,-0.234259259,0.012037037,0,0,0,,,,,,,MOSQUE,C,m,m,./images/MOSQUE.png,,,,,,,,,,,,,,,,,,,,m,1,0.8267,,,,,,,,0,59,59,43,1
,,,,,,,,,,,,,,,,,5d261fee347b0000014ab55a,53,2022-02-12_12h14.58.248,lexical_decision_task_DD_L3,2021.2.3,Win32,119.9904008,,,,,,,,,,,0.6964,1,,,,,,,,,,,,,,,,,,,,,,,,,-0.234259259,0.012037037,0,0,0,,,,,,,FOLDER,LB,m,m,./images/FOLDERLB.png,,,,,,,,,,,,,,,,,,,,m,1,0.6964,,,,,,,,0,60,60,42,1
,,,,,,,,,,,,,,,,,5d261fee347b0000014ab55a,53,2022-02-12_12h14.58.248,lexical_decision_task_DD_L3,2021.2.3,Win32,119.9904008,,,,,,,,,,,1.7425,1,,,,,,,,,,,,,,,,,,,,,,,,,-0.234259259,0.012037037,0,0,0,,,,,,,VALLEY,HB,z,m,./images/VALLEYHB.png,,,,,,,,,,,,,,,,,,,,z,1,1.7425,,,,,,,,0,61,61,152,1
,,,,,,,,,,,,,,,,,5d261fee347b0000014ab55a,53,2022-02-12_12h14.58.248,lexical_decision_task_DD_L3,2021.2.3,Win32,119.9904008,,,,,,,,,,,1.5325,1,,,,,,,,,,,,,,,,,,,,,,,,,-0.234259259,0.012037037,0,0,0,,,,,,,GLOVE,C,z,m,./images/GLOVE.png,,,,,,,,,,,,,,,,,,,,z,1,1.5325,,,,,,,,0,62,62,157,1
,,,,,,,,,,,,,,,,,5d261fee347b0000014ab55a,53,2022-02-12_12h14.58.248,lexical_decision_task_DD_L3,2021.2.3,Win32,119.9904008,,,,,,,,,,,0.7723,1,,,,,,,,,,,,,,,,,,,,,,,,,-0.234259259,0.012037037,0,0,0,,,,,,,WEASEL,HB,m,m,./images/WEASELHB.png,,,,,,,,,,,,,,,,,,,,m,1,0.7723,,,,,,,,0,63,63,80,1
,,,,,,,,,,,,,,,,,5d261fee347b0000014ab55a,53,2022-02-12_12h14.58.248,lexical_decision_task_DD_L3,2021.2.3,Win32,119.9904008,,,,,,,,,,,1.7809,1,,,,,,,,,,,,,,,,,,,,,,,,,-0.234259259,0.012037037,0,0,0,,,,,,,BOILER,LB,z,m,./images/BOILERLB.png,,,,,,,,,,,,,,,,,,,,z,1,1.7809,,,,,,,,0,64,64,120,1
,,,,,,,,,,,,,,,,,5d261fee347b0000014ab55a,53,2022-02-12_12h14.58.248,lexical_decision_task_DD_L3,2021.2.3,Win32,119.9904008,,,,,,,,,,,1.0746,1,,,,,,,,,,,,,,,,,,,,,,,,,-0.234259259,0.012037037,0,0,0,,,,,,,JUMPER,HB,z,m,./images/JUMPERHB.png,,,,,,,,,,,,,,,,,,,,z,1,1.0746,,,,,,,,0,65,65,158,1
,,,,,,,,,,,,,,,,,5d261fee347b0000014ab55a,53,2022-02-12_12h14.58.248,lexical_decision_task_DD_L3,2021.2.3,Win32,119.9904008,,,,,,,,,,,1.0351,0,,,,,,,,,,,,,,,,,,,,,,,,,-0.234259259,0.012037037,0,0,0,,,,,,,ATTIC,LB,m,m,./images/ATTICLB.png,,,,,,,,,,,,,,,,,,,,z,0,1.0351,,,,,,,,0,66,66,27,1
,,,,,,,,,,,,,,,,,5d261fee347b0000014ab55a,53,2022-02-12_12h14.58.248,lexical_decision_task_DD_L3,2021.2.3,Win32,119.9904008,,,,,,,,,,,0.9335,1,,,,,,,,,,,,,,,,,,,,,,,,,-0.234259259,0.012037037,0,0,0,,,,,,,PEACH,HB,m,m,./images/PEACHHB.png,,,,,,,,,,,,,,,,,,,,m,1,0.9335,,,,,,,,0,67,67,35,1
,,,,,,,,,,,,,,,,,5d261fee347b0000014ab55a,53,2022-02-12_12h14.58.248,lexical_decision_task_DD_L3,2021.2.3,Win32,119.9904008,,,,,,,,,,,1.0263,1,,,,,,,,,,,,,,,,,,,,,,,,,-0.234259259,0.012037037,0,0,0,,,,,,,ARROW,LB,z,m,./images/ARROWLB.png,,,,,,,,,,,,,,,,,,,,z,1,1.0263,,,,,,,,0,68,68,153,1
,,,,,,,,,,,,,,,,,5d261fee347b0000014ab55a,53,2022-02-12_12h14.58.248,lexical_decision_task_DD_L3,2021.2.3,Win32,119.9904008,,,,,,,,,,,2.9725,1,,,,,,,,,,,,,,,,,,,,,,,,,-0.234259259,0.012037037,0,0,0,,,,,,,BERRY,HB,m,m,./images/BERRYHB.png,,,,,,,,,,,,,,,,,,,,m,1,2.9725,,,,,,,,0,69,69,47,1
,,,,,,,,,,,,,,,,,5d261fee347b0000014ab55a,53,2022-02-12_12h14.58.248,lexical_decision_task_DD_L3,2021.2.3,Win32,119.9904008,,,,,,,,,,,0.8817,1,,,,,,,,,,,,,,,,,,,,,,,,,-0.234259259,0.012037037,0,0,0,,,,,,,JELLY,C,m,m,./images/JELLY.png,,,,,,,,,,,,,,,,,,,,m,1,0.8817,,,,,,,,0,70,70,64,1
,,,,,,,,,,,,,,,,,5d261fee347b0000014ab55a,53,2022-02-12_12h14.58.248,lexical_decision_task_DD_L3,2021.2.3,Win32,119.9904008,,,,,,,,,,,0.8922,1,,,,,,,,,,,,,,,,,,,,,,,,,-0.234259259,0.012037037,0,0,0,,,,,,,ONION,LB,m,m,./images/ONIONLB.png,,,,,,,,,,,,,,,,,,,,m,1,0.8922,,,,,,,,0,71,71,51,1
,,,,,,,,,,,,,,,,,5d261fee347b0000014ab55a,53,2022-02-12_12h14.58.248,lexical_decision_task_DD_L3,2021.2.3,Win32,119.9904008,,,,,,,,,,,1.1724,1,,,,,,,,,,,,,,,,,,,,,,,,,-0.234259259,0.012037037,0,0,0,,,,,,,COLLAR,LB,z,m,./images/COLLARLB.png,,,,,,,,,,,,,,,,,,,,z,1,1.1724,,,,,,,,0,72,72,99,1
,,,,,,,,,,,,,,,,,5d261fee347b0000014ab55a,53,2022-02-12_12h14.58.248,lexical_decision_task_DD_L3,2021.2.3,Win32,119.9904008,,,,,,,,,,,1.975,1,,,,,,,,,,,,,,,,,,,,,,,,,-0.234259259,0.012037037,0,0,0,,,,,,,SWING,C,m,m,./images/SWING.png,,,,,,,,,,,,,,,,,,,,m,1,1.975,,,,,,,,0,73,73,40,1
,,,,,,,,,,,,,,,,,5d261fee347b0000014ab55a,53,2022-02-12_12h14.58.248,lexical_decision_task_DD_L3,2021.2.3,Win32,119.9904008,,,,,,,,,,,0.815,1,,,,,,,,,,,,,,,,,,,,,,,,,-0.234259259,0.012037037,0,0,0,,,,,,,JUNGLE,HB,m,m,./images/JUNGLEHB.png,,,,,,,,,,,,,,,,,,,,m,1,0.815,,,,,,,,0,74,74,83,1
,,,,,,,,,,,,,,,,,5d261fee347b0000014ab55a,53,2022-02-12_12h14.58.248,lexical_decision_task_DD_L3,2021.2.3,Win32,119.9904008,,,,,,,,,,,0.6583,1,,,,,,,,,,,,,,,,,,,,,,,,,-0.234259259,0.012037037,0,0,0,,,,,,,MALLET,HB,m,m,./images/MALLETHB.png,,,,,,,,,,,,,,,,,,,,m,1,0.6583,,,,,,,,0,75,75,50,1
,,,,,,,,,,,,,,,,,5d261fee347b0000014ab55a,53,2022-02-12_12h14.58.248,lexical_decision_task_DD_L3,2021.2.3,Win32,119.9904008,,,,,,,,,,,2.4072,1,,,,,,,,,,,,,,,,,,,,,,,,,-0.234259259,0.012037037,0,0,0,,,,,,,STEAK,C,z,m,./images/STEAK.png,,,,,,,,,,,,,,,,,,,,z,1,2.4072,,,,,,,,0,76,76,115,1
,,,,,,,,,,,,,,,,,5d261fee347b0000014ab55a,53,2022-02-12_12h14.58.248,lexical_decision_task_DD_L3,2021.2.3,Win32,119.9904008,,,,,,,,,,,0.9507,0,,,,,,,,,,,,,,,,,,,,,,,,,-0.234259259,0.012037037,0,0,0,,,,,,,KITTEN,LB,m,m,./images/KITTENLB.png,,,,,,,,,,,,,,,,,,,,z,0,0.9507,,,,,,,,0,77,77,45,1
,,,,,,,,,,,,,,,,,5d261fee347b0000014ab55a,53,2022-02-12_12h14.58.248,lexical_decision_task_DD_L3,2021.2.3,Win32,119.9904008,,,,,,,,,,,1.0945,0,,,,,,,,,,,,,,,,,,,,,,,,,-0.234259259,0.012037037,0,0,0,,,,,,,PURSE,HB,m,m,./images/PURSEHB.png,,,,,,,,,,,,,,,,,,,,z,0,1.0945,,,,,,,,0,78,78,62,1
,,,,,,,,,,,,,,,,,5d261fee347b0000014ab55a,53,2022-02-12_12h14.58.248,lexical_decision_task_DD_L3,2021.2.3,Win32,119.9904008,,,,,,,,,,,1.5056,1,,,,,,,,,,,,,,,,,,,,,,,,,-0.234259259,0.012037037,0,0,0,,,,,,,FINGER,LB,m,m,./images/FINGERLB.png,,,,,,,,,,,,,,,,,,,,m,1,1.5056,,,,,,,,0,79,79,3,1
,,,,,,,,,,,,,,,,,5d261fee347b0000014ab55a,53,2022-02-12_12h14.58.248,lexical_decision_task_DD_L3,2021.2.3,Win32,119.9904008,,,,,,,,,,,1.0512,1,,,,,,,,,,,,,,,,,,,,,,,,,-0.234259259,0.012037037,0,0,0,,,,,,,WHEEL,HB,z,m,./images/WHEELHB.png,,,,,,,,,,,,,,,,,,,,z,1,1.0512,,,,,,,,0,80,80,161,1
,,,,,,,,,,,,,,,,,5d261fee347b0000014ab55a,53,2022-02-12_12h14.58.248,lexical_decision_task_DD_L3,2021.2.3,Win32,119.9904008,,,,,,,,,,,0.7493,1,,,,,,,,,,,,,,,,,,,,,,,,,-0.234259259,0.012037037,0,0,0,,,,,,,BEARD,HB,m,m,./images/BEARDHB.png,,,,,,,,,,,,,,,,,,,,m,1,0.7493,,,,,,,,0,81,81,2,1
,,,,,,,,,,,,,,,,,5d261fee347b0000014ab55a,53,2022-02-12_12h14.58.248,lexical_decision_task_DD_L3,2021.2.3,Win32,119.9904008,,,,,,,,,,,1.4635,1,,,,,,,,,,,,,,,,,,,,,,,,,-0.234259259,0.012037037,0,0,0,,,,,,,CLOTH,HB,z,m,./images/CLOTHHB.png,,,,,,,,,,,,,,,,,,,,z,1,1.4635,,,,,,,,0,82,82,107,1
,,,,,,,,,,,,,,,,,5d261fee347b0000014ab55a,53,2022-02-12_12h14.58.248,lexical_decision_task_DD_L3,2021.2.3,Win32,119.9904008,,,,,,,,,,,0.9884,1,,,,,,,,,,,,,,,,,,,,,,,,,-0.234259259,0.012037037,0,0,0,space,,,,,,BROOM,LB,z,m,./images/BROOMLB.png,1.0005,,,,,,,,,,,,,,,,,,,z,1,0.9884,,,,,,,,0,83,83,162,1
,,,,,,,,,,,,,,,,,5d261fee347b0000014ab55a,53,2022-02-12_12h14.58.248,lexical_decision_task_DD_L3,2021.2.3,Win32,119.9904008,,,,,,,,,,,1.6778,1,,,,,,,,,,,,,,,,,,,,,,,,,-0.234259259,0.012037037,0,0,0,,,,,,,BAMBOO,HB,z,m,./images/BAMBOOHB.png,,,,,,,,,,,,,,,,,,,,z,1,1.6778,,,,,,,,0,84,84,89,1
,,,,,,,,,,,,,,,,,5d261fee347b0000014ab55a,53,2022-02-12_12h14.58.248,lexical_decision_task_DD_L3,2021.2.3,Win32,119.9904008,,,,,,,,,,,1.0552,1,,,,,,,,,,,,,,,,,,,,,,,,,-0.234259259,0.012037037,0,0,0,,,,,,,TORCH,HB,m,m,./images/TORCHHB.png,,,,,,,,,,,,,,,,,,,,m,1,1.0552,,,,,,,,0,85,85,68,1
,,,,,,,,,,,,,,,,,5d261fee347b0000014ab55a,53,2022-02-12_12h14.58.248,lexical_decision_task_DD_L3,2021.2.3,Win32,119.9904008,,,,,,,,,,,0.8951,1,,,,,,,,,,,,,,,,,,,,,,,,,-0.234259259,0.012037037,0,0,0,,,,,,,CANOE,C,z,m,./images/CANOE.png,,,,,,,,,,,,,,,,,,,,z,1,0.8951,,,,,,,,0,86,86,142,1
,,,,,,,,,,,,,,,,,5d261fee347b0000014ab55a,53,2022-02-12_12h14.58.248,lexical_decision_task_DD_L3,2021.2.3,Win32,119.9904008,,,,,,,,,,,1.0876,0,,,,,,,,,,,,,,,,,,,,,,,,,-0.234259259,0.012037037,0,0,0,,,,,,,COOKER,LB,m,m,./images/COOKERLB.png,,,,,,,,,,,,,,,,,,,,z,0,1.0876,,,,,,,,0,87,87,69,1
,,,,,,,,,,,,,,,,,5d261fee347b0000014ab55a,53,2022-02-12_12h14.58.248,lexical_decision_task_DD_L3,2021.2.3,Win32,119.9904008,,,,,,,,,,,0.883,1,,,,,,,,,,,,,,,,,,,,,,,,,-0.234259259,0.012037037,0,0,0,,,,,,,ENGINE,HB,z,m,./images/ENGINEHB.png,,,,,,,,,,,,,,,,,,,,z,1,0.883,,,,,,,,0,88,88,122,1
,,,,,,,,,,,,,,,,,5d261fee347b0000014ab55a,53,2022-02-12_12h14.58.248,lexical_decision_task_DD_L3,2021.2.3,Win32,119.9904008,,,,,,,,,,,0.8352,1,,,,,,,,,,,,,,,,,,,,,,,,,-0.234259259,0.012037037,0,0,0,,,,,,,CLOWN,C,z,m,./images/CLOWN.png,,,,,,,,,,,,,,,,,,,,z,1,0.8352,,,,,,,,0,89,89,106,1
,,,,,,,,,,,,,,,,,5d261fee347b0000014ab55a,53,2022-02-12_12h14.58.248,lexical_decision_task_DD_L3,2021.2.3,Win32,119.9904008,,,,,,,,,,,1.1145,1,,,,,,,,,,,,,,,,,,,,,,,,,-0.234259259,0.012037037,0,0,0,,,,,,,BUNNY,C,z,m,./images/BUNNY.png,,,,,,,,,,,,,,,,,,,,z,1,1.1145,,,,,,,,0,90,90,97,1
,,,,,,,,,,,,,,,,,5d261fee347b0000014ab55a,53,2022-02-12_12h14.58.248,lexical_decision_task_DD_L3,2021.2.3,Win32,119.9904008,,,,,,,,,,,0.9839,1,,,,,,,,,,,,,,,,,,,,,,,,,-0.234259259,0.012037037,0,0,0,,,,,,,RAZOR,C,z,m,./images/RAZOR.png,,,,,,,,,,,,,,,,,,,,z,1,0.9839,,,,,,,,0,91,91,118,1
,,,,,,,,,,,,,,,,,5d261fee347b0000014ab55a,53,2022-02-12_12h14.58.248,lexical_decision_task_DD_L3,2021.2.3,Win32,119.9904008,,,,,,,,,,,0.7016,1,,,,,,,,,,,,,,,,,,,,,,,,,-0.234259259,0.012037037,0,0,0,,,,,,,BABOON,C,m,m,./images/BABOON.png,,,,,,,,,,,,,,,,,,,,m,1,0.7016,,,,,,,,0,92,92,58,1
,,,,,,,,,,,,,,,,,5d261fee347b0000014ab55a,53,2022-02-12_12h14.58.248,lexical_decision_task_DD_L3,2021.2.3,Win32,119.9904008,,,,,,,,,,,1.2103,1,,,,,,,,,,,,,,,,,,,,,,,,,-0.234259259,0.012037037,0,0,0,,,,,,,BISHOP,C,z,m,./images/BISHOP.png,,,,,,,,,,,,,,,,,,,,z,1,1.2103,,,,,,,,0,93,93,133,1
,,,,,,,,,,,,,,,,,5d261fee347b0000014ab55a,53,2022-02-12_12h14.58.248,lexical_decision_task_DD_L3,2021.2.3,Win32,119.9904008,,,,,,,,,,,1.5752,1,,,,,,,,,,,,,,,,,,,,,,,,,-0.234259259,0.012037037,0,0,0,,,,,,,STOVE,HB,z,m,./images/STOVEHB.png,,,,,,,,,,,,,,,,,,,,z,1,1.5752,,,,,,,,0,94,94,86,1
,,,,,,,,,,,,,,,,,5d261fee347b0000014ab55a,53,2022-02-12_12h14.58.248,lexical_decision_task_DD_L3,2021.2.3,Win32,119.9904008,,,,,,,,,,,1.0123,1,,,,,,,,,,,,,,,,,,,,,,,,,-0.234259259,0.012037037,0,0,0,,,,,,,TIGER,C,z,m,./images/TIGER.png,,,,,,,,,,,,,,,,,,,,z,1,1.0123,,,,,,,,0,95,95,121,1
,,,,,,,,,,,,,,,,,5d261fee347b0000014ab55a,53,2022-02-12_12h14.58.248,lexical_decision_task_DD_L3,2021.2.3,Win32,119.9904008,,,,,,,,,,,1.1431,1,,,,,,,,,,,,,,,,,,,,,,,,,-0.234259259,0.012037037,0,0,0,,,,,,,SMOKER,HB,m,m,./images/SMOKERHB.png,,,,,,,,,,,,,,,,,,,,m,1,1.1431,,,,,,,,0,96,96,26,1
,,,,,,,,,,,,,,,,,5d261fee347b0000014ab55a,53,2022-02-12_12h14.58.248,lexical_decision_task_DD_L3,2021.2.3,Win32,119.9904008,,,,,,,,,,,0.7855,1,,,,,,,,,,,,,,,,,,,,,,,,,-0.234259259,0.012037037,0,0,0,,,,,,,MUSCLE,C,m,m,./images/MUSCLE.png,,,,,,,,,,,,,,,,,,,,m,1,0.7855,,,,,,,,0,97,97,4,1
,,,,,,,,,,,,,,,,,5d261fee347b0000014ab55a,53,2022-02-12_12h14.58.248,lexical_decision_task_DD_L3,2021.2.3,Win32,119.9904008,,,,,,,,,,,1.9033,1,,,,,,,,,,,,,,,,,,,,,,,,,-0.234259259,0.012037037,0,0,0,,,,,,,SLOPE,LB,z,m,./images/SLOPELB.png,,,,,,,,,,,,,,,,,,,,z,1,1.9033,,,,,,,,0,98,98,114,1
,,,,,,,,,,,,,,,,,5d261fee347b0000014ab55a,53,2022-02-12_12h14.58.248,lexical_decision_task_DD_L3,2021.2.3,Win32,119.9904008,,,,,,,,,,,0.8236,1,,,,,,,,,,,,,,,,,,,,,,,,,-0.234259259,0.012037037,0,0,0,,,,,,,SAUNA,LB,z,m,./images/SAUNALB.png,,,,,,,,,,,,,,,,,,,,z,1,0.8236,,,,,,,,0,99,99,117,1
,,,,,,,,,,,,,,,,,5d261fee347b0000014ab55a,53,2022-02-12_12h14.58.248,lexical_decision_task_DD_L3,2021.2.3,Win32,119.9904008,,,,,,,,,,,1.2834,1,,,,,,,,,,,,,,,,,,,,,,,,,-0.234259259,0.012037037,0,0,0,,,,,,,POKER,C,z,m,./images/POKER.png,,,,,,,,,,,,,,,,,,,,z,1,1.2834,,,,,,,,0,100,100,151,1
,,,,,,,,,,,,,,,,,5d261fee347b0000014ab55a,53,2022-02-12_12h14.58.248,lexical_decision_task_DD_L3,2021.2.3,Win32,119.9904008,,,,,,,,,,,0.7673,1,,,,,,,,,,,,,,,,,,,,,,,,,-0.234259259,0.012037037,0,0,0,,,,,,,LADDER,HB,m,m,./images/LADDERHB.png,,,,,,,,,,,,,,,,,,,,m,1,0.7673,,,,,,,,0,101,101,38,1
,,,,,,,,,,,,,,,,,5d261fee347b0000014ab55a,53,2022-02-12_12h14.58.248,lexical_decision_task_DD_L3,2021.2.3,Win32,119.9904008,,,,,,,,,,,0.8559,1,,,,,,,,,,,,,,,,,,,,,,,,,-0.234259259,0.012037037,0,0,0,,,,,,,WHISKY,HB,z,m,./images/WHISKYHB.png,,,,,,,,,,,,,,,,,,,,z,1,0.8559,,,,,,,,0,102,102,167,1
,,,,,,,,,,,,,,,,,5d261fee347b0000014ab55a,53,2022-02-12_12h14.58.248,lexical_decision_task_DD_L3,2021.2.3,Win32,119.9904008,,,,,,,,,,,1.0049,1,,,,,,,,,,,,,,,,,,,,,,,,,-0.234259259,0.012037037,0,0,0,,,,,,,PAINT,C,m,m,./images/PAINT.png,,,,,,,,,,,,,,,,,,,,m,1,1.0049,,,,,,,,0,103,103,7,1
,,,,,,,,,,,,,,,,,5d261fee347b0000014ab55a,53,2022-02-12_12h14.58.248,lexical_decision_task_DD_L3,2021.2.3,Win32,119.9904008,,,,,,,,,,,1.321,1,,,,,,,,,,,,,,,,,,,,,,,,,-0.234259259,0.012037037,0,0,0,,,,,,,TWINS,LB,m,m,./images/TWINSLB.png,,,,,,,,,,,,,,,,,,,,m,1,1.321,,,,,,,,0,104,104,60,1
,,,,,,,,,,,,,,,,,5d261fee347b0000014ab55a,53,2022-02-12_12h14.58.248,lexical_decision_task_DD_L3,2021.2.3,Win32,119.9904008,,,,,,,,,,,2.199,0,,,,,,,,,,,,,,,,,,,,,,,,,-0.234259259,0.012037037,0,0,0,,,,,,,HAMMER,LB,z,m,./images/HAMMERLB.png,,,,,,,,,,,,,,,,,,,,m,0,2.199,,,,,,,,0,105,105,159,1
,,,,,,,,,,,,,,,,,5d261fee347b0000014ab55a,53,2022-02-12_12h14.58.248,lexical_decision_task_DD_L3,2021.2.3,Win32,119.9904008,,,,,,,,,,,0.9477,1,,,,,,,,,,,,,,,,,,,,,,,,,-0.234259259,0.012037037,0,0,0,,,,,,,STATUE,LB,z,m,./images/STATUELB.png,,,,,,,,,,,,,,,,,,,,z,1,0.9477,,,,,,,,0,106,106,150,1
,,,,,,,,,,,,,,,,,5d261fee347b0000014ab55a,53,2022-02-12_12h14.58.248,lexical_decision_task_DD_L3,2021.2.3,Win32,119.9904008,,,,,,,,,,,1.0026,1,,,,,,,,,,,,,,,,,,,,,,,,,-0.234259259,0.012037037,0,0,0,,,,,,,WAGON,C,z,m,./images/WAGON.png,,,,,,,,,,,,,,,,,,,,z,1,1.0026,,,,,,,,0,107,107,91,1
,,,,,,,,,,,,,,,,,5d261fee347b0000014ab55a,53,2022-02-12_12h14.58.248,lexical_decision_task_DD_L3,2021.2.3,Win32,119.9904008,,,,,,,,,,,0.8565,1,,,,,,,,,,,,,,,,,,,,,,,,,-0.234259259,0.012037037,0,0,0,,,,,,,SHIELD,LB,z,m,./images/SHIELDLB.png,,,,,,,,,,,,,,,,,,,,z,1,0.8565,,,,,,,,0,108,108,132,1
,,,,,,,,,,,,,,,,,5d261fee347b0000014ab55a,53,2022-02-12_12h14.58.248,lexical_decision_task_DD_L3,2021.2.3,Win32,119.9904008,,,,,,,,,,,0.9618,0,,,,,,,,,,,,,,,,,,,,,,,,,-0.234259259,0.012037037,0,0,0,,,,,,,GRAIN,LB,m,m,./images/GRAINLB.png,,,,,,,,,,,,,,,,,,,,z,0,0.9618,,,,,,,,0,109,109,75,1
,,,,,,,,,,,,,,,,,5d261fee347b0000014ab55a,53,2022-02-12_12h14.58.248,lexical_decision_task_DD_L3,2021.2.3,Win32,119.9904008,,,,,,,,,,,0.9014,1,,,,,,,,,,,,,,,,,,,,,,,,,-0.234259259,0.012037037,0,0,0,,,,,,,PARADE,HB,z,m,./images/PARADEHB.png,,,,,,,,,,,,,,,,,,,,z,1,0.9014,,,,,,,,0,110,110,101,1
,,,,,,,,,,,,,,,,,5d261fee347b0000014ab55a,53,2022-02-12_12h14.58.248,lexical_decision_task_DD_L3,2021.2.3,Win32,119.9904008,,,,,,,,,,,1.2236,1,,,,,,,,,,,,,,,,,,,,,,,,,-0.234259259,0.012037037,0,0,0,,,,,,,CHALK,C,z,m,./images/CHALK.png,,,,,,,,,,,,,,,,,,,,z,1,1.2236,,,,,,,,0,111,111,109,1
,,,,,,,,,,,,,,,,,5d261fee347b0000014ab55a,53,2022-02-12_12h14.58.248,lexical_decision_task_DD_L3,2021.2.3,Win32,119.9904008,,,,,,,,,,,0.7972,1,,,,,,,,,,,,,,,,,,,,,,,,,-0.234259259,0.012037037,0,0,0,,,,,,,WALNUT,LB,z,m,./images/WALNUTLB.png,,,,,,,,,,,,,,,,,,,,z,1,0.7972,,,,,,,,0,112,112,84,1
,,,,,,,,,,,,,,,,,5d261fee347b0000014ab55a,53,2022-02-12_12h14.58.248,lexical_decision_task_DD_L3,2021.2.3,Win32,119.9904008,,,,,,,,,,,2.1206,1,,,,,,,,,,,,,,,,,,,,,,,,,-0.234259259,0.012037037,0,0,0,,,,,,,GREASE,LB,m,m,./images/GREASELB.png,,,,,,,,,,,,,,,,,,,,m,1,2.1206,,,,,,,,0,113,113,15,1
,,,,,,,,,,,,,,,,,5d261fee347b0000014ab55a,53,2022-02-12_12h14.58.248,lexical_decision_task_DD_L3,2021.2.3,Win32,119.9904008,,,,,,,,,,,2.4052,0,,,,,,,,,,,,,,,,,,,,,,,,,-0.234259259,0.012037037,0,0,0,,,,,,,CRADLE,HB,m,m,./images/CRADLEHB.png,,,,,,,,,,,,,,,,,,,,z,0,2.4052,,,,,,,,0,114,114,20,1
,,,,,,,,,,,,,,,,,5d261fee347b0000014ab55a,53,2022-02-12_12h14.58.248,lexical_decision_task_DD_L3,2021.2.3,Win32,119.9904008,,,,,,,,,,,1.914,1,,,,,,,,,,,,,,,,,,,,,,,,,-0.234259259,0.012037037,0,0,0,,,,,,,ALLEY,C,z,m,./images/ALLEY.png,,,,,,,,,,,,,,,,,,,,z,1,1.914,,,,,,,,0,115,115,139,1
,,,,,,,,,,,,,,,,,5d261fee347b0000014ab55a,53,2022-02-12_12h14.58.248,lexical_decision_task_DD_L3,2021.2.3,Win32,119.9904008,,,,,,,,,,,0.837,1,,,,,,,,,,,,,,,,,,,,,,,,,-0.234259259,0.012037037,0,0,0,,,,,,,CASINO,C,z,m,./images/CASINO.png,,,,,,,,,,,,,,,,,,,,z,1,0.837,,,,,,,,0,116,116,112,1
,,,,,,,,,,,,,,,,,5d261fee347b0000014ab55a,53,2022-02-12_12h14.58.248,lexical_decision_task_DD_L3,2021.2.3,Win32,119.9904008,,,,,,,,,,,2.2832,1,,,,,,,,,,,,,,,,,,,,,,,,,-0.234259259,0.012037037,0,0,0,,,,,,,NOOSE,LB,m,m,./images/NOOSELB.png,,,,,,,,,,,,,,,,,,,,m,1,2.2832,,,,,,,,0,117,117,72,1
,,,,,,,,,,,,,,,,,5d261fee347b0000014ab55a,53,2022-02-12_12h14.58.248,lexical_decision_task_DD_L3,2021.2.3,Win32,119.9904008,,,,,,,,,,,0.849,1,,,,,,,,,,,,,,,,,,,,,,,,,-0.234259259,0.012037037,0,0,0,,,,,,,BOXER,C,z,m,./images/BOXER.png,,,,,,,,,,,,,,,,,,,,z,1,0.849,,,,,,,,0,118,118,88,1
,,,,,,,,,,,,,,,,,5d261fee347b0000014ab55a,53,2022-02-12_12h14.58.248,lexical_decision_task_DD_L3,2021.2.3,Win32,119.9904008,,,,,,,,,,,1.0222,1,,,,,,,,,,,,,,,,,,,,,,,,,-0.234259259,0.012037037,0,0,0,,,,,,,BAKER,LB,z,m,./images/BAKERLB.png,,,,,,,,,,,,,,,,,,,,z,1,1.0222,,,,,,,,0,119,119,147,1
,,,,,,,,,,,,,,,,,5d261fee347b0000014ab55a,53,2022-02-12_12h14.58.248,lexical_decision_task_DD_L3,2021.2.3,Win32,119.9904008,,,,,,,,,,,1.5742,0,,,,,,,,,,,,,,,,,,,,,,,,,-0.234259259,0.012037037,0,0,0,,,,,,,SNACK,C,m,m,./images/SNACK.png,,,,,,,,,,,,,,,,,,,,z,0,1.5742,,,,,,,,0,120,120,73,1
,,,,,,,,,,,,,,,,,5d261fee347b0000014ab55a,53,2022-02-12_12h14.58.248,lexical_decision_task_DD_L3,2021.2.3,Win32,119.9904008,,,,,,,,,,,1.0948,1,,,,,,,,,,,,,,,,,,,,,,,,,-0.234259259,0.012037037,0,0,0,,,,,,,WALRUS,HB,m,m,./images/WALRUSHB.png,,,,,,,,,,,,,,,,,,,,m,1,1.0948,,,,,,,,0,121,121,23,1
,,,,,,,,,,,,,,,,,5d261fee347b0000014ab55a,53,2022-02-12_12h14.58.248,lexical_decision_task_DD_L3,2021.2.3,Win32,119.9904008,,,,,,,,,,,0.7215,1,,,,,,,,,,,,,,,,,,,,,,,,,-0.234259259,0.012037037,0,0,0,,,,,,,DANCER,LB,z,m,./images/DANCERLB.png,,,,,,,,,,,,,,,,,,,,z,1,0.7215,,,,,,,,0,122,122,105,1
,,,,,,,,,,,,,,,,,5d261fee347b0000014ab55a,53,2022-02-12_12h14.58.248,lexical_decision_task_DD_L3,2021.2.3,Win32,119.9904008,,,,,,,,,,,1.6834,1,,,,,,,,,,,,,,,,,,,,,,,,,-0.234259259,0.012037037,0,0,0,,,,,,,BANNER,C,m,m,./images/BANNER.png,,,,,,,,,,,,,,,,,,,,m,1,1.6834,,,,,,,,0,123,123,52,1
,,,,,,,,,,,,,,,,,5d261fee347b0000014ab55a,53,2022-02-12_12h14.58.248,lexical_decision_task_DD_L3,2021.2.3,Win32,119.9904008,,,,,,,,,,,0.8692,0,,,,,,,,,,,,,,,,,,,,,,,,,-0.234259259,0.012037037,0,0,0,,,,,,,CLOUD,HB,z,m,./images/CLOUDHB.png,,,,,,,,,,,,,,,,,,,,m,0,0.8692,,,,,,,,0,124,124,110,1
,,,,,,,,,,,,,,,,,5d261fee347b0000014ab55a,53,2022-02-12_12h14.58.248,lexical_decision_task_DD_L3,2021.2.3,Win32,119.9904008,,,,,,,,,,,0.7667,1,,,,,,,,,,,,,,,,,,,,,,,,,-0.234259259,0.012037037,0,0,0,space,,,,,,LAGOON,HB,z,m,./images/LAGOONHB.png,4.5974,,,,,,,,,,,,,,,,,,,z,1,0.7667,,,,,,,,0,125,125,131,1
,,,,,,,,,,,,,,,,,5d261fee347b0000014ab55a,53,2022-02-12_12h14.58.248,lexical_decision_task_DD_L3,2021.2.3,Win32,119.9904008,,,,,,,,,,,0.8701,1,,,,,,,,,,,,,,,,,,,,,,,,,-0.234259259,0.012037037,0,0,0,,,,,,,MONKEY,LB,z,m,./images/MONKEYLB.png,,,,,,,,,,,,,,,,,,,,z,1,0.8701,,,,,,,,0,126,126,129,1
,,,,,,,,,,,,,,,,,5d261fee347b0000014ab55a,53,2022-02-12_12h14.58.248,lexical_decision_task_DD_L3,2021.2.3,Win32,119.9904008,,,,,,,,,,,1.6473,1,,,,,,,,,,,,,,,,,,,,,,,,,-0.234259259,0.012037037,0,0,0,,,,,,,STREAM,HB,z,m,./images/STREAMHB.png,,,,,,,,,,,,,,,,,,,,z,1,1.6473,,,,,,,,0,127,127,125,1
,,,,,,,,,,,,,,,,,5d261fee347b0000014ab55a,53,2022-02-12_12h14.58.248,lexical_decision_task_DD_L3,2021.2.3,Win32,119.9904008,,,,,,,,,,,0.9744,1,,,,,,,,,,,,,,,,,,,,,,,,,-0.234259259,0.012037037,0,0,0,,,,,,,DRUMS,C,m,m,./images/DRUMS.png,,,,,,,,,,,,,,,,,,,,m,1,0.9744,,,,,,,,0,128,128,49,1
,,,,,,,,,,,,,,,,,5d261fee347b0000014ab55a,53,2022-02-12_12h14.58.248,lexical_decision_task_DD_L3,2021.2.3,Win32,119.9904008,,,,,,,,,,,0.8621,0,,,,,,,,,,,,,,,,,,,,,,,,,-0.234259259,0.012037037,0,0,0,,,,,,,SPORT,LB,m,m,./images/SPORTLB.png,,,,,,,,,,,,,,,,,,,,z,0,0.8621,,,,,,,,0,129,129,48,1
,,,,,,,,,,,,,,,,,5d261fee347b0000014ab55a,53,2022-02-12_12h14.58.248,lexical_decision_task_DD_L3,2021.2.3,Win32,119.9904008,,,,,,,,,,,2.5046,1,,,,,,,,,,,,,,,,,,,,,,,,,-0.234259259,0.012037037,0,0,0,,,,,,,PLANET,HB,z,m,./images/PLANETHB.png,,,,,,,,,,,,,,,,,,,,z,1,2.5046,,,,,,,,0,130,130,164,1
,,,,,,,,,,,,,,,,,5d261fee347b0000014ab55a,53,2022-02-12_12h14.58.248,lexical_decision_task_DD_L3,2021.2.3,Win32,119.9904008,,,,,,,,,,,2.8042,1,,,,,,,,,,,,,,,,,,,,,,,,,-0.234259259,0.012037037,0,0,0,,,,,,,PARCEL,LB,z,m,./images/PARCELLB.png,,,,,,,,,,,,,,,,,,,,z,1,2.8042,,,,,,,,0,131,131,102,1
