key_resp.keys,key_resp.rt,instr_done_touch.x,instr_done_touch.y,instr_done_touch.leftButton,instr_done_touch.midButton,instr_done_touch.rightButton,instruction_pages.thisRepN,instruction_pages.thisTrialN,instruction_pages.thisN,instruction_pages.thisIndex,instruction_pages.ran,pageN,phase,instruct_text,has_image,instruct_image,participant,age,date,expName,psychopyVersion,OS,frameRate,response.keys,response.corr,response.rt,touch_resp.x,touch_resp.y,touch_resp.leftButton,touch_resp.midButton,touch_resp.rightButton,touch_resp.time,touch_resp.clicked_name,rt,corr,practrials.thisRepN,practrials.thisTrialN,practrials.thisN,practrials.thisIndex,practrials.ran,TrialID,Target,corrAns,end_of_practice_trials_pages.thisRepN,end_of_practice_trials_pages.thisTrialN,end_of_practice_trials_pages.thisN,end_of_practice_trials_pages.thisIndex,end_of_practice_trials_pages.ran,key_resp_2.keys,key_resp_2.corr,key_resp_2.rt,targ_click.x,targ_click.y,targ_click.leftButton,targ_click.midButton,targ_click.rightButton,targ_click.time,targ_click.clicked_name,break_done_touch.x,break_done_touch.y,break_done_touch.leftButton,break_done_touch.midButton,break_done_touch.rightButton,break_done_keyboard.keys,maintrials.thisRepN,maintrials.thisTrialN,maintrials.thisN,maintrials.thisIndex,maintrials.ran,string,blur,study,lex,stim_path,break_done_keyboard.rt,mouse_2.x,mouse_2.y,mouse_2.leftButton,mouse_2.midButton,mouse_2.rightButton,mouse_2.clicked_name,slider.response,slider.rt,trials.thisRepN,trials.thisTrialN,trials.thisN,trials.thisIndex,trials.ran,test_instructions.thisRepN,test_instructions.thisTrialN,test_instructions.thisN,test_instructions.thisIndex,test_instructions.ran,instr_done_touch.clicked_name,key_resp_3.keys,key_resp_3.corr,key_resp_3.rt,test_click.x,test_click.y,test_click.leftButton,test_click.midButton,test_click.rightButton,test_click.time,test_click.clicked_name,test_phase.thisRepN,test_phase.thisTrialN,test_phase.thisN,test_phase.thisIndex,test_phase.ran,break_done_touch.clicked_name
space,3.5047,0.670572917,-0.15234375,0,0,0,0,0,0,0,1,1,instructions,"INSTRUCTIONS
At the start of each trial, look at the plus sign  (+) in the center of the screen.  This tells you that a trial is about to begin and where to look. Second, the plus sign will disappear and a string of letters will appear. Your task is to determine if the string of letters is a word or not. If the item is a word press the M key (on keyboard)  or touch the word button (phone/tablet).  If the item is not a word,  press the  Z key (on keyboard)  or touch the nonword button (on phone/tablet). 
Press the space bar or touch  continue.",0,,5ddb44664a113aaa06465dbe,42,2022-02-12_17h18.38.048,lexical_decision_task_DD_L3,2021.2.3,Win32,60.51437216,,,,,,,,,,,,,,,,,,,,,,,,,,,,,,,,,,,,,,,,,,,,,,,,,,,,,,,,,,,,,,,,,,,,,,,,,,,,,,,,,,,,,,,
space,12.1241,0.670572917,-0.15234375,0,0,0,0,1,1,1,1,2,instructions,"If your device has a keyboard, press the 'Z' key for nonwords and the 'M' key for words.





Press the space bar or touch the button below to continue.",0,keyboard-example.gif,5ddb44664a113aaa06465dbe,42,2022-02-12_17h18.38.048,lexical_decision_task_DD_L3,2021.2.3,Win32,60.51437216,,,,,,,,,,,,,,,,,,,,,,,,,,,,,,,,,,,,,,,,,,,,,,,,,,,,,,,,,,,,,,,,,,,,,,,,,,,,,,,,,,,,,,,
space,8.0225,0.670572917,-0.15234375,0,0,0,0,2,2,2,1,3,instructions,"If you are using a touchscreen only device, use the buttons on the screen. Do not use the mouse.





Press the space bar or touch the button below to continue.",0,touchscreen-example.gif,5ddb44664a113aaa06465dbe,42,2022-02-12_17h18.38.048,lexical_decision_task_DD_L3,2021.2.3,Win32,60.51437216,,,,,,,,,,,,,,,,,,,,,,,,,,,,,,,,,,,,,,,,,,,,,,,,,,,,,,,,,,,,,,,,,,,,,,,,,,,,,,,,,,,,,,,
space,15.4754,0.5859375,-0.177083333,0,0,0,0,3,3,3,1,4,instructions,"It is very important that you respond as quickly and accurately as possible, as each letter string will only be on the screen for two seconds. If you do not respond within this time, the message 'Too slow!' will be displayed and the experiment will progress to the next letter string. The first 20 trials will be practice trials and you will receive feedback on your answers. 

Press the space bar or touch the button below to start the practice trials.",0,,5ddb44664a113aaa06465dbe,42,2022-02-12_17h18.38.048,lexical_decision_task_DD_L3,2021.2.3,Win32,60.51437216,,,,,,,,,,,,,,,,,,,,,,,,,,,,,,,,,,,,,,,,,,,,,,,,,,,,,,,,,,,,,,,,,,,,,,,,,,,,,,,,,,,,,,,
,,,,,,,,,,,,,,,,,5ddb44664a113aaa06465dbe,42,2022-02-12_17h18.38.048,lexical_decision_task_DD_L3,2021.2.3,Win32,60.51437216,z,1,1.996,,,,,,,,1.996,1,0,0,0,9,1,1001,FARINY,z,,,,,,,,,,,,,,,,,,,,,,,,,,,,,,,,,,,,,,,,,,,,,,,,,,,,,,,,,,,,,,,,,,,
,,,,,,,,,,,,,,,,,5ddb44664a113aaa06465dbe,42,2022-02-12_17h18.38.048,lexical_decision_task_DD_L3,2021.2.3,Win32,60.51437216,z,1,1.1144,,,,,,,,1.1144,1,0,1,1,12,1,1001,SPRINY,z,,,,,,,,,,,,,,,,,,,,,,,,,,,,,,,,,,,,,,,,,,,,,,,,,,,,,,,,,,,,,,,,,,,
,,,,,,,,,,,,,,,,,5ddb44664a113aaa06465dbe,42,2022-02-12_17h18.38.048,lexical_decision_task_DD_L3,2021.2.3,Win32,60.51437216,m,1,0.5644,,,,,,,,0.5644,1,0,2,2,7,1,1001,VOLUME,m,,,,,,,,,,,,,,,,,,,,,,,,,,,,,,,,,,,,,,,,,,,,,,,,,,,,,,,,,,,,,,,,,,,
,,,,,,,,,,,,,,,,,5ddb44664a113aaa06465dbe,42,2022-02-12_17h18.38.048,lexical_decision_task_DD_L3,2021.2.3,Win32,60.51437216,m,1,0.5198,,,,,,,,0.5198,1,0,3,3,4,1,1001,SQUEAK,m,,,,,,,,,,,,,,,,,,,,,,,,,,,,,,,,,,,,,,,,,,,,,,,,,,,,,,,,,,,,,,,,,,,
,,,,,,,,,,,,,,,,,5ddb44664a113aaa06465dbe,42,2022-02-12_17h18.38.048,lexical_decision_task_DD_L3,2021.2.3,Win32,60.51437216,z,1,0.6402,,,,,,,,0.6402,1,0,4,4,15,1,1001,WHAISE,z,,,,,,,,,,,,,,,,,,,,,,,,,,,,,,,,,,,,,,,,,,,,,,,,,,,,,,,,,,,,,,,,,,,
,,,,,,,,,,,,,,,,,5ddb44664a113aaa06465dbe,42,2022-02-12_17h18.38.048,lexical_decision_task_DD_L3,2021.2.3,Win32,60.51437216,m,1,0.6794,,,,,,,,0.6794,1,0,5,5,3,1,1001,MATRIX,m,,,,,,,,,,,,,,,,,,,,,,,,,,,,,,,,,,,,,,,,,,,,,,,,,,,,,,,,,,,,,,,,,,,
,,,,,,,,,,,,,,,,,5ddb44664a113aaa06465dbe,42,2022-02-12_17h18.38.048,lexical_decision_task_DD_L3,2021.2.3,Win32,60.51437216,z,1,0.7439,,,,,,,,0.7439,1,0,6,6,13,1,1001,ROUPET,z,,,,,,,,,,,,,,,,,,,,,,,,,,,,,,,,,,,,,,,,,,,,,,,,,,,,,,,,,,,,,,,,,,,
,,,,,,,,,,,,,,,,,5ddb44664a113aaa06465dbe,42,2022-02-12_17h18.38.048,lexical_decision_task_DD_L3,2021.2.3,Win32,60.51437216,z,1,0.6973,,,,,,,,0.6973,1,0,7,7,14,1,1001,THRALE,z,,,,,,,,,,,,,,,,,,,,,,,,,,,,,,,,,,,,,,,,,,,,,,,,,,,,,,,,,,,,,,,,,,,
,,,,,,,,,,,,,,,,,5ddb44664a113aaa06465dbe,42,2022-02-12_17h18.38.048,lexical_decision_task_DD_L3,2021.2.3,Win32,60.51437216,z,1,0.7481,,,,,,,,0.7481,1,0,8,8,8,1,1001,ASLERT,z,,,,,,,,,,,,,,,,,,,,,,,,,,,,,,,,,,,,,,,,,,,,,,,,,,,,,,,,,,,,,,,,,,,
,,,,,,,,,,,,,,,,,5ddb44664a113aaa06465dbe,42,2022-02-12_17h18.38.048,lexical_decision_task_DD_L3,2021.2.3,Win32,60.51437216,m,1,0.6924,,,,,,,,0.6924,1,0,9,9,0,1,1001,UTOPIA,m,,,,,,,,,,,,,,,,,,,,,,,,,,,,,,,,,,,,,,,,,,,,,,,,,,,,,,,,,,,,,,,,,,,
,,,,,,,,,,,,,,,,,5ddb44664a113aaa06465dbe,42,2022-02-12_17h18.38.048,lexical_decision_task_DD_L3,2021.2.3,Win32,60.51437216,m,1,0.7217,,,,,,,,0.7217,1,0,10,10,1,1,1001,ADJUST,m,,,,,,,,,,,,,,,,,,,,,,,,,,,,,,,,,,,,,,,,,,,,,,,,,,,,,,,,,,,,,,,,,,,
,,,,,,,,,,,,,,,,,5ddb44664a113aaa06465dbe,42,2022-02-12_17h18.38.048,lexical_decision_task_DD_L3,2021.2.3,Win32,60.51437216,m,0,0.8811,,,,,,,,0.8811,0,0,11,11,10,1,1001,INLADE,z,,,,,,,,,,,,,,,,,,,,,,,,,,,,,,,,,,,,,,,,,,,,,,,,,,,,,,,,,,,,,,,,,,,
,,,,,,,,,,,,,,,,,5ddb44664a113aaa06465dbe,42,2022-02-12_17h18.38.048,lexical_decision_task_DD_L3,2021.2.3,Win32,60.51437216,m,1,1.1148,,,,,,,,1.1148,1,0,12,12,2,1,1001,ALMOND,m,,,,,,,,,,,,,,,,,,,,,,,,,,,,,,,,,,,,,,,,,,,,,,,,,,,,,,,,,,,,,,,,,,,
,,,,,,,,,,,,,,,,,5ddb44664a113aaa06465dbe,42,2022-02-12_17h18.38.048,lexical_decision_task_DD_L3,2021.2.3,Win32,60.51437216,z,1,0.7509,,,,,,,,0.7509,1,0,13,13,11,1,1001,RASHET,z,,,,,,,,,,,,,,,,,,,,,,,,,,,,,,,,,,,,,,,,,,,,,,,,,,,,,,,,,,,,,,,,,,,
,,,,,,,,,,,,,,,,,5ddb44664a113aaa06465dbe,42,2022-02-12_17h18.38.048,lexical_decision_task_DD_L3,2021.2.3,Win32,60.51437216,m,1,0.7988,,,,,,,,0.7988,1,0,14,14,5,1,1001,OBTAIN,m,,,,,,,,,,,,,,,,,,,,,,,,,,,,,,,,,,,,,,,,,,,,,,,,,,,,,,,,,,,,,,,,,,,
,,,,,,,,,,,,,,,,,5ddb44664a113aaa06465dbe,42,2022-02-12_17h18.38.048,lexical_decision_task_DD_L3,2021.2.3,Win32,60.51437216,m,1,0.5769,,,,,,,,0.5769,1,0,15,15,6,1,1001,ZOMBIE,m,,,,,,,,,,,,,,,,,,,,,,,,,,,,,,,,,,,,,,,,,,,,,,,,,,,,,,,,,,,,,,,,,,,
space,12.957,0.5859375,-0.177083333,0,0,0,,,,,,1,end_of_practice,"You have completed the practice trials. During the experimental trials, you will not receive feedback. 
Before you begin, please ensure that you are in a comfortable and quiet location and will not be disturbed for about 15 minutes, as we cannot use your data if you do not complete all the trials. 
 When you are ready to start the experimental trials, please press space or touch the button below.",,,5ddb44664a113aaa06465dbe,42,2022-02-12_17h18.38.048,lexical_decision_task_DD_L3,2021.2.3,Win32,60.51437216,,,,,,,,,,,,,,,,,,,,,0,0,0,0,1,,,,,,,,,,,,,,,,,,,,,,,,,,,,,,,,,,,,,,,,,,,,,,,,,,,,,,,,,,,,,,
,,,,,,,,,,,,,,,,,5ddb44664a113aaa06465dbe,42,2022-02-12_17h18.38.048,lexical_decision_task_DD_L3,2021.2.3,Win32,60.51437216,,,,,,,,,,,2.3979,1,,,,,,,,,,,,,,m,1,2.3979,,,,,,,,0.5859375,-0.177083333,0,0,0,,0,0,0,26,1,SMOKER,HB,old,m,./images/SMOKERHB.png,,,,,,,,,,,,,,,,,,,,,,,,,,,,,,,,,,,,
,,,,,,,,,,,,,,,,,5ddb44664a113aaa06465dbe,42,2022-02-12_17h18.38.048,lexical_decision_task_DD_L3,2021.2.3,Win32,60.51437216,,,,,,,,,,,0.986,1,,,,,,,,,,,,,,z,1,0.986,,,,,,,,0.5859375,-0.177083333,0,0,0,,0,1,1,137,1,JOOST,LB,old,z,./images/JOOSTLB.png,,,,,,,,,,,,,,,,,,,,,,,,,,,,,,,,,,,,
,,,,,,,,,,,,,,,,,5ddb44664a113aaa06465dbe,42,2022-02-12_17h18.38.048,lexical_decision_task_DD_L3,2021.2.3,Win32,60.51437216,,,,,,,,,,,0.8221,1,,,,,,,,,,,,,,z,1,0.8221,,,,,,,,0.5859375,-0.177083333,0,0,0,,0,2,2,119,1,PAFER,LB,old,z,./images/PAFERLB.png,,,,,,,,,,,,,,,,,,,,,,,,,,,,,,,,,,,,
,,,,,,,,,,,,,,,,,5ddb44664a113aaa06465dbe,42,2022-02-12_17h18.38.048,lexical_decision_task_DD_L3,2021.2.3,Win32,60.51437216,,,,,,,,,,,0.6715,1,,,,,,,,,,,,,,m,1,0.6715,,,,,,,,0.5859375,-0.177083333,0,0,0,,0,3,3,9,1,RHINO,LB,old,m,./images/RHINOLB.png,,,,,,,,,,,,,,,,,,,,,,,,,,,,,,,,,,,,
,,,,,,,,,,,,,,,,,5ddb44664a113aaa06465dbe,42,2022-02-12_17h18.38.048,lexical_decision_task_DD_L3,2021.2.3,Win32,60.51437216,,,,,,,,,,,0.6122,1,,,,,,,,,,,,,,m,1,0.6122,,,,,,,,0.5859375,-0.177083333,0,0,0,,0,4,4,5,1,PASTA,HB,old,m,./images/PASTAHB.png,,,,,,,,,,,,,,,,,,,,,,,,,,,,,,,,,,,,
,,,,,,,,,,,,,,,,,5ddb44664a113aaa06465dbe,42,2022-02-12_17h18.38.048,lexical_decision_task_DD_L3,2021.2.3,Win32,60.51437216,,,,,,,,,,,0.9748,1,,,,,,,,,,,,,,z,1,0.9748,,,,,,,,0.5859375,-0.177083333,0,0,0,,0,5,5,109,1,BURGE,HB,old,z,./images/BURGEHB.png,,,,,,,,,,,,,,,,,,,,,,,,,,,,,,,,,,,,
,,,,,,,,,,,,,,,,,5ddb44664a113aaa06465dbe,42,2022-02-12_17h18.38.048,lexical_decision_task_DD_L3,2021.2.3,Win32,60.51437216,,,,,,,,,,,1.1619,1,,,,,,,,,,,,,,z,1,1.1619,,,,,,,,0.5859375,-0.177083333,0,0,0,,0,6,6,99,1,BACKY,C,old,z,./images/BACKY.png,,,,,,,,,,,,,,,,,,,,,,,,,,,,,,,,,,,,
,,,,,,,,,,,,,,,,,5ddb44664a113aaa06465dbe,42,2022-02-12_17h18.38.048,lexical_decision_task_DD_L3,2021.2.3,Win32,60.51437216,,,,,,,,,,,0.9794,0,,,,,,,,,,,,,,m,0,0.9794,,,,,,,,0.5859375,-0.177083333,0,0,0,,0,7,7,140,1,DOVET,LB,old,z,./images/DOVETLB.png,,,,,,,,,,,,,,,,,,,,,,,,,,,,,,,,,,,,
,,,,,,,,,,,,,,,,,5ddb44664a113aaa06465dbe,42,2022-02-12_17h18.38.048,lexical_decision_task_DD_L3,2021.2.3,Win32,60.51437216,,,,,,,,,,,0.6562,1,,,,,,,,,,,,,,m,1,0.6562,,,,,,,,0.5859375,-0.177083333,0,0,0,,0,8,8,55,1,MUFFIN,C,old,m,./images/MUFFIN.png,,,,,,,,,,,,,,,,,,,,,,,,,,,,,,,,,,,,
,,,,,,,,,,,,,,,,,5ddb44664a113aaa06465dbe,42,2022-02-12_17h18.38.048,lexical_decision_task_DD_L3,2021.2.3,Win32,60.51437216,,,,,,,,,,,0.4425,1,,,,,,,,,,,,,,m,1,0.4425,,,,,,,,0.5859375,-0.177083333,0,0,0,,0,9,9,49,1,DRUMS,C,old,m,./images/DRUMS.png,,,,,,,,,,,,,,,,,,,,,,,,,,,,,,,,,,,,
,,,,,,,,,,,,,,,,,5ddb44664a113aaa06465dbe,42,2022-02-12_17h18.38.048,lexical_decision_task_DD_L3,2021.2.3,Win32,60.51437216,,,,,,,,,,,0.5652,1,,,,,,,,,,,,,,m,1,0.5652,,,,,,,,0.5859375,-0.177083333,0,0,0,,0,10,10,69,1,COOKER,LB,old,m,./images/COOKERLB.png,,,,,,,,,,,,,,,,,,,,,,,,,,,,,,,,,,,,
,,,,,,,,,,,,,,,,,5ddb44664a113aaa06465dbe,42,2022-02-12_17h18.38.048,lexical_decision_task_DD_L3,2021.2.3,Win32,60.51437216,,,,,,,,,,,1.166,1,,,,,,,,,,,,,,m,1,1.166,,,,,,,,0.5859375,-0.177083333,0,0,0,,0,11,11,74,1,CEMENT,HB,old,m,./images/CEMENTHB.png,,,,,,,,,,,,,,,,,,,,,,,,,,,,,,,,,,,,
,,,,,,,,,,,,,,,,,5ddb44664a113aaa06465dbe,42,2022-02-12_17h18.38.048,lexical_decision_task_DD_L3,2021.2.3,Win32,60.51437216,,,,,,,,,,,0.5286,1,,,,,,,,,,,,,,m,1,0.5286,,,,,,,,0.5859375,-0.177083333,0,0,0,,0,12,12,46,1,PEARL,C,old,m,./images/PEARL.png,,,,,,,,,,,,,,,,,,,,,,,,,,,,,,,,,,,,
,,,,,,,,,,,,,,,,,5ddb44664a113aaa06465dbe,42,2022-02-12_17h18.38.048,lexical_decision_task_DD_L3,2021.2.3,Win32,60.51437216,,,,,,,,,,,0.6096,1,,,,,,,,,,,,,,m,1,0.6096,,,,,,,,0.5859375,-0.177083333,0,0,0,,0,13,13,62,1,PURSE,HB,old,m,./images/PURSEHB.png,,,,,,,,,,,,,,,,,,,,,,,,,,,,,,,,,,,,
,,,,,,,,,,,,,,,,,5ddb44664a113aaa06465dbe,42,2022-02-12_17h18.38.048,lexical_decision_task_DD_L3,2021.2.3,Win32,60.51437216,,,,,,,,,,,0.6996,1,,,,,,,,,,,,,,z,1,0.6996,,,,,,,,0.5859375,-0.177083333,0,0,0,,0,14,14,105,1,MOKER,C,old,z,./images/MOKER.png,,,,,,,,,,,,,,,,,,,,,,,,,,,,,,,,,,,,
,,,,,,,,,,,,,,,,,5ddb44664a113aaa06465dbe,42,2022-02-12_17h18.38.048,lexical_decision_task_DD_L3,2021.2.3,Win32,60.51437216,,,,,,,,,,,0.8796,0,,,,,,,,,,,,,,m,0,0.8796,,,,,,,,0.5859375,-0.177083333,0,0,0,,0,15,15,114,1,RIKES,C,old,z,./images/RIKES.png,,,,,,,,,,,,,,,,,,,,,,,,,,,,,,,,,,,,
,,,,,,,,,,,,,,,,,5ddb44664a113aaa06465dbe,42,2022-02-12_17h18.38.048,lexical_decision_task_DD_L3,2021.2.3,Win32,60.51437216,,,,,,,,,,,1.4125,1,,,,,,,,,,,,,,z,1,1.4125,,,,,,,,0.5859375,-0.177083333,0,0,0,,0,16,16,122,1,BLOOT,LB,old,z,./images/BLOOTLB.png,,,,,,,,,,,,,,,,,,,,,,,,,,,,,,,,,,,,
,,,,,,,,,,,,,,,,,5ddb44664a113aaa06465dbe,42,2022-02-12_17h18.38.048,lexical_decision_task_DD_L3,2021.2.3,Win32,60.51437216,,,,,,,,,,,0.7298,1,,,,,,,,,,,,,,m,1,0.7298,,,,,,,,0.5859375,-0.177083333,0,0,0,,0,17,17,76,1,INFANT,C,old,m,./images/INFANT.png,,,,,,,,,,,,,,,,,,,,,,,,,,,,,,,,,,,,
,,,,,,,,,,,,,,,,,5ddb44664a113aaa06465dbe,42,2022-02-12_17h18.38.048,lexical_decision_task_DD_L3,2021.2.3,Win32,60.51437216,,,,,,,,,,,0.7099,1,,,,,,,,,,,,,,z,1,0.7099,,,,,,,,0.5859375,-0.177083333,0,0,0,,0,18,18,135,1,JOODY,C,old,z,./images/JOODY.png,,,,,,,,,,,,,,,,,,,,,,,,,,,,,,,,,,,,
,,,,,,,,,,,,,,,,,5ddb44664a113aaa06465dbe,42,2022-02-12_17h18.38.048,lexical_decision_task_DD_L3,2021.2.3,Win32,60.51437216,,,,,,,,,,,1.231,1,,,,,,,,,,,,,,m,1,1.231,,,,,,,,0.5859375,-0.177083333,0,0,0,,0,19,19,54,1,TRIPOD,LB,old,m,./images/TRIPODLB.png,,,,,,,,,,,,,,,,,,,,,,,,,,,,,,,,,,,,
,,,,,,,,,,,,,,,,,5ddb44664a113aaa06465dbe,42,2022-02-12_17h18.38.048,lexical_decision_task_DD_L3,2021.2.3,Win32,60.51437216,,,,,,,,,,,0.8073,1,,,,,,,,,,,,,,m,1,0.8073,,,,,,,,0.5859375,-0.177083333,0,0,0,,0,20,20,77,1,COUCH,HB,old,m,./images/COUCHHB.png,,,,,,,,,,,,,,,,,,,,,,,,,,,,,,,,,,,,
,,,,,,,,,,,,,,,,,5ddb44664a113aaa06465dbe,42,2022-02-12_17h18.38.048,lexical_decision_task_DD_L3,2021.2.3,Win32,60.51437216,,,,,,,,,,,0.7959,1,,,,,,,,,,,,,,m,1,0.7959,,,,,,,,0.5859375,-0.177083333,0,0,0,,0,21,21,18,1,JAGUAR,LB,old,m,./images/JAGUARLB.png,,,,,,,,,,,,,,,,,,,,,,,,,,,,,,,,,,,,
,,,,,,,,,,,,,,,,,5ddb44664a113aaa06465dbe,42,2022-02-12_17h18.38.048,lexical_decision_task_DD_L3,2021.2.3,Win32,60.51437216,,,,,,,,,,,1.3576,1,,,,,,,,,,,,,,z,1,1.3576,,,,,,,,0.5859375,-0.177083333,0,0,0,,0,22,22,98,1,BAMPS,LB,old,z,./images/BAMPSLB.png,,,,,,,,,,,,,,,,,,,,,,,,,,,,,,,,,,,,
,,,,,,,,,,,,,,,,,5ddb44664a113aaa06465dbe,42,2022-02-12_17h18.38.048,lexical_decision_task_DD_L3,2021.2.3,Win32,60.51437216,,,,,,,,,,,0.7446,1,,,,,,,,,,,,,,m,1,0.7446,,,,,,,,0.5859375,-0.177083333,0,0,0,,0,23,23,7,1,PAINT,C,old,m,./images/PAINT.png,,,,,,,,,,,,,,,,,,,,,,,,,,,,,,,,,,,,
,,,,,,,,,,,,,,,,,5ddb44664a113aaa06465dbe,42,2022-02-12_17h18.38.048,lexical_decision_task_DD_L3,2021.2.3,Win32,60.51437216,,,,,,,,,,,1.1216,1,,,,,,,,,,,,,,m,1,1.1216,,,,,,,,0.5859375,-0.177083333,0,0,0,,0,24,24,59,1,BURIAL,HB,old,m,./images/BURIALHB.png,,,,,,,,,,,,,,,,,,,,,,,,,,,,,,,,,,,,
,,,,,,,,,,,,,,,,,5ddb44664a113aaa06465dbe,42,2022-02-12_17h18.38.048,lexical_decision_task_DD_L3,2021.2.3,Win32,60.51437216,,,,,,,,,,,0.7001,1,,,,,,,,,,,,,,m,1,0.7001,,,,,,,,0.5859375,-0.177083333,0,0,0,,0,25,25,53,1,CARPET,HB,old,m,./images/CARPETHB.png,,,,,,,,,,,,,,,,,,,,,,,,,,,,,,,,,,,,
,,,,,,,,,,,,,,,,,5ddb44664a113aaa06465dbe,42,2022-02-12_17h18.38.048,lexical_decision_task_DD_L3,2021.2.3,Win32,60.51437216,,,,,,,,,,,1.4395,1,,,,,,,,,,,,,,m,1,1.4395,,,,,,,,0.5859375,-0.177083333,0,0,0,,0,26,26,83,1,JUNGLE,HB,old,m,./images/JUNGLEHB.png,,,,,,,,,,,,,,,,,,,,,,,,,,,,,,,,,,,,
,,,,,,,,,,,,,,,,,5ddb44664a113aaa06465dbe,42,2022-02-12_17h18.38.048,lexical_decision_task_DD_L3,2021.2.3,Win32,60.51437216,,,,,,,,,,,0.6018,1,,,,,,,,,,,,,,m,1,0.6018,,,,,,,,0.5859375,-0.177083333,0,0,0,,0,27,27,70,1,URINE,C,old,m,./images/URINE.png,,,,,,,,,,,,,,,,,,,,,,,,,,,,,,,,,,,,
,,,,,,,,,,,,,,,,,5ddb44664a113aaa06465dbe,42,2022-02-12_17h18.38.048,lexical_decision_task_DD_L3,2021.2.3,Win32,60.51437216,,,,,,,,,,,0.9795,1,,,,,,,,,,,,,,z,1,0.9795,,,,,,,,0.5859375,-0.177083333,0,0,0,,0,28,28,115,1,MAWNS,HB,old,z,./images/MAWNSHB.png,,,,,,,,,,,,,,,,,,,,,,,,,,,,,,,,,,,,
,,,,,,,,,,,,,,,,,5ddb44664a113aaa06465dbe,42,2022-02-12_17h18.38.048,lexical_decision_task_DD_L3,2021.2.3,Win32,60.51437216,,,,,,,,,,,0.6089,1,,,,,,,,,,,,,,m,1,0.6089,,,,,,,,0.5859375,-0.177083333,0,0,0,,0,29,29,6,1,SQUARE,LB,old,m,./images/SQUARELB.png,,,,,,,,,,,,,,,,,,,,,,,,,,,,,,,,,,,,
,,,,,,,,,,,,,,,,,5ddb44664a113aaa06465dbe,42,2022-02-12_17h18.38.048,lexical_decision_task_DD_L3,2021.2.3,Win32,60.51437216,,,,,,,,,,,0.7445,1,,,,,,,,,,,,,,z,1,0.7445,,,,,,,,0.5859375,-0.177083333,0,0,0,,0,30,30,148,1,JOMS,HB,old,z,./images/JOMSHB.png,,,,,,,,,,,,,,,,,,,,,,,,,,,,,,,,,,,,
,,,,,,,,,,,,,,,,,5ddb44664a113aaa06465dbe,42,2022-02-12_17h18.38.048,lexical_decision_task_DD_L3,2021.2.3,Win32,60.51437216,,,,,,,,,,,0.6883,1,,,,,,,,,,,,,,z,1,0.6883,,,,,,,,0.5859375,-0.177083333,0,0,0,,0,31,31,113,1,LINEW,LB,old,z,./images/LINEWLB.png,,,,,,,,,,,,,,,,,,,,,,,,,,,,,,,,,,,,
,,,,,,,,,,,,,,,,,5ddb44664a113aaa06465dbe,42,2022-02-12_17h18.38.048,lexical_decision_task_DD_L3,2021.2.3,Win32,60.51437216,,,,,,,,,,,0.5448,1,,,,,,,,,,,,,,m,1,0.5448,,,,,,,,0.5859375,-0.177083333,0,0,0,,0,32,32,36,1,THROAT,LB,old,m,./images/THROATLB.png,,,,,,,,,,,,,,,,,,,,,,,,,,,,,,,,,,,,
,,,,,,,,,,,,,,,,,5ddb44664a113aaa06465dbe,42,2022-02-12_17h18.38.048,lexical_decision_task_DD_L3,2021.2.3,Win32,60.51437216,,,,,,,,,,,0.9624,1,,,,,,,,,,,,,,z,1,0.9624,,,,,,,,0.5859375,-0.177083333,0,0,0,,0,33,33,131,1,NACES,LB,old,z,./images/NACESLB.png,,,,,,,,,,,,,,,,,,,,,,,,,,,,,,,,,,,,
,,,,,,,,,,,,,,,,,5ddb44664a113aaa06465dbe,42,2022-02-12_17h18.38.048,lexical_decision_task_DD_L3,2021.2.3,Win32,60.51437216,,,,,,,,,,,1.011,1,,,,,,,,,,,,,,m,1,1.011,,,,,,,,0.5859375,-0.177083333,0,0,0,,0,34,34,67,1,SAILOR,C,old,m,./images/SAILOR.png,,,,,,,,,,,,,,,,,,,,,,,,,,,,,,,,,,,,
,,,,,,,,,,,,,,,,,5ddb44664a113aaa06465dbe,42,2022-02-12_17h18.38.048,lexical_decision_task_DD_L3,2021.2.3,Win32,60.51437216,,,,,,,,,,,1.8402,0,,,,,,,,,,,,,,m,0,1.8402,,,,,,,,0.5859375,-0.177083333,0,0,0,,0,35,35,130,1,CRILL,HB,old,z,./images/CRILLHB.png,,,,,,,,,,,,,,,,,,,,,,,,,,,,,,,,,,,,
,,,,,,,,,,,,,,,,,5ddb44664a113aaa06465dbe,42,2022-02-12_17h18.38.048,lexical_decision_task_DD_L3,2021.2.3,Win32,60.51437216,,,,,,,,,,,0.7488,1,,,,,,,,,,,,,,m,1,0.7488,,,,,,,,0.5859375,-0.177083333,0,0,0,,0,36,36,31,1,QUILL,C,old,m,./images/QUILL.png,,,,,,,,,,,,,,,,,,,,,,,,,,,,,,,,,,,,
,,,,,,,,,,,,,,,,,5ddb44664a113aaa06465dbe,42,2022-02-12_17h18.38.048,lexical_decision_task_DD_L3,2021.2.3,Win32,60.51437216,,,,,,,,,,,1.5438,0,,,,,,,,,,,,,,m,0,1.5438,,,,,,,,0.5859375,-0.177083333,0,0,0,,0,37,37,166,1,SHORY,HB,old,z,./images/SHORYHB.png,,,,,,,,,,,,,,,,,,,,,,,,,,,,,,,,,,,,
,,,,,,,,,,,,,,,,,5ddb44664a113aaa06465dbe,42,2022-02-12_17h18.38.048,lexical_decision_task_DD_L3,2021.2.3,Win32,60.51437216,,,,,,,,,,,0.8107,1,,,,,,,,,,,,,,z,1,0.8107,,,,,,,,0.5859375,-0.177083333,0,0,0,,0,38,38,116,1,BALGY,LB,old,z,./images/BALGYLB.png,,,,,,,,,,,,,,,,,,,,,,,,,,,,,,,,,,,,
,,,,,,,,,,,,,,,,,5ddb44664a113aaa06465dbe,42,2022-02-12_17h18.38.048,lexical_decision_task_DD_L3,2021.2.3,Win32,60.51437216,,,,,,,,,,,0.9617,1,,,,,,,,,,,,,,m,1,0.9617,,,,,,,,0.5859375,-0.177083333,0,0,0,,0,39,39,16,1,PENCE,C,old,m,./images/PENCE.png,,,,,,,,,,,,,,,,,,,,,,,,,,,,,,,,,,,,
,,,,,,,,,,,,,,,,,5ddb44664a113aaa06465dbe,42,2022-02-12_17h18.38.048,lexical_decision_task_DD_L3,2021.2.3,Win32,60.51437216,,,,,,,,,,,0.7755,1,,,,,,,,,,,,,,z,1,0.7755,,,,,,,,0.5859375,-0.177083333,0,0,0,,0,40,40,134,1,TROSS,LB,old,z,./images/TROSSLB.png,,,,,,,,,,,,,,,,,,,,,,,,,,,,,,,,,,,,
,,,,,,,,,,,,,,,,,5ddb44664a113aaa06465dbe,42,2022-02-12_17h18.38.048,lexical_decision_task_DD_L3,2021.2.3,Win32,60.51437216,,,,,,,,,,,0.7816,0,,,,,,,,,,,,,,m,0,0.7816,,,,,,,,0.5859375,-0.177083333,0,0,0,space,0,41,41,128,1,GRIFT,LB,old,z,./images/GRIFTLB.png,29.209,,,,,,,,,,,,,,,,,,,,,,,,,,,,,,,,,,,
,,,,,,,,,,,,,,,,,5ddb44664a113aaa06465dbe,42,2022-02-12_17h18.38.048,lexical_decision_task_DD_L3,2021.2.3,Win32,60.51437216,,,,,,,,,,,0.8419,1,,,,,,,,,,,,,,z,1,0.8419,,,,,,,,0.5859375,-0.177083333,0,0,0,,0,42,42,107,1,FASKS,LB,old,z,./images/FASKSLB.png,,,,,,,,,,,,,,,,,,,,,,,,,,,,,,,,,,,,
,,,,,,,,,,,,,,,,,5ddb44664a113aaa06465dbe,42,2022-02-12_17h18.38.048,lexical_decision_task_DD_L3,2021.2.3,Win32,60.51437216,,,,,,,,,,,0.6917,1,,,,,,,,,,,,,,m,1,0.6917,,,,,,,,0.5859375,-0.177083333,0,0,0,,0,43,43,44,1,LIZARD,HB,old,m,./images/LIZARDHB.png,,,,,,,,,,,,,,,,,,,,,,,,,,,,,,,,,,,,
,,,,,,,,,,,,,,,,,5ddb44664a113aaa06465dbe,42,2022-02-12_17h18.38.048,lexical_decision_task_DD_L3,2021.2.3,Win32,60.51437216,,,,,,,,,,,1.047,1,,,,,,,,,,,,,,z,1,1.047,,,,,,,,0.5859375,-0.177083333,0,0,0,,0,44,44,123,1,SEDGE,C,old,z,./images/SEDGE.png,,,,,,,,,,,,,,,,,,,,,,,,,,,,,,,,,,,,
,,,,,,,,,,,,,,,,,5ddb44664a113aaa06465dbe,42,2022-02-12_17h18.38.048,lexical_decision_task_DD_L3,2021.2.3,Win32,60.51437216,,,,,,,,,,,1.1279,1,,,,,,,,,,,,,,m,1,1.1279,,,,,,,,0.5859375,-0.177083333,0,0,0,,0,45,45,33,1,MAGGOT,LB,old,m,./images/MAGGOTLB.png,,,,,,,,,,,,,,,,,,,,,,,,,,,,,,,,,,,,
,,,,,,,,,,,,,,,,,5ddb44664a113aaa06465dbe,42,2022-02-12_17h18.38.048,lexical_decision_task_DD_L3,2021.2.3,Win32,60.51437216,,,,,,,,,,,1.4964,0,,,,,,,,,,,,,,z,0,1.4964,,,,,,,,0.5859375,-0.177083333,0,0,0,,0,46,46,68,1,TORCH,HB,old,m,./images/TORCHHB.png,,,,,,,,,,,,,,,,,,,,,,,,,,,,,,,,,,,,
,,,,,,,,,,,,,,,,,5ddb44664a113aaa06465dbe,42,2022-02-12_17h18.38.048,lexical_decision_task_DD_L3,2021.2.3,Win32,60.51437216,,,,,,,,,,,1.1794,1,,,,,,,,,,,,,,m,1,1.1794,,,,,,,,0.5859375,-0.177083333,0,0,0,,0,47,47,56,1,PACKET,HB,old,m,./images/PACKETHB.png,,,,,,,,,,,,,,,,,,,,,,,,,,,,,,,,,,,,
,,,,,,,,,,,,,,,,,5ddb44664a113aaa06465dbe,42,2022-02-12_17h18.38.048,lexical_decision_task_DD_L3,2021.2.3,Win32,60.51437216,,,,,,,,,,,1.9053,1,,,,,,,,,,,,,,z,1,1.9053,,,,,,,,0.5859375,-0.177083333,0,0,0,,0,48,48,127,1,NINDY,HB,old,z,./images/NINDYHB.png,,,,,,,,,,,,,,,,,,,,,,,,,,,,,,,,,,,,
,,,,,,,,,,,,,,,,,5ddb44664a113aaa06465dbe,42,2022-02-12_17h18.38.048,lexical_decision_task_DD_L3,2021.2.3,Win32,60.51437216,,,,,,,,,,,0.5949,1,,,,,,,,,,,,,,m,1,0.5949,,,,,,,,0.5859375,-0.177083333,0,0,0,,0,49,49,4,1,MUSCLE,C,old,m,./images/MUSCLE.png,,,,,,,,,,,,,,,,,,,,,,,,,,,,,,,,,,,,
,,,,,,,,,,,,,,,,,5ddb44664a113aaa06465dbe,42,2022-02-12_17h18.38.048,lexical_decision_task_DD_L3,2021.2.3,Win32,60.51437216,,,,,,,,,,,0.8264,1,,,,,,,,,,,,,,z,1,0.8264,,,,,,,,0.5859375,-0.177083333,0,0,0,,0,50,50,152,1,FRAIN,LB,old,z,./images/FRAINLB.png,,,,,,,,,,,,,,,,,,,,,,,,,,,,,,,,,,,,
,,,,,,,,,,,,,,,,,5ddb44664a113aaa06465dbe,42,2022-02-12_17h18.38.048,lexical_decision_task_DD_L3,2021.2.3,Win32,60.51437216,,,,,,,,,,,1.2684,1,,,,,,,,,,,,,,z,1,1.2684,,,,,,,,0.5859375,-0.177083333,0,0,0,,0,51,51,103,1,FLORT,HB,old,z,./images/FLORTHB.png,,,,,,,,,,,,,,,,,,,,,,,,,,,,,,,,,,,,
,,,,,,,,,,,,,,,,,5ddb44664a113aaa06465dbe,42,2022-02-12_17h18.38.048,lexical_decision_task_DD_L3,2021.2.3,Win32,60.51437216,,,,,,,,,,,1.2147,1,,,,,,,,,,,,,,z,1,1.2147,,,,,,,,0.5859375,-0.177083333,0,0,0,,0,52,52,120,1,RINED,C,old,z,./images/RINED.png,,,,,,,,,,,,,,,,,,,,,,,,,,,,,,,,,,,,
,,,,,,,,,,,,,,,,,5ddb44664a113aaa06465dbe,42,2022-02-12_17h18.38.048,lexical_decision_task_DD_L3,2021.2.3,Win32,60.51437216,,,,,,,,,,,1.1644,1,,,,,,,,,,,,,,z,1,1.1644,,,,,,,,0.5859375,-0.177083333,0,0,0,,0,53,53,151,1,TINKY,HB,old,z,./images/TINKYHB.png,,,,,,,,,,,,,,,,,,,,,,,,,,,,,,,,,,,,
,,,,,,,,,,,,,,,,,5ddb44664a113aaa06465dbe,42,2022-02-12_17h18.38.048,lexical_decision_task_DD_L3,2021.2.3,Win32,60.51437216,,,,,,,,,,,0.8633,1,,,,,,,,,,,,,,m,1,0.8633,,,,,,,,0.5859375,-0.177083333,0,0,0,,0,54,54,42,1,FOLDER,LB,old,m,./images/FOLDERLB.png,,,,,,,,,,,,,,,,,,,,,,,,,,,,,,,,,,,,
,,,,,,,,,,,,,,,,,5ddb44664a113aaa06465dbe,42,2022-02-12_17h18.38.048,lexical_decision_task_DD_L3,2021.2.3,Win32,60.51437216,,,,,,,,,,,0.8083,1,,,,,,,,,,,,,,m,1,0.8083,,,,,,,,0.5859375,-0.177083333,0,0,0,,0,55,55,64,1,JELLY,C,old,m,./images/JELLY.png,,,,,,,,,,,,,,,,,,,,,,,,,,,,,,,,,,,,
,,,,,,,,,,,,,,,,,5ddb44664a113aaa06465dbe,42,2022-02-12_17h18.38.048,lexical_decision_task_DD_L3,2021.2.3,Win32,60.51437216,,,,,,,,,,,1.1968,1,,,,,,,,,,,,,,z,1,1.1968,,,,,,,,0.5859375,-0.177083333,0,0,0,,0,56,56,104,1,GITTY,LB,old,z,./images/GITTYLB.png,,,,,,,,,,,,,,,,,,,,,,,,,,,,,,,,,,,,
,,,,,,,,,,,,,,,,,5ddb44664a113aaa06465dbe,42,2022-02-12_17h18.38.048,lexical_decision_task_DD_L3,2021.2.3,Win32,60.51437216,,,,,,,,,,,2.0226,1,,,,,,,,,,,,,,z,1,2.0226,,,,,,,,0.5859375,-0.177083333,0,0,0,,0,57,57,142,1,PLASK,HB,old,z,./images/PLASKHB.png,,,,,,,,,,,,,,,,,,,,,,,,,,,,,,,,,,,,
,,,,,,,,,,,,,,,,,5ddb44664a113aaa06465dbe,42,2022-02-12_17h18.38.048,lexical_decision_task_DD_L3,2021.2.3,Win32,60.51437216,,,,,,,,,,,0.6945,1,,,,,,,,,,,,,,z,1,0.6945,,,,,,,,0.5859375,-0.177083333,0,0,0,,0,58,58,156,1,HIXES,C,old,z,./images/HIXES.png,,,,,,,,,,,,,,,,,,,,,,,,,,,,,,,,,,,,
,,,,,,,,,,,,,,,,,5ddb44664a113aaa06465dbe,42,2022-02-12_17h18.38.048,lexical_decision_task_DD_L3,2021.2.3,Win32,60.51437216,,,,,,,,,,,0.8979,1,,,,,,,,,,,,,,m,1,0.8979,,,,,,,,0.5859375,-0.177083333,0,0,0,,0,59,59,0,1,TOMATO,LB,old,m,./images/TOMATOLB.png,,,,,,,,,,,,,,,,,,,,,,,,,,,,,,,,,,,,
,,,,,,,,,,,,,,,,,5ddb44664a113aaa06465dbe,42,2022-02-12_17h18.38.048,lexical_decision_task_DD_L3,2021.2.3,Win32,60.51437216,,,,,,,,,,,1.0766,1,,,,,,,,,,,,,,m,1,1.0766,,,,,,,,0.5859375,-0.177083333,0,0,0,,0,60,60,50,1,MALLET,HB,old,m,./images/MALLETHB.png,,,,,,,,,,,,,,,,,,,,,,,,,,,,,,,,,,,,
,,,,,,,,,,,,,,,,,5ddb44664a113aaa06465dbe,42,2022-02-12_17h18.38.048,lexical_decision_task_DD_L3,2021.2.3,Win32,60.51437216,,,,,,,,,,,1.1609,1,,,,,,,,,,,,,,z,1,1.1609,,,,,,,,0.5859375,-0.177083333,0,0,0,,0,61,61,158,1,EGECT,LB,old,z,./images/EGECTLB.png,,,,,,,,,,,,,,,,,,,,,,,,,,,,,,,,,,,,
,,,,,,,,,,,,,,,,,5ddb44664a113aaa06465dbe,42,2022-02-12_17h18.38.048,lexical_decision_task_DD_L3,2021.2.3,Win32,60.51437216,,,,,,,,,,,1.4576,1,,,,,,,,,,,,,,m,1,1.4576,,,,,,,,0.5859375,-0.177083333,0,0,0,,0,62,62,11,1,BONNET,HB,old,m,./images/BONNETHB.png,,,,,,,,,,,,,,,,,,,,,,,,,,,,,,,,,,,,
,,,,,,,,,,,,,,,,,5ddb44664a113aaa06465dbe,42,2022-02-12_17h18.38.048,lexical_decision_task_DD_L3,2021.2.3,Win32,60.51437216,,,,,,,,,,,0.793,1,,,,,,,,,,,,,,m,1,0.793,,,,,,,,0.5859375,-0.177083333,0,0,0,,0,63,63,79,1,CRUST,C,old,m,./images/CRUST.png,,,,,,,,,,,,,,,,,,,,,,,,,,,,,,,,,,,,
,,,,,,,,,,,,,,,,,5ddb44664a113aaa06465dbe,42,2022-02-12_17h18.38.048,lexical_decision_task_DD_L3,2021.2.3,Win32,60.51437216,,,,,,,,,,,0.5657,1,,,,,,,,,,,,,,m,1,0.5657,,,,,,,,0.5859375,-0.177083333,0,0,0,,0,64,64,35,1,PEACH,HB,old,m,./images/PEACHHB.png,,,,,,,,,,,,,,,,,,,,,,,,,,,,,,,,,,,,
,,,,,,,,,,,,,,,,,5ddb44664a113aaa06465dbe,42,2022-02-12_17h18.38.048,lexical_decision_task_DD_L3,2021.2.3,Win32,60.51437216,,,,,,,,,,,0.6009,1,,,,,,,,,,,,,,z,1,0.6009,,,,,,,,0.5859375,-0.177083333,0,0,0,,0,65,65,144,1,NAIRY,C,old,z,./images/NAIRY.png,,,,,,,,,,,,,,,,,,,,,,,,,,,,,,,,,,,,
,,,,,,,,,,,,,,,,,5ddb44664a113aaa06465dbe,42,2022-02-12_17h18.38.048,lexical_decision_task_DD_L3,2021.2.3,Win32,60.51437216,,,,,,,,,,,2.3635,1,,,,,,,,,,,,,,m,1,2.3635,,,,,,,,0.5859375,-0.177083333,0,0,0,,0,66,66,78,1,LITTER,LB,old,m,./images/LITTERLB.png,,,,,,,,,,,,,,,,,,,,,,,,,,,,,,,,,,,,
,,,,,,,,,,,,,,,,,5ddb44664a113aaa06465dbe,42,2022-02-12_17h18.38.048,lexical_decision_task_DD_L3,2021.2.3,Win32,60.51437216,,,,,,,,,,,1.9312,1,,,,,,,,,,,,,,z,1,1.9312,,,,,,,,0.5859375,-0.177083333,0,0,0,,0,67,67,97,1,CHIDS,HB,old,z,./images/CHIDSHB.png,,,,,,,,,,,,,,,,,,,,,,,,,,,,,,,,,,,,
,,,,,,,,,,,,,,,,,5ddb44664a113aaa06465dbe,42,2022-02-12_17h18.38.048,lexical_decision_task_DD_L3,2021.2.3,Win32,60.51437216,,,,,,,,,,,1.5779,1,,,,,,,,,,,,,,m,1,1.5779,,,,,,,,0.5859375,-0.177083333,0,0,0,,0,68,68,30,1,STORM,LB,old,m,./images/STORMLB.png,,,,,,,,,,,,,,,,,,,,,,,,,,,,,,,,,,,,
,,,,,,,,,,,,,,,,,5ddb44664a113aaa06465dbe,42,2022-02-12_17h18.38.048,lexical_decision_task_DD_L3,2021.2.3,Win32,60.51437216,,,,,,,,,,,1.7807,0,,,,,,,,,,,,,,z,0,1.7807,,,,,,,,0.5859375,-0.177083333,0,0,0,,0,69,69,65,1,FARMER,HB,old,m,./images/FARMERHB.png,,,,,,,,,,,,,,,,,,,,,,,,,,,,,,,,,,,,
,,,,,,,,,,,,,,,,,5ddb44664a113aaa06465dbe,42,2022-02-12_17h18.38.048,lexical_decision_task_DD_L3,2021.2.3,Win32,60.51437216,,,,,,,,,,,0.8195,1,,,,,,,,,,,,,,z,1,0.8195,,,,,,,,0.5859375,-0.177083333,0,0,0,,0,70,70,89,1,DRIEK,LB,old,z,./images/DRIEKLB.png,,,,,,,,,,,,,,,,,,,,,,,,,,,,,,,,,,,,
,,,,,,,,,,,,,,,,,5ddb44664a113aaa06465dbe,42,2022-02-12_17h18.38.048,lexical_decision_task_DD_L3,2021.2.3,Win32,60.51437216,,,,,,,,,,,1.2777,1,,,,,,,,,,,,,,z,1,1.2777,,,,,,,,0.5859375,-0.177083333,0,0,0,,0,71,71,100,1,DRIBS,HB,old,z,./images/DRIBSHB.png,,,,,,,,,,,,,,,,,,,,,,,,,,,,,,,,,,,,
,,,,,,,,,,,,,,,,,5ddb44664a113aaa06465dbe,42,2022-02-12_17h18.38.048,lexical_decision_task_DD_L3,2021.2.3,Win32,60.51437216,,,,,,,,,,,0.9124,1,,,,,,,,,,,,,,m,1,0.9124,,,,,,,,0.5859375,-0.177083333,0,0,0,,0,72,72,27,1,ATTIC,LB,old,m,./images/ATTICLB.png,,,,,,,,,,,,,,,,,,,,,,,,,,,,,,,,,,,,
,,,,,,,,,,,,,,,,,5ddb44664a113aaa06465dbe,42,2022-02-12_17h18.38.048,lexical_decision_task_DD_L3,2021.2.3,Win32,60.51437216,,,,,,,,,,,1.369,1,,,,,,,,,,,,,,z,1,1.369,,,,,,,,0.5859375,-0.177083333,0,0,0,,0,73,73,110,1,CRUNK,LB,old,z,./images/CRUNKLB.png,,,,,,,,,,,,,,,,,,,,,,,,,,,,,,,,,,,,
,,,,,,,,,,,,,,,,,5ddb44664a113aaa06465dbe,42,2022-02-12_17h18.38.048,lexical_decision_task_DD_L3,2021.2.3,Win32,60.51437216,,,,,,,,,,,0.9159,1,,,,,,,,,,,,,,z,1,0.9159,,,,,,,,0.5859375,-0.177083333,0,0,0,,0,74,74,92,1,PAIMS,LB,old,z,./images/PAIMSLB.png,,,,,,,,,,,,,,,,,,,,,,,,,,,,,,,,,,,,
,,,,,,,,,,,,,,,,,5ddb44664a113aaa06465dbe,42,2022-02-12_17h18.38.048,lexical_decision_task_DD_L3,2021.2.3,Win32,60.51437216,,,,,,,,,,,1.5979,1,,,,,,,,,,,,,,z,1,1.5979,,,,,,,,0.5859375,-0.177083333,0,0,0,,0,75,75,106,1,CLUMS,HB,old,z,./images/CLUMSHB.png,,,,,,,,,,,,,,,,,,,,,,,,,,,,,,,,,,,,
,,,,,,,,,,,,,,,,,5ddb44664a113aaa06465dbe,42,2022-02-12_17h18.38.048,lexical_decision_task_DD_L3,2021.2.3,Win32,60.51437216,,,,,,,,,,,1.3258,1,,,,,,,,,,,,,,m,1,1.3258,,,,,,,,0.5859375,-0.177083333,0,0,0,,0,76,76,47,1,BERRY,HB,old,m,./images/BERRYHB.png,,,,,,,,,,,,,,,,,,,,,,,,,,,,,,,,,,,,
,,,,,,,,,,,,,,,,,5ddb44664a113aaa06465dbe,42,2022-02-12_17h18.38.048,lexical_decision_task_DD_L3,2021.2.3,Win32,60.51437216,,,,,,,,,,,0.8812,1,,,,,,,,,,,,,,m,1,0.8812,,,,,,,,0.5859375,-0.177083333,0,0,0,,0,77,77,73,1,SNACK,C,old,m,./images/SNACK.png,,,,,,,,,,,,,,,,,,,,,,,,,,,,,,,,,,,,
,,,,,,,,,,,,,,,,,5ddb44664a113aaa06465dbe,42,2022-02-12_17h18.38.048,lexical_decision_task_DD_L3,2021.2.3,Win32,60.51437216,,,,,,,,,,,1.3903,1,,,,,,,,,,,,,,m,1,1.3903,,,,,,,,0.5859375,-0.177083333,0,0,0,,0,78,78,45,1,KITTEN,LB,old,m,./images/KITTENLB.png,,,,,,,,,,,,,,,,,,,,,,,,,,,,,,,,,,,,
,,,,,,,,,,,,,,,,,5ddb44664a113aaa06465dbe,42,2022-02-12_17h18.38.048,lexical_decision_task_DD_L3,2021.2.3,Win32,60.51437216,,,,,,,,,,,1.4245,1,,,,,,,,,,,,,,z,1,1.4245,,,,,,,,0.5859375,-0.177083333,0,0,0,,0,79,79,96,1,KEAMS,C,old,z,./images/KEAMS.png,,,,,,,,,,,,,,,,,,,,,,,,,,,,,,,,,,,,
,,,,,,,,,,,,,,,,,5ddb44664a113aaa06465dbe,42,2022-02-12_17h18.38.048,lexical_decision_task_DD_L3,2021.2.3,Win32,60.51437216,,,,,,,,,,,0.9095,0,,,,,,,,,,,,,,z,0,0.9095,,,,,,,,0.5859375,-0.177083333,0,0,0,,0,80,80,8,1,TULIP,HB,old,m,./images/TULIPHB.png,,,,,,,,,,,,,,,,,,,,,,,,,,,,,,,,,,,,
,,,,,,,,,,,,,,,,,5ddb44664a113aaa06465dbe,42,2022-02-12_17h18.38.048,lexical_decision_task_DD_L3,2021.2.3,Win32,60.51437216,,,,,,,,,,,0.998,1,,,,,,,,,,,,,,m,1,0.998,,,,,,,,0.5859375,-0.177083333,0,0,0,,0,81,81,60,1,TWINS,LB,old,m,./images/TWINSLB.png,,,,,,,,,,,,,,,,,,,,,,,,,,,,,,,,,,,,
,,,,,,,,,,,,,,,,,5ddb44664a113aaa06465dbe,42,2022-02-12_17h18.38.048,lexical_decision_task_DD_L3,2021.2.3,Win32,60.51437216,,,,,,,,,,,0.7385,1,,,,,,,,,,,,,,m,1,0.7385,,,,,,,,0.5859375,-0.177083333,0,0,0,,0,82,82,40,1,SWING,C,old,m,./images/SWING.png,,,,,,,,,,,,,,,,,,,,,,,,,,,,,,,,,,,,
,,,,,,,,,,,,,,,,,5ddb44664a113aaa06465dbe,42,2022-02-12_17h18.38.048,lexical_decision_task_DD_L3,2021.2.3,Win32,60.51437216,,,,,,,,,,,0.5979,1,,,,,,,,,,,,,,m,1,0.5979,,,,,,,,0.5859375,-0.177083333,0,0,0,space,0,83,83,28,1,FALCON,C,old,m,./images/FALCON.png,25.1462,,,,,,,,,,,,,,,,,,,,,,,,,,,,,,,,,,,
,,,,,,,,,,,,,,,,,5ddb44664a113aaa06465dbe,42,2022-02-12_17h18.38.048,lexical_decision_task_DD_L3,2021.2.3,Win32,60.51437216,,,,,,,,,,,1.8142,1,,,,,,,,,,,,,,z,1,1.8142,,,,,,,,0.5859375,-0.177083333,0,0,0,,0,84,84,88,1,GLUSH,HB,old,z,./images/GLUSHHB.png,,,,,,,,,,,,,,,,,,,,,,,,,,,,,,,,,,,,
,,,,,,,,,,,,,,,,,5ddb44664a113aaa06465dbe,42,2022-02-12_17h18.38.048,lexical_decision_task_DD_L3,2021.2.3,Win32,60.51437216,,,,,,,,,,,0.5909,1,,,,,,,,,,,,,,z,1,0.5909,,,,,,,,0.5859375,-0.177083333,0,0,0,,0,85,85,161,1,BLAPS,LB,old,z,./images/BLAPSLB.png,,,,,,,,,,,,,,,,,,,,,,,,,,,,,,,,,,,,
,,,,,,,,,,,,,,,,,5ddb44664a113aaa06465dbe,42,2022-02-12_17h18.38.048,lexical_decision_task_DD_L3,2021.2.3,Win32,60.51437216,,,,,,,,,,,0.8146,1,,,,,,,,,,,,,,m,1,0.8146,,,,,,,,0.5859375,-0.177083333,0,0,0,,0,86,86,32,1,BARREL,HB,old,m,./images/BARRELHB.png,,,,,,,,,,,,,,,,,,,,,,,,,,,,,,,,,,,,
,,,,,,,,,,,,,,,,,5ddb44664a113aaa06465dbe,42,2022-02-12_17h18.38.048,lexical_decision_task_DD_L3,2021.2.3,Win32,60.51437216,,,,,,,,,,,0.4745,1,,,,,,,,,,,,,,m,1,0.4745,,,,,,,,0.5859375,-0.177083333,0,0,0,,0,87,87,63,1,MIRROR,LB,old,m,./images/MIRRORLB.png,,,,,,,,,,,,,,,,,,,,,,,,,,,,,,,,,,,,
,,,,,,,,,,,,,,,,,5ddb44664a113aaa06465dbe,42,2022-02-12_17h18.38.048,lexical_decision_task_DD_L3,2021.2.3,Win32,60.51437216,,,,,,,,,,,15.1302,1,,,,,,,,,,,,,,z,1,15.1302,,,,,,,,0.5859375,-0.177083333,0,0,0,,0,88,88,124,1,TUNCH,HB,old,z,./images/TUNCHHB.png,,,,,,,,,,,,,,,,,,,,,,,,,,,,,,,,,,,,
,,,,,,,,,,,,,,,,,5ddb44664a113aaa06465dbe,42,2022-02-12_17h18.38.048,lexical_decision_task_DD_L3,2021.2.3,Win32,60.51437216,,,,,,,,,,,18.0427,0,,,,,,,,,,,,,,z,0,18.0427,,,,,,,,0.5859375,-0.177083333,0,0,0,,0,89,89,10,1,BELLY,C,old,m,./images/BELLY.png,,,,,,,,,,,,,,,,,,,,,,,,,,,,,,,,,,,,
,,,,,,,,,,,,,,,,,5ddb44664a113aaa06465dbe,42,2022-02-12_17h18.38.048,lexical_decision_task_DD_L3,2021.2.3,Win32,60.51437216,,,,,,,,,,,0.6469,1,,,,,,,,,,,,,,z,1,0.6469,,,,,,,,0.5859375,-0.177083333,0,0,0,,0,90,90,94,1,BLANS,HB,old,z,./images/BLANSHB.png,,,,,,,,,,,,,,,,,,,,,,,,,,,,,,,,,,,,
,,,,,,,,,,,,,,,,,5ddb44664a113aaa06465dbe,42,2022-02-12_17h18.38.048,lexical_decision_task_DD_L3,2021.2.3,Win32,60.51437216,,,,,,,,,,,1.5744,1,,,,,,,,,,,,,,m,1,1.5744,,,,,,,,0.5859375,-0.177083333,0,0,0,,0,91,91,51,1,ONION,LB,old,m,./images/ONIONLB.png,,,,,,,,,,,,,,,,,,,,,,,,,,,,,,,,,,,,
,,,,,,,,,,,,,,,,,5ddb44664a113aaa06465dbe,42,2022-02-12_17h18.38.048,lexical_decision_task_DD_L3,2021.2.3,Win32,60.51437216,,,,,,,,,,,2.3943,1,,,,,,,,,,,,,,m,1,2.3943,,,,,,,,0.5859375,-0.177083333,0,0,0,,0,92,92,58,1,BABOON,C,old,m,./images/BABOON.png,,,,,,,,,,,,,,,,,,,,,,,,,,,,,,,,,,,,
,,,,,,,,,,,,,,,,,5ddb44664a113aaa06465dbe,42,2022-02-12_17h18.38.048,lexical_decision_task_DD_L3,2021.2.3,Win32,60.51437216,,,,,,,,,,,1.9469,1,,,,,,,,,,,,,,z,1,1.9469,,,,,,,,0.5859375,-0.177083333,0,0,0,,0,93,93,101,1,GLEET,LB,old,z,./images/GLEETLB.png,,,,,,,,,,,,,,,,,,,,,,,,,,,,,,,,,,,,
,,,,,,,,,,,,,,,,,5ddb44664a113aaa06465dbe,42,2022-02-12_17h18.38.048,lexical_decision_task_DD_L3,2021.2.3,Win32,60.51437216,,,,,,,,,,,2.1321,1,,,,,,,,,,,,,,m,1,2.1321,,,,,,,,0.5859375,-0.177083333,0,0,0,,0,94,94,15,1,GREASE,LB,old,m,./images/GREASELB.png,,,,,,,,,,,,,,,,,,,,,,,,,,,,,,,,,,,,
,,,,,,,,,,,,,,,,,5ddb44664a113aaa06465dbe,42,2022-02-12_17h18.38.048,lexical_decision_task_DD_L3,2021.2.3,Win32,60.51437216,,,,,,,,,,,1.3703,1,,,,,,,,,,,,,,m,1,1.3703,,,,,,,,0.5859375,-0.177083333,0,0,0,,0,95,95,20,1,CRADLE,HB,old,m,./images/CRADLEHB.png,,,,,,,,,,,,,,,,,,,,,,,,,,,,,,,,,,,,
,,,,,,,,,,,,,,,,,5ddb44664a113aaa06465dbe,42,2022-02-12_17h18.38.048,lexical_decision_task_DD_L3,2021.2.3,Win32,60.51437216,,,,,,,,,,,0.7069,1,,,,,,,,,,,,,,m,1,0.7069,,,,,,,,0.5859375,-0.177083333,0,0,0,,0,96,96,61,1,CANDLE,C,old,m,./images/CANDLE.png,,,,,,,,,,,,,,,,,,,,,,,,,,,,,,,,,,,,
,,,,,,,,,,,,,,,,,5ddb44664a113aaa06465dbe,42,2022-02-12_17h18.38.048,lexical_decision_task_DD_L3,2021.2.3,Win32,60.51437216,,,,,,,,,,,2.1233,1,,,,,,,,,,,,,,z,1,2.1233,,,,,,,,0.5859375,-0.177083333,0,0,0,,0,97,97,159,1,CUDDY,C,old,z,./images/CUDDY.png,,,,,,,,,,,,,,,,,,,,,,,,,,,,,,,,,,,,
,,,,,,,,,,,,,,,,,5ddb44664a113aaa06465dbe,42,2022-02-12_17h18.38.048,lexical_decision_task_DD_L3,2021.2.3,Win32,60.51437216,,,,,,,,,,,1.7289,1,,,,,,,,,,,,,,m,1,1.7289,,,,,,,,0.5859375,-0.177083333,0,0,0,,0,98,98,14,1,PICKLE,HB,old,m,./images/PICKLEHB.png,,,,,,,,,,,,,,,,,,,,,,,,,,,,,,,,,,,,
,,,,,,,,,,,,,,,,,5ddb44664a113aaa06465dbe,42,2022-02-12_17h18.38.048,lexical_decision_task_DD_L3,2021.2.3,Win32,60.51437216,,,,,,,,,,,1.3958,1,,,,,,,,,,,,,,z,1,1.3958,,,,,,,,0.5859375,-0.177083333,0,0,0,,0,99,99,153,1,CLUPS,C,old,z,./images/CLUPS.png,,,,,,,,,,,,,,,,,,,,,,,,,,,,,,,,,,,,
,,,,,,,,,,,,,,,,,5ddb44664a113aaa06465dbe,42,2022-02-12_17h18.38.048,lexical_decision_task_DD_L3,2021.2.3,Win32,60.51437216,,,,,,,,,,,2.0584,1,,,,,,,,,,,,,,m,1,2.0584,,,,,,,,0.5859375,-0.177083333,0,0,0,,0,100,100,38,1,LADDER,HB,old,m,./images/LADDERHB.png,,,,,,,,,,,,,,,,,,,,,,,,,,,,,,,,,,,,
,,,,,,,,,,,,,,,,,5ddb44664a113aaa06465dbe,42,2022-02-12_17h18.38.048,lexical_decision_task_DD_L3,2021.2.3,Win32,60.51437216,,,,,,,,,,,1.0554,1,,,,,,,,,,,,,,z,1,1.0554,,,,,,,,0.5859375,-0.177083333,0,0,0,,0,101,101,126,1,GUELS,C,old,z,./images/GUELS.png,,,,,,,,,,,,,,,,,,,,,,,,,,,,,,,,,,,,
,,,,,,,,,,,,,,,,,5ddb44664a113aaa06465dbe,42,2022-02-12_17h18.38.048,lexical_decision_task_DD_L3,2021.2.3,Win32,60.51437216,,,,,,,,,,,1.139,1,,,,,,,,,,,,,,m,1,1.139,,,,,,,,0.5859375,-0.177083333,0,0,0,,0,102,102,41,1,STRING,HB,old,m,./images/STRINGHB.png,,,,,,,,,,,,,,,,,,,,,,,,,,,,,,,,,,,,
,,,,,,,,,,,,,,,,,5ddb44664a113aaa06465dbe,42,2022-02-12_17h18.38.048,lexical_decision_task_DD_L3,2021.2.3,Win32,60.51437216,,,,,,,,,,,0.94,0,,,,,,,,,,,,,,z,0,0.94,,,,,,,,0.5859375,-0.177083333,0,0,0,,0,103,103,29,1,CRUMB,HB,old,m,./images/CRUMBHB.png,,,,,,,,,,,,,,,,,,,,,,,,,,,,,,,,,,,,
,,,,,,,,,,,,,,,,,5ddb44664a113aaa06465dbe,42,2022-02-12_17h18.38.048,lexical_decision_task_DD_L3,2021.2.3,Win32,60.51437216,,,,,,,,,,,0.5952,1,,,,,,,,,,,,,,z,1,0.5952,,,,,,,,0.5859375,-0.177083333,0,0,0,,0,104,104,117,1,STEEG,C,old,z,./images/STEEG.png,,,,,,,,,,,,,,,,,,,,,,,,,,,,,,,,,,,,
,,,,,,,,,,,,,,,,,5ddb44664a113aaa06465dbe,42,2022-02-12_17h18.38.048,lexical_decision_task_DD_L3,2021.2.3,Win32,60.51437216,,,,,,,,,,,0.926,1,,,,,,,,,,,,,,z,1,0.926,,,,,,,,0.5859375,-0.177083333,0,0,0,,0,105,105,87,1,TRING,C,old,z,./images/TRING.png,,,,,,,,,,,,,,,,,,,,,,,,,,,,,,,,,,,,
,,,,,,,,,,,,,,,,,5ddb44664a113aaa06465dbe,42,2022-02-12_17h18.38.048,lexical_decision_task_DD_L3,2021.2.3,Win32,60.51437216,,,,,,,,,,,1.4688,1,,,,,,,,,,,,,,z,1,1.4688,,,,,,,,0.5859375,-0.177083333,0,0,0,,0,106,106,139,1,BLEAR,HB,old,z,./images/BLEARHB.png,,,,,,,,,,,,,,,,,,,,,,,,,,,,,,,,,,,,
,,,,,,,,,,,,,,,,,5ddb44664a113aaa06465dbe,42,2022-02-12_17h18.38.048,lexical_decision_task_DD_L3,2021.2.3,Win32,60.51437216,,,,,,,,,,,0.7677,1,,,,,,,,,,,,,,m,1,0.7677,,,,,,,,0.5859375,-0.177083333,0,0,0,,0,107,107,81,1,POODLE,LB,old,m,./images/POODLELB.png,,,,,,,,,,,,,,,,,,,,,,,,,,,,,,,,,,,,
,,,,,,,,,,,,,,,,,5ddb44664a113aaa06465dbe,42,2022-02-12_17h18.38.048,lexical_decision_task_DD_L3,2021.2.3,Win32,60.51437216,,,,,,,,,,,1.1014,1,,,,,,,,,,,,,,z,1,1.1014,,,,,,,,0.5859375,-0.177083333,0,0,0,,0,108,108,85,1,CHULK,HB,old,z,./images/CHULKHB.png,,,,,,,,,,,,,,,,,,,,,,,,,,,,,,,,,,,,
,,,,,,,,,,,,,,,,,5ddb44664a113aaa06465dbe,42,2022-02-12_17h18.38.048,lexical_decision_task_DD_L3,2021.2.3,Win32,60.51437216,,,,,,,,,,,0.8882,1,,,,,,,,,,,,,,z,1,0.8882,,,,,,,,0.5859375,-0.177083333,0,0,0,,0,109,109,143,1,MONGS,LB,old,z,./images/MONGSLB.png,,,,,,,,,,,,,,,,,,,,,,,,,,,,,,,,,,,,
,,,,,,,,,,,,,,,,,5ddb44664a113aaa06465dbe,42,2022-02-12_17h18.38.048,lexical_decision_task_DD_L3,2021.2.3,Win32,60.51437216,,,,,,,,,,,0.7132,1,,,,,,,,,,,,,,z,1,0.7132,,,,,,,,0.5859375,-0.177083333,0,0,0,,0,110,110,167,1,ZONET,LB,old,z,./images/ZONETLB.png,,,,,,,,,,,,,,,,,,,,,,,,,,,,,,,,,,,,
,,,,,,,,,,,,,,,,,5ddb44664a113aaa06465dbe,42,2022-02-12_17h18.38.048,lexical_decision_task_DD_L3,2021.2.3,Win32,60.51437216,,,,,,,,,,,0.5811,1,,,,,,,,,,,,,,z,1,0.5811,,,,,,,,0.5859375,-0.177083333,0,0,0,,0,111,111,155,1,CANGY,LB,old,z,./images/CANGYLB.png,,,,,,,,,,,,,,,,,,,,,,,,,,,,,,,,,,,,
,,,,,,,,,,,,,,,,,5ddb44664a113aaa06465dbe,42,2022-02-12_17h18.38.048,lexical_decision_task_DD_L3,2021.2.3,Win32,60.51437216,,,,,,,,,,,0.5207,0,,,,,,,,,,,,,,z,0,0.5207,,,,,,,,0.5859375,-0.177083333,0,0,0,,0,112,112,75,1,GRAIN,LB,old,m,./images/GRAINLB.png,,,,,,,,,,,,,,,,,,,,,,,,,,,,,,,,,,,,
,,,,,,,,,,,,,,,,,5ddb44664a113aaa06465dbe,42,2022-02-12_17h18.38.048,lexical_decision_task_DD_L3,2021.2.3,Win32,60.51437216,,,,,,,,,,,1.073,1,,,,,,,,,,,,,,m,1,1.073,,,,,,,,0.5859375,-0.177083333,0,0,0,,0,113,113,2,1,BEARD,HB,old,m,./images/BEARDHB.png,,,,,,,,,,,,,,,,,,,,,,,,,,,,,,,,,,,,
,,,,,,,,,,,,,,,,,5ddb44664a113aaa06465dbe,42,2022-02-12_17h18.38.048,lexical_decision_task_DD_L3,2021.2.3,Win32,60.51437216,,,,,,,,,,,0.6902,1,,,,,,,,,,,,,,z,1,0.6902,,,,,,,,0.5859375,-0.177083333,0,0,0,,0,114,114,150,1,NOOLS,C,old,z,./images/NOOLS.png,,,,,,,,,,,,,,,,,,,,,,,,,,,,,,,,,,,,
,,,,,,,,,,,,,,,,,5ddb44664a113aaa06465dbe,42,2022-02-12_17h18.38.048,lexical_decision_task_DD_L3,2021.2.3,Win32,60.51437216,,,,,,,,,,,1.0771,1,,,,,,,,,,,,,,z,1,1.0771,,,,,,,,0.5859375,-0.177083333,0,0,0,,0,115,115,133,1,POWDY,HB,old,z,./images/POWDYHB.png,,,,,,,,,,,,,,,,,,,,,,,,,,,,,,,,,,,,
,,,,,,,,,,,,,,,,,5ddb44664a113aaa06465dbe,42,2022-02-12_17h18.38.048,lexical_decision_task_DD_L3,2021.2.3,Win32,60.51437216,,,,,,,,,,,0.693,1,,,,,,,,,,,,,,m,1,0.693,,,,,,,,0.5859375,-0.177083333,0,0,0,,0,116,116,48,1,SPORT,LB,old,m,./images/SPORTLB.png,,,,,,,,,,,,,,,,,,,,,,,,,,,,,,,,,,,,
,,,,,,,,,,,,,,,,,5ddb44664a113aaa06465dbe,42,2022-02-12_17h18.38.048,lexical_decision_task_DD_L3,2021.2.3,Win32,60.51437216,,,,,,,,,,,1.2102,1,,,,,,,,,,,,,,z,1,1.2102,,,,,,,,0.5859375,-0.177083333,0,0,0,,0,117,117,132,1,SCIFF,C,old,z,./images/SCIFF.png,,,,,,,,,,,,,,,,,,,,,,,,,,,,,,,,,,,,
,,,,,,,,,,,,,,,,,5ddb44664a113aaa06465dbe,42,2022-02-12_17h18.38.048,lexical_decision_task_DD_L3,2021.2.3,Win32,60.51437216,,,,,,,,,,,0.7298,1,,,,,,,,,,,,,,m,1,0.7298,,,,,,,,0.5859375,-0.177083333,0,0,0,,0,118,118,25,1,WRIST,C,old,m,./images/WRIST.png,,,,,,,,,,,,,,,,,,,,,,,,,,,,,,,,,,,,
,,,,,,,,,,,,,,,,,5ddb44664a113aaa06465dbe,42,2022-02-12_17h18.38.048,lexical_decision_task_DD_L3,2021.2.3,Win32,60.51437216,,,,,,,,,,,0.8304,1,,,,,,,,,,,,,,z,1,0.8304,,,,,,,,0.5859375,-0.177083333,0,0,0,,0,119,119,141,1,PLEET,C,old,z,./images/PLEET.png,,,,,,,,,,,,,,,,,,,,,,,,,,,,,,,,,,,,
,,,,,,,,,,,,,,,,,5ddb44664a113aaa06465dbe,42,2022-02-12_17h18.38.048,lexical_decision_task_DD_L3,2021.2.3,Win32,60.51437216,,,,,,,,,,,1.8103,1,,,,,,,,,,,,,,z,1,1.8103,,,,,,,,0.5859375,-0.177083333,0,0,0,,0,120,120,121,1,CEERS,HB,old,z,./images/CEERSHB.png,,,,,,,,,,,,,,,,,,,,,,,,,,,,,,,,,,,,
,,,,,,,,,,,,,,,,,5ddb44664a113aaa06465dbe,42,2022-02-12_17h18.38.048,lexical_decision_task_DD_L3,2021.2.3,Win32,60.51437216,,,,,,,,,,,0.8315,1,,,,,,,,,,,,,,m,1,0.8315,,,,,,,,0.5859375,-0.177083333,0,0,0,,0,121,121,23,1,WALRUS,HB,old,m,./images/WALRUSHB.png,,,,,,,,,,,,,,,,,,,,,,,,,,,,,,,,,,,,
,,,,,,,,,,,,,,,,,5ddb44664a113aaa06465dbe,42,2022-02-12_17h18.38.048,lexical_decision_task_DD_L3,2021.2.3,Win32,60.51437216,,,,,,,,,,,0.6995,1,,,,,,,,,,,,,,m,1,0.6995,,,,,,,,0.5859375,-0.177083333,0,0,0,,0,122,122,3,1,FINGER,LB,old,m,./images/FINGERLB.png,,,,,,,,,,,,,,,,,,,,,,,,,,,,,,,,,,,,
,,,,,,,,,,,,,,,,,5ddb44664a113aaa06465dbe,42,2022-02-12_17h18.38.048,lexical_decision_task_DD_L3,2021.2.3,Win32,60.51437216,,,,,,,,,,,0.6558,1,,,,,,,,,,,,,,m,1,0.6558,,,,,,,,0.5859375,-0.177083333,0,0,0,,0,123,123,1,1,PLANK,C,old,m,./images/PLANK.png,,,,,,,,,,,,,,,,,,,,,,,,,,,,,,,,,,,,
,,,,,,,,,,,,,,,,,5ddb44664a113aaa06465dbe,42,2022-02-12_17h18.38.048,lexical_decision_task_DD_L3,2021.2.3,Win32,60.51437216,,,,,,,,,,,0.6473,1,,,,,,,,,,,,,,m,1,0.6473,,,,,,,,0.5859375,-0.177083333,0,0,0,,0,124,124,43,1,MOSQUE,C,old,m,./images/MOSQUE.png,,,,,,,,,,,,,,,,,,,,,,,,,,,,,,,,,,,,
,,,,,,,,,,,,,,,,,5ddb44664a113aaa06465dbe,42,2022-02-12_17h18.38.048,lexical_decision_task_DD_L3,2021.2.3,Win32,60.51437216,,,,,,,,,,,0.6022,1,,,,,,,,,,,,,,m,1,0.6022,,,,,,,,0.5859375,-0.177083333,0,0,0,space,0,125,125,72,1,NOOSE,LB,old,m,./images/NOOSELB.png,3.2341,,,,,,,,,,,,,,,,,,,,,,,,,,,,,,,,,,,
,,,,,,,,,,,,,,,,,5ddb44664a113aaa06465dbe,42,2022-02-12_17h18.38.048,lexical_decision_task_DD_L3,2021.2.3,Win32,60.51437216,,,,,,,,,,,0.9297,1,,,,,,,,,,,,,,z,1,0.9297,,,,,,,,0.5859375,-0.177083333,0,0,0,,0,126,126,145,1,LAMEL,HB,old,z,./images/LAMELHB.png,,,,,,,,,,,,,,,,,,,,,,,,,,,,,,,,,,,,
,,,,,,,,,,,,,,,,,5ddb44664a113aaa06465dbe,42,2022-02-12_17h18.38.048,lexical_decision_task_DD_L3,2021.2.3,Win32,60.51437216,,,,,,,,,,,0.6619,1,,,,,,,,,,,,,,m,1,0.6619,,,,,,,,0.5859375,-0.177083333,0,0,0,,0,127,127,34,1,CANYON,C,old,m,./images/CANYON.png,,,,,,,,,,,,,,,,,,,,,,,,,,,,,,,,,,,,
,,,,,,,,,,,,,,,,,5ddb44664a113aaa06465dbe,42,2022-02-12_17h18.38.048,lexical_decision_task_DD_L3,2021.2.3,Win32,60.51437216,,,,,,,,,,,0.5773,1,,,,,,,,,,,,,,m,1,0.5773,,,,,,,,0.5859375,-0.177083333,0,0,0,,0,128,128,66,1,SWEAT,LB,old,m,./images/SWEATLB.png,,,,,,,,,,,,,,,,,,,,,,,,,,,,,,,,,,,,
,,,,,,,,,,,,,,,,,5ddb44664a113aaa06465dbe,42,2022-02-12_17h18.38.048,lexical_decision_task_DD_L3,2021.2.3,Win32,60.51437216,,,,,,,,,,,0.592,1,,,,,,,,,,,,,,z,1,0.592,,,,,,,,0.5859375,-0.177083333,0,0,0,,0,129,129,162,1,LEICH,C,old,z,./images/LEICH.png,,,,,,,,,,,,,,,,,,,,,,,,,,,,,,,,,,,,
,,,,,,,,,,,,,,,,,5ddb44664a113aaa06465dbe,42,2022-02-12_17h18.38.048,lexical_decision_task_DD_L3,2021.2.3,Win32,60.51437216,,,,,,,,,,,0.8502,1,,,,,,,,,,,,,,z,1,0.8502,,,,,,,,0.5859375,-0.177083333,0,0,0,,0,130,130,111,1,HOSSE,C,old,z,./images/HOSSE.png,,,,,,,,,,,,,,,,,,,,,,,,,,,,,,,,,,,,
,,,,,,,,,,,,,,,,,5ddb44664a113aaa06465dbe,42,2022-02-12_17h18.38.048,lexical_decision_task_DD_L3,2021.2.3,Win32,60.51437216,,,,,,,,,,,0.8171,1,,,,,,,,,,,,,,z,1,0.8171,,,,,,,,0.5859375,-0.177083333,0,0,0,,0,131,131,112,1,MYING,HB,old,z,./images/MYINGHB.png,,,,,,,,,,,,,,,,,,,,,,,,,,,,,,,,,,,,
,,,,,,,,,,,,,,,,,5ddb44664a113aaa06465dbe,42,2022-02-12_17h18.38.048,lexical_decision_task_DD_L3,2021.2.3,Win32,60.51437216,,,,,,,,,,,1.0088,1,,,,,,,,,,,,,,m,1,1.0088,,,,,,,,0.5859375,-0.177083333,0,0,0,,0,132,132,80,1,WEASEL,HB,old,m,./images/WEASELHB.png,,,,,,,,,,,,,,,,,,,,,,,,,,,,,,,,,,,,
,,,,,,,,,,,,,,,,,5ddb44664a113aaa06465dbe,42,2022-02-12_17h18.38.048,lexical_decision_task_DD_L3,2021.2.3,Win32,60.51437216,,,,,,,,,,,0.9863,1,,,,,,,,,,,,,,z,1,0.9863,,,,,,,,0.5859375,-0.177083333,0,0,0,,0,133,133,95,1,HANTY,LB,old,z,./images/HANTYLB.png,,,,,,,,,,,,,,,,,,,,,,,,,,,,,,,,,,,,
,,,,,,,,,,,,,,,,,5ddb44664a113aaa06465dbe,42,2022-02-12_17h18.38.048,lexical_decision_task_DD_L3,2021.2.3,Win32,60.51437216,,,,,,,,,,,1.0108,1,,,,,,,,,,,,,,z,1,1.0108,,,,,,,,0.5859375,-0.177083333,0,0,0,,0,134,134,163,1,GAMBA,HB,old,z,./images/GAMBAHB.png,,,,,,,,,,,,,,,,,,,,,,,,,,,,,,,,,,,,
,,,,,,,,,,,,,,,,,5ddb44664a113aaa06465dbe,42,2022-02-12_17h18.38.048,lexical_decision_task_DD_L3,2021.2.3,Win32,60.51437216,,,,,,,,,,,0.718,1,,,,,,,,,,,,,,z,1,0.718,,,,,,,,0.5859375,-0.177083333,0,0,0,,0,135,135,84,1,HAXES,C,old,z,./images/HAXES.png,,,,,,,,,,,,,,,,,,,,,,,,,,,,,,,,,,,,
,,,,,,,,,,,,,,,,,5ddb44664a113aaa06465dbe,42,2022-02-12_17h18.38.048,lexical_decision_task_DD_L3,2021.2.3,Win32,60.51437216,,,,,,,,,,,0.8825,1,,,,,,,,,,,,,,z,1,0.8825,,,,,,,,0.5859375,-0.177083333,0,0,0,,0,136,136,118,1,BAVEL,HB,old,z,./images/BAVELHB.png,,,,,,,,,,,,,,,,,,,,,,,,,,,,,,,,,,,,
,,,,,,,,,,,,,,,,,5ddb44664a113aaa06465dbe,42,2022-02-12_17h18.38.048,lexical_decision_task_DD_L3,2021.2.3,Win32,60.51437216,,,,,,,,,,,0.6193,1,,,,,,,,,,,,,,z,1,0.6193,,,,,,,,0.5859375,-0.177083333,0,0,0,,0,137,137,165,1,TROWN,C,old,z,./images/TROWN.png,,,,,,,,,,,,,,,,,,,,,,,,,,,,,,,,,,,,
,,,,,,,,,,,,,,,,,5ddb44664a113aaa06465dbe,42,2022-02-12_17h18.38.048,lexical_decision_task_DD_L3,2021.2.3,Win32,60.51437216,,,,,,,,,,,0.5697,1,,,,,,,,,,,,,,m,1,0.5697,,,,,,,,0.5859375,-0.177083333,0,0,0,,0,138,138,57,1,MOOSE,LB,old,m,./images/MOOSELB.png,,,,,,,,,,,,,,,,,,,,,,,,,,,,,,,,,,,,
,,,,,,,,,,,,,,,,,5ddb44664a113aaa06465dbe,42,2022-02-12_17h18.38.048,lexical_decision_task_DD_L3,2021.2.3,Win32,60.51437216,,,,,,,,,,,0.5984,1,,,,,,,,,,,,,,z,1,0.5984,,,,,,,,0.5859375,-0.177083333,0,0,0,,0,139,139,86,1,AIFED,LB,old,z,./images/AIFEDLB.png,,,,,,,,,,,,,,,,,,,,,,,,,,,,,,,,,,,,
,,,,,,,,,,,,,,,,,5ddb44664a113aaa06465dbe,42,2022-02-12_17h18.38.048,lexical_decision_task_DD_L3,2021.2.3,Win32,60.51437216,,,,,,,,,,,0.8742,1,,,,,,,,,,,,,,z,1,0.8742,,,,,,,,0.5859375,-0.177083333,0,0,0,,0,140,140,102,1,DULLE,C,old,z,./images/DULLE.png,,,,,,,,,,,,,,,,,,,,,,,,,,,,,,,,,,,,
,,,,,,,,,,,,,,,,,5ddb44664a113aaa06465dbe,42,2022-02-12_17h18.38.048,lexical_decision_task_DD_L3,2021.2.3,Win32,60.51437216,,,,,,,,,,,0.6297,1,,,,,,,,,,,,,,m,1,0.6297,,,,,,,,0.5859375,-0.177083333,0,0,0,,0,141,141,52,1,BANNER,C,old,m,./images/BANNER.png,,,,,,,,,,,,,,,,,,,,,,,,,,,,,,,,,,,,
,,,,,,,,,,,,,,,,,5ddb44664a113aaa06465dbe,42,2022-02-12_17h18.38.048,lexical_decision_task_DD_L3,2021.2.3,Win32,60.51437216,,,,,,,,,,,0.7379,1,,,,,,,,,,,,,,z,1,0.7379,,,,,,,,0.5859375,-0.177083333,0,0,0,,0,142,142,129,1,PRANS,C,old,z,./images/PRANS.png,,,,,,,,,,,,,,,,,,,,,,,,,,,,,,,,,,,,
,,,,,,,,,,,,,,,,,5ddb44664a113aaa06465dbe,42,2022-02-12_17h18.38.048,lexical_decision_task_DD_L3,2021.2.3,Win32,60.51437216,,,,,,,,,,,1.1298,1,,,,,,,,,,,,,,z,1,1.1298,,,,,,,,0.5859375,-0.177083333,0,0,0,,0,143,143,157,1,INLER,HB,old,z,./images/INLERHB.png,,,,,,,,,,,,,,,,,,,,,,,,,,,,,,,,,,,,
,,,,,,,,,,,,,,,,,5ddb44664a113aaa06465dbe,42,2022-02-12_17h18.38.048,lexical_decision_task_DD_L3,2021.2.3,Win32,60.51437216,,,,,,,,,,,0.61,1,,,,,,,,,,,,,,z,1,0.61,,,,,,,,0.5859375,-0.177083333,0,0,0,,0,144,144,125,1,MOOKY,LB,old,z,./images/MOOKYLB.png,,,,,,,,,,,,,,,,,,,,,,,,,,,,,,,,,,,,
,,,,,,,,,,,,,,,,,5ddb44664a113aaa06465dbe,42,2022-02-12_17h18.38.048,lexical_decision_task_DD_L3,2021.2.3,Win32,60.51437216,,,,,,,,,,,0.6961,1,,,,,,,,,,,,,,z,1,0.6961,,,,,,,,0.5859375,-0.177083333,0,0,0,,0,145,145,147,1,ZOLES,C,old,z,./images/ZOLES.png,,,,,,,,,,,,,,,,,,,,,,,,,,,,,,,,,,,,
,,,,,,,,,,,,,,,,,5ddb44664a113aaa06465dbe,42,2022-02-12_17h18.38.048,lexical_decision_task_DD_L3,2021.2.3,Win32,60.51437216,,,,,,,,,,,0.8777,1,,,,,,,,,,,,,,z,1,0.8777,,,,,,,,0.5859375,-0.177083333,0,0,0,,0,146,146,108,1,GRUET,C,old,z,./images/GRUET.png,,,,,,,,,,,,,,,,,,,,,,,,,,,,,,,,,,,,
,,,,,,,,,,,,,,,,,5ddb44664a113aaa06465dbe,42,2022-02-12_17h18.38.048,lexical_decision_task_DD_L3,2021.2.3,Win32,60.51437216,,,,,,,,,,,0.7952,1,,,,,,,,,,,,,,z,1,0.7952,,,,,,,,0.5859375,-0.177083333,0,0,0,,0,147,147,164,1,SGREW,LB,old,z,./images/SGREWLB.png,,,,,,,,,,,,,,,,,,,,,,,,,,,,,,,,,,,,
,,,,,,,,,,,,,,,,,5ddb44664a113aaa06465dbe,42,2022-02-12_17h18.38.048,lexical_decision_task_DD_L3,2021.2.3,Win32,60.51437216,,,,,,,,,,,0.6975,1,,,,,,,,,,,,,,m,1,0.6975,,,,,,,,0.5859375,-0.177083333,0,0,0,,0,148,148,12,1,SHORE,LB,old,m,./images/SHORELB.png,,,,,,,,,,,,,,,,,,,,,,,,,,,,,,,,,,,,
,,,,,,,,,,,,,,,,,5ddb44664a113aaa06465dbe,42,2022-02-12_17h18.38.048,lexical_decision_task_DD_L3,2021.2.3,Win32,60.51437216,,,,,,,,,,,0.7973,1,,,,,,,,,,,,,,z,1,0.7973,,,,,,,,0.5859375,-0.177083333,0,0,0,,0,149,149,138,1,PLICE,C,old,z,./images/PLICE.png,,,,,,,,,,,,,,,,,,,,,,,,,,,,,,,,,,,,
,,,,,,,,,,,,,,,,,5ddb44664a113aaa06465dbe,42,2022-02-12_17h18.38.048,lexical_decision_task_DD_L3,2021.2.3,Win32,60.51437216,,,,,,,,,,,0.8653,1,,,,,,,,,,,,,,m,1,0.8653,,,,,,,,0.5859375,-0.177083333,0,0,0,,0,150,150,24,1,SCREW,LB,old,m,./images/SCREWLB.png,,,,,,,,,,,,,,,,,,,,,,,,,,,,,,,,,,,,
,,,,,,,,,,,,,,,,,5ddb44664a113aaa06465dbe,42,2022-02-12_17h18.38.048,lexical_decision_task_DD_L3,2021.2.3,Win32,60.51437216,,,,,,,,,,,0.6153,1,,,,,,,,,,,,,,z,1,0.6153,,,,,,,,0.5859375,-0.177083333,0,0,0,,0,151,151,149,1,VEASE,LB,old,z,./images/VEASELB.png,,,,,,,,,,,,,,,,,,,,,,,,,,,,,,,,,,,,
,,,,,,,,,,,,,,,,,5ddb44664a113aaa06465dbe,42,2022-02-12_17h18.38.048,lexical_decision_task_DD_L3,2021.2.3,Win32,60.51437216,,,,,,,,,,,1.3272,1,,,,,,,,,,,,,,z,1,1.3272,,,,,,,,0.5859375,-0.177083333,0,0,0,,0,152,152,90,1,NEAST,C,old,z,./images/NEAST.png,,,,,,,,,,,,,,,,,,,,,,,,,,,,,,,,,,,,
,,,,,,,,,,,,,,,,,5ddb44664a113aaa06465dbe,42,2022-02-12_17h18.38.048,lexical_decision_task_DD_L3,2021.2.3,Win32,60.51437216,,,,,,,,,,,1.4584,1,,,,,,,,,,,,,,m,1,1.4584,,,,,,,,0.5859375,-0.177083333,0,0,0,,0,153,153,17,1,SKIING,HB,old,m,./images/SKIINGHB.png,,,,,,,,,,,,,,,,,,,,,,,,,,,,,,,,,,,,
,,,,,,,,,,,,,,,,,5ddb44664a113aaa06465dbe,42,2022-02-12_17h18.38.048,lexical_decision_task_DD_L3,2021.2.3,Win32,60.51437216,,,,,,,,,,,0.6512,1,,,,,,,,,,,,,,m,1,0.6512,,,,,,,,0.5859375,-0.177083333,0,0,0,,0,154,154,21,1,KIDNEY,LB,old,m,./images/KIDNEYLB.png,,,,,,,,,,,,,,,,,,,,,,,,,,,,,,,,,,,,
,,,,,,,,,,,,,,,,,5ddb44664a113aaa06465dbe,42,2022-02-12_17h18.38.048,lexical_decision_task_DD_L3,2021.2.3,Win32,60.51437216,,,,,,,,,,,0.5781,1,,,,,,,,,,,,,,m,1,0.5781,,,,,,,,0.5859375,-0.177083333,0,0,0,,0,155,155,82,1,SUNSET,C,old,m,./images/SUNSET.png,,,,,,,,,,,,,,,,,,,,,,,,,,,,,,,,,,,,
,,,,,,,,,,,,,,,,,5ddb44664a113aaa06465dbe,42,2022-02-12_17h18.38.048,lexical_decision_task_DD_L3,2021.2.3,Win32,60.51437216,,,,,,,,,,,1.0975,1,,,,,,,,,,,,,,z,1,1.0975,,,,,,,,0.5859375,-0.177083333,0,0,0,,0,156,156,93,1,SMONE,C,old,z,./images/SMONE.png,,,,,,,,,,,,,,,,,,,,,,,,,,,,,,,,,,,,
,,,,,,,,,,,,,,,,,5ddb44664a113aaa06465dbe,42,2022-02-12_17h18.38.048,lexical_decision_task_DD_L3,2021.2.3,Win32,60.51437216,,,,,,,,,,,0.7795,1,,,,,,,,,,,,,,m,1,0.7795,,,,,,,,0.5859375,-0.177083333,0,0,0,,0,157,157,39,1,SHELF,LB,old,m,./images/SHELFLB.png,,,,,,,,,,,,,,,,,,,,,,,,,,,,,,,,,,,,
,,,,,,,,,,,,,,,,,5ddb44664a113aaa06465dbe,42,2022-02-12_17h18.38.048,lexical_decision_task_DD_L3,2021.2.3,Win32,60.51437216,,,,,,,,,,,1.5128,1,,,,,,,,,,,,,,z,1,1.5128,,,,,,,,0.5859375,-0.177083333,0,0,0,,0,158,158,154,1,THINT,HB,old,z,./images/THINTHB.png,,,,,,,,,,,,,,,,,,,,,,,,,,,,,,,,,,,,
,,,,,,,,,,,,,,,,,5ddb44664a113aaa06465dbe,42,2022-02-12_17h18.38.048,lexical_decision_task_DD_L3,2021.2.3,Win32,60.51437216,,,,,,,,,,,0.741,1,,,,,,,,,,,,,,m,1,0.741,,,,,,,,0.5859375,-0.177083333,0,0,0,,0,159,159,71,1,PIMPLE,HB,old,m,./images/PIMPLEHB.png,,,,,,,,,,,,,,,,,,,,,,,,,,,,,,,,,,,,
,,,,,,,,,,,,,,,,,5ddb44664a113aaa06465dbe,42,2022-02-12_17h18.38.048,lexical_decision_task_DD_L3,2021.2.3,Win32,60.51437216,,,,,,,,,,,1.2151,0,,,,,,,,,,,,,,m,0,1.2151,,,,,,,,0.5859375,-0.177083333,0,0,0,,0,160,160,160,1,VEETS,HB,old,z,./images/VEETSHB.png,,,,,,,,,,,,,,,,,,,,,,,,,,,,,,,,,,,,
,,,,,,,,,,,,,,,,,5ddb44664a113aaa06465dbe,42,2022-02-12_17h18.38.048,lexical_decision_task_DD_L3,2021.2.3,Win32,60.51437216,,,,,,,,,,,0.6284,0,,,,,,,,,,,,,,m,0,0.6284,,,,,,,,0.5859375,-0.177083333,0,0,0,,0,161,161,146,1,MOOST,LB,old,z,./images/MOOSTLB.png,,,,,,,,,,,,,,,,,,,,,,,,,,,,,,,,,,,,
,,,,,,,,,,,,,,,,,5ddb44664a113aaa06465dbe,42,2022-02-12_17h18.38.048,lexical_decision_task_DD_L3,2021.2.3,Win32,60.51437216,,,,,,,,,,,0.6961,1,,,,,,,,,,,,,,m,1,0.6961,,,,,,,,0.5859375,-0.177083333,0,0,0,,0,162,162,37,1,BIRTH,C,old,m,./images/BIRTH.png,,,,,,,,,,,,,,,,,,,,,,,,,,,,,,,,,,,,
,,,,,,,,,,,,,,,,,5ddb44664a113aaa06465dbe,42,2022-02-12_17h18.38.048,lexical_decision_task_DD_L3,2021.2.3,Win32,60.51437216,,,,,,,,,,,0.9525,1,,,,,,,,,,,,,,z,1,0.9525,,,,,,,,0.5859375,-0.177083333,0,0,0,,0,163,163,136,1,WERVE,HB,old,z,./images/WERVEHB.png,,,,,,,,,,,,,,,,,,,,,,,,,,,,,,,,,,,,
,,,,,,,,,,,,,,,,,5ddb44664a113aaa06465dbe,42,2022-02-12_17h18.38.048,lexical_decision_task_DD_L3,2021.2.3,Win32,60.51437216,,,,,,,,,,,0.6765,1,,,,,,,,,,,,,,m,1,0.6765,,,,,,,,0.5859375,-0.177083333,0,0,0,,0,164,164,22,1,MELON,C,old,m,./images/MELON.png,,,,,,,,,,,,,,,,,,,,,,,,,,,,,,,,,,,,
,,,,,,,,,,,,,,,,,5ddb44664a113aaa06465dbe,42,2022-02-12_17h18.38.048,lexical_decision_task_DD_L3,2021.2.3,Win32,60.51437216,,,,,,,,,,,0.9786,1,,,,,,,,,,,,,,z,1,0.9786,,,,,,,,0.5859375,-0.177083333,0,0,0,,0,165,165,91,1,SHENS,HB,old,z,./images/SHENSHB.png,,,,,,,,,,,,,,,,,,,,,,,,,,,,,,,,,,,,
,,,,,,,,,,,,,,,,,5ddb44664a113aaa06465dbe,42,2022-02-12_17h18.38.048,lexical_decision_task_DD_L3,2021.2.3,Win32,60.51437216,,,,,,,,,,,0.6093,1,,,,,,,,,,,,,,m,1,0.6093,,,,,,,,0.5859375,-0.177083333,0,0,0,,0,166,166,13,1,MOTOR,C,old,m,./images/MOTOR.png,,,,,,,,,,,,,,,,,,,,,,,,,,,,,,,,,,,,
,,,,,,,,,,,,,,,,,5ddb44664a113aaa06465dbe,42,2022-02-12_17h18.38.048,lexical_decision_task_DD_L3,2021.2.3,Win32,60.51437216,,,,,,,,,,,0.8139,1,,,,,,,,,,,,,,m,1,0.8139,,,,,,,,0.5859375,-0.177083333,0,0,0,,0,167,167,19,1,DOUGH,C,old,m,./images/DOUGH.png,,,,,,,,,,,,,,,,,,,,,,,,,,,,,,,,,,,,
,,,,,,,,,,,,,,,,,5ddb44664a113aaa06465dbe,42,2022-02-12_17h18.38.048,lexical_decision_task_DD_L3,2021.2.3,Win32,60.51437216,,,,,,,,,,,,,,,,,,,,,,,,,,,,,,,,,,,,,,,,,,,,,,,,How likely will it be that you will recognize the words presented slighly blurred on a scale of 0 (not likely) to 100 (most likely)?,,,,,-0.020833333,-0.401041667,1,0,0,jol_adv,4,8.3786,0,0,0,1,1,,,,,,,,,,,,,,,,,,,,,,
,,,,,,,,,,,,,,,,,5ddb44664a113aaa06465dbe,42,2022-02-12_17h18.38.048,lexical_decision_task_DD_L3,2021.2.3,Win32,60.51437216,,,,,,,,,,,,,,,,,,,,,,,,,,,,,,,,,,,,,,,,,,,,,,,,How likely will it be that you will recognize the words presented clearly on a scale of 0 (not likely) to 100 (most likely)?,,,,,,,,,,,5,4.7783,0,1,1,0,1,,,,,,,,,,,,,,,,,,,,,,
,,,,,,,,,,,,,,,,,5ddb44664a113aaa06465dbe,42,2022-02-12_17h18.38.048,lexical_decision_task_DD_L3,2021.2.3,Win32,60.51437216,,,,,,,,,,,,,,,,,,,,,,,,,,,,,,,,,,,,,,,,,,,,,,,,How likely will it be that you will recognize the words presented very blurred on a scale of 0 (not likely) to 100 (most likely)?,,,,,,,,,,,3,4.8888,0,2,2,2,1,,,,,,,,,,,,,,,,,,,,,,
space,8.2662,0.438802083,-0.220052083,0,0,0,,,,,,1,test,"In the next phase you will be presented with the words from the the first phase. Your job is to decide whether you remember seeing the word or not. If you remember seeing the word press ""old"" or type ""m"". If you do not remember seeing the word press ""new"" or type ""z"". Please press the space bar or click on continue to begin. ",,,5ddb44664a113aaa06465dbe,42,2022-02-12_17h18.38.048,lexical_decision_task_DD_L3,2021.2.3,Win32,60.51437216,,,,,,,,,,,,,,,,,,,,,,,,,,,,,,,,,,,,,,,,,,,,,,,,,,,,,,,,,,,,,,,,,,0,0,0,0,1,,,,,,,,,,,,,,,,,
,,0.045572917,-0.3828125,1,0,0,,,,,,1,test,"In the next phase you will be presented with the words from the the first phase. Your job is to decide whether you remember seeing the word or not. If you remember seeing the word press ""old"" or type ""m"". If you do not remember seeing the word press ""new"" or type ""z"". Please press the space bar or click on continue to begin. ",,,5ddb44664a113aaa06465dbe,42,2022-02-12_17h18.38.048,lexical_decision_task_DD_L3,2021.2.3,Win32,60.51437216,,,,,,,,,,,,,,,,,,,,,,,,,,,,,,,,,,,,,,,,,,,,,,,,,,,,,,,,,,,,,,,,,,1,0,1,0,1,instr_done_button,,,,,,,,,,,,,,,,
,,0.07421875,-0.399739583,1,0,0,,,,,,1,test,"In the next phase you will be presented with the words from the the first phase. Your job is to decide whether you remember seeing the word or not. If you remember seeing the word press ""old"" or type ""m"". If you do not remember seeing the word press ""new"" or type ""z"". Please press the space bar or click on continue to begin. ",,,5ddb44664a113aaa06465dbe,42,2022-02-12_17h18.38.048,lexical_decision_task_DD_L3,2021.2.3,Win32,60.51437216,,,,,,,,,,,,,,,,,,,,,,,,,,,,,,,,,,,,,,,,,,,,,,,,,,,,,,,,,,,,,,,,,,2,0,2,0,1,instr_done_button,,,,,,,,,,,,,,,,
space,7.0225,0.28125,-0.307291667,0,0,0,,,,,,1,test,"In the next phase you will be presented with the words from the the first phase. Your job is to decide whether you remember seeing the word or not. If you remember seeing the word press ""old"" or type ""m"". If you do not remember seeing the word press ""new"" or type ""z"". Please press the space bar or click on continue to begin. ",,,5ddb44664a113aaa06465dbe,42,2022-02-12_17h18.38.048,lexical_decision_task_DD_L3,2021.2.3,Win32,60.51437216,,,,,,,,,,,,,,,,,,,,,,,,,,,,,,,,,,,,,,,,,,,,,,,,,,,,,,,,,,,,,,,,,,3,0,3,0,1,,,,,,,,,,,,,,,,,
,,0.069010417,-0.408854167,1,0,0,,,,,,1,test,"In the next phase you will be presented with the words from the the first phase. Your job is to decide whether you remember seeing the word or not. If you remember seeing the word press ""old"" or type ""m"". If you do not remember seeing the word press ""new"" or type ""z"". Please press the space bar or click on continue to begin. ",,,5ddb44664a113aaa06465dbe,42,2022-02-12_17h18.38.048,lexical_decision_task_DD_L3,2021.2.3,Win32,60.51437216,,,,,,,,,,,,,,,,,,,,,,,,,,,,,,,,,,,,,,,,,,,,,,,,,,,,,,,,,,,,,,,,,,4,0,4,0,1,instr_done_button,,,,,,,,,,,,,,,,
,,,,,,,,,,,,,,,,,5ddb44664a113aaa06465dbe,42,2022-02-12_17h18.38.048,lexical_decision_task_DD_L3,2021.2.3,Win32,60.51437216,,,,,,,,,,,4.3007,0,,,,,,,,,,,,,,,,,,,,,,,,0.497395833,-0.016927083,0,0,0,,,,,,,DIVER,LB,z,m,./images/DIVERLB.png,,,,,,,,,,,,,,,,,,,,,m,0,4.3007,,,,,,,,0,0,0,93,1,
,,,,,,,,,,,,,,,,,5ddb44664a113aaa06465dbe,42,2022-02-12_17h18.38.048,lexical_decision_task_DD_L3,2021.2.3,Win32,60.51437216,,,,,,,,,,,3.2018,1,,,,,,,,,,,,,,,,,,,,,,,,0.497395833,-0.016927083,0,0,0,,,,,,,DRUMS,C,m,m,./images/DRUMS.png,,,,,,,,,,,,,,,,,,,,,m,1,3.2018,,,,,,,,0,1,1,49,1,
,,,,,,,,,,,,,,,,,5ddb44664a113aaa06465dbe,42,2022-02-12_17h18.38.048,lexical_decision_task_DD_L3,2021.2.3,Win32,60.51437216,,,,,,,,,,,0.7636,1,,,,,,,,,,,,,,,,,,,,,,,,0.497395833,-0.016927083,0,0,0,,,,,,,TRIPOD,LB,m,m,./images/TRIPODLB.png,,,,,,,,,,,,,,,,,,,,,m,1,0.7636,,,,,,,,0,2,2,54,1,
,,,,,,,,,,,,,,,,,5ddb44664a113aaa06465dbe,42,2022-02-12_17h18.38.048,lexical_decision_task_DD_L3,2021.2.3,Win32,60.51437216,,,,,,,,,,,1.0618,1,,,,,,,,,,,,,,,,,,,,,,,,0.497395833,-0.016927083,0,0,0,,,,,,,FALCON,C,m,m,./images/FALCON.png,,,,,,,,,,,,,,,,,,,,,m,1,1.0618,,,,,,,,0,3,3,28,1,
,,,,,,,,,,,,,,,,,5ddb44664a113aaa06465dbe,42,2022-02-12_17h18.38.048,lexical_decision_task_DD_L3,2021.2.3,Win32,60.51437216,,,,,,,,,,,0.7115,0,,,,,,,,,,,,,,,,,,,,,,,,0.497395833,-0.016927083,0,0,0,,,,,,,STOOL,C,z,m,./images/STOOL.png,,,,,,,,,,,,,,,,,,,,,m,0,0.7115,,,,,,,,0,4,4,127,1,
,,,,,,,,,,,,,,,,,5ddb44664a113aaa06465dbe,42,2022-02-12_17h18.38.048,lexical_decision_task_DD_L3,2021.2.3,Win32,60.51437216,,,,,,,,,,,0.61,1,,,,,,,,,,,,,,,,,,,,,,,,0.497395833,-0.016927083,0,0,0,,,,,,,CEMENT,HB,m,m,./images/CEMENTHB.png,,,,,,,,,,,,,,,,,,,,,m,1,0.61,,,,,,,,0,5,5,74,1,
,,,,,,,,,,,,,,,,,5ddb44664a113aaa06465dbe,42,2022-02-12_17h18.38.048,lexical_decision_task_DD_L3,2021.2.3,Win32,60.51437216,,,,,,,,,,,0.7786,1,,,,,,,,,,,,,,,,,,,,,,,,0.497395833,-0.016927083,0,0,0,,,,,,,STATUE,LB,z,m,./images/STATUELB.png,,,,,,,,,,,,,,,,,,,,,z,1,0.7786,,,,,,,,0,6,6,150,1,
,,,,,,,,,,,,,,,,,5ddb44664a113aaa06465dbe,42,2022-02-12_17h18.38.048,lexical_decision_task_DD_L3,2021.2.3,Win32,60.51437216,,,,,,,,,,,1.4191,1,,,,,,,,,,,,,,,,,,,,,,,,0.497395833,-0.016927083,0,0,0,,,,,,,CURRY,LB,z,m,./images/CURRYLB.png,,,,,,,,,,,,,,,,,,,,,z,1,1.4191,,,,,,,,0,7,7,144,1,
,,,,,,,,,,,,,,,,,5ddb44664a113aaa06465dbe,42,2022-02-12_17h18.38.048,lexical_decision_task_DD_L3,2021.2.3,Win32,60.51437216,,,,,,,,,,,1.4303,0,,,,,,,,,,,,,,,,,,,,,,,,0.497395833,-0.016927083,0,0,0,,,,,,,BROOM,LB,z,m,./images/BROOMLB.png,,,,,,,,,,,,,,,,,,,,,m,0,1.4303,,,,,,,,0,8,8,162,1,
,,,,,,,,,,,,,,,,,5ddb44664a113aaa06465dbe,42,2022-02-12_17h18.38.048,lexical_decision_task_DD_L3,2021.2.3,Win32,60.51437216,,,,,,,,,,,0.6859,1,,,,,,,,,,,,,,,,,,,,,,,,0.497395833,-0.016927083,0,0,0,,,,,,,SAILOR,C,m,m,./images/SAILOR.png,,,,,,,,,,,,,,,,,,,,,m,1,0.6859,,,,,,,,0,9,9,67,1,
,,,,,,,,,,,,,,,,,5ddb44664a113aaa06465dbe,42,2022-02-12_17h18.38.048,lexical_decision_task_DD_L3,2021.2.3,Win32,60.51437216,,,,,,,,,,,0.9121,0,,,,,,,,,,,,,,,,,,,,,,,,0.497395833,-0.016927083,0,0,0,,,,,,,BLOKE,LB,z,m,./images/BLOKELB.png,,,,,,,,,,,,,,,,,,,,,m,0,0.9121,,,,,,,,0,10,10,96,1,
,,,,,,,,,,,,,,,,,5ddb44664a113aaa06465dbe,42,2022-02-12_17h18.38.048,lexical_decision_task_DD_L3,2021.2.3,Win32,60.51437216,,,,,,,,,,,0.9053,0,,,,,,,,,,,,,,,,,,,,,,,,0.497395833,-0.016927083,0,0,0,,,,,,,PLANET,HB,z,m,./images/PLANETHB.png,,,,,,,,,,,,,,,,,,,,,m,0,0.9053,,,,,,,,0,11,11,164,1,
,,,,,,,,,,,,,,,,,5ddb44664a113aaa06465dbe,42,2022-02-12_17h18.38.048,lexical_decision_task_DD_L3,2021.2.3,Win32,60.51437216,,,,,,,,,,,1.0909,0,,,,,,,,,,,,,,,,,,,,,,,,0.497395833,-0.016927083,0,0,0,,,,,,,BANNER,C,m,m,./images/BANNER.png,,,,,,,,,,,,,,,,,,,,,z,0,1.0909,,,,,,,,0,12,12,52,1,
,,,,,,,,,,,,,,,,,5ddb44664a113aaa06465dbe,42,2022-02-12_17h18.38.048,lexical_decision_task_DD_L3,2021.2.3,Win32,60.51437216,,,,,,,,,,,1.0482,1,,,,,,,,,,,,,,,,,,,,,,,,0.497395833,-0.016927083,0,0,0,,,,,,,STOVE,HB,z,m,./images/STOVEHB.png,,,,,,,,,,,,,,,,,,,,,z,1,1.0482,,,,,,,,0,13,13,86,1,
,,,,,,,,,,,,,,,,,5ddb44664a113aaa06465dbe,42,2022-02-12_17h18.38.048,lexical_decision_task_DD_L3,2021.2.3,Win32,60.51437216,,,,,,,,,,,1.106,0,,,,,,,,,,,,,,,,,,,,,,,,0.497395833,-0.016927083,0,0,0,,,,,,,FENCE,HB,z,m,./images/FENCEHB.png,,,,,,,,,,,,,,,,,,,,,m,0,1.106,,,,,,,,0,14,14,98,1,
,,,,,,,,,,,,,,,,,5ddb44664a113aaa06465dbe,42,2022-02-12_17h18.38.048,lexical_decision_task_DD_L3,2021.2.3,Win32,60.51437216,,,,,,,,,,,0.6515,1,,,,,,,,,,,,,,,,,,,,,,,,0.497395833,-0.016927083,0,0,0,,,,,,,BURIAL,HB,m,m,./images/BURIALHB.png,,,,,,,,,,,,,,,,,,,,,m,1,0.6515,,,,,,,,0,15,15,59,1,
,,,,,,,,,,,,,,,,,5ddb44664a113aaa06465dbe,42,2022-02-12_17h18.38.048,lexical_decision_task_DD_L3,2021.2.3,Win32,60.51437216,,,,,,,,,,,0.7019,1,,,,,,,,,,,,,,,,,,,,,,,,0.497395833,-0.016927083,0,0,0,,,,,,,ENGINE,HB,z,m,./images/ENGINEHB.png,,,,,,,,,,,,,,,,,,,,,z,1,0.7019,,,,,,,,0,16,16,122,1,
,,,,,,,,,,,,,,,,,5ddb44664a113aaa06465dbe,42,2022-02-12_17h18.38.048,lexical_decision_task_DD_L3,2021.2.3,Win32,60.51437216,,,,,,,,,,,2.5422,0,,,,,,,,,,,,,,,,,,,,,,,,0.497395833,-0.016927083,0,0,0,,,,,,,SMOKER,HB,m,m,./images/SMOKERHB.png,,,,,,,,,,,,,,,,,,,,,z,0,2.5422,,,,,,,,0,17,17,26,1,
,,,,,,,,,,,,,,,,,5ddb44664a113aaa06465dbe,42,2022-02-12_17h18.38.048,lexical_decision_task_DD_L3,2021.2.3,Win32,60.51437216,,,,,,,,,,,0.9645,1,,,,,,,,,,,,,,,,,,,,,,,,0.497395833,-0.016927083,0,0,0,,,,,,,LLAMA,HB,z,m,./images/LLAMAHB.png,,,,,,,,,,,,,,,,,,,,,z,1,0.9645,,,,,,,,0,18,18,119,1,
,,,,,,,,,,,,,,,,,5ddb44664a113aaa06465dbe,42,2022-02-12_17h18.38.048,lexical_decision_task_DD_L3,2021.2.3,Win32,60.51437216,,,,,,,,,,,1.7861,1,,,,,,,,,,,,,,,,,,,,,,,,0.497395833,-0.016927083,0,0,0,,,,,,,SHIELD,LB,z,m,./images/SHIELDLB.png,,,,,,,,,,,,,,,,,,,,,z,1,1.7861,,,,,,,,0,19,19,132,1,
,,,,,,,,,,,,,,,,,5ddb44664a113aaa06465dbe,42,2022-02-12_17h18.38.048,lexical_decision_task_DD_L3,2021.2.3,Win32,60.51437216,,,,,,,,,,,0.8004,1,,,,,,,,,,,,,,,,,,,,,,,,0.497395833,-0.016927083,0,0,0,,,,,,,LAGOON,HB,z,m,./images/LAGOONHB.png,,,,,,,,,,,,,,,,,,,,,z,1,0.8004,,,,,,,,0,20,20,131,1,
,,,,,,,,,,,,,,,,,5ddb44664a113aaa06465dbe,42,2022-02-12_17h18.38.048,lexical_decision_task_DD_L3,2021.2.3,Win32,60.51437216,,,,,,,,,,,2.096,1,,,,,,,,,,,,,,,,,,,,,,,,0.497395833,-0.016927083,0,0,0,,,,,,,SNACK,C,m,m,./images/SNACK.png,,,,,,,,,,,,,,,,,,,,,m,1,2.096,,,,,,,,0,21,21,73,1,
,,,,,,,,,,,,,,,,,5ddb44664a113aaa06465dbe,42,2022-02-12_17h18.38.048,lexical_decision_task_DD_L3,2021.2.3,Win32,60.51437216,,,,,,,,,,,0.8044,0,,,,,,,,,,,,,,,,,,,,,,,,0.497395833,-0.016927083,0,0,0,,,,,,,MOSQUE,C,m,m,./images/MOSQUE.png,,,,,,,,,,,,,,,,,,,,,z,0,0.8044,,,,,,,,0,22,22,43,1,
,,,,,,,,,,,,,,,,,5ddb44664a113aaa06465dbe,42,2022-02-12_17h18.38.048,lexical_decision_task_DD_L3,2021.2.3,Win32,60.51437216,,,,,,,,,,,1.5978,0,,,,,,,,,,,,,,,,,,,,,,,,0.497395833,-0.016927083,0,0,0,,,,,,,KIDNEY,LB,m,m,./images/KIDNEYLB.png,,,,,,,,,,,,,,,,,,,,,z,0,1.5978,,,,,,,,0,23,23,21,1,
,,,,,,,,,,,,,,,,,5ddb44664a113aaa06465dbe,42,2022-02-12_17h18.38.048,lexical_decision_task_DD_L3,2021.2.3,Win32,60.51437216,,,,,,,,,,,0.6509,1,,,,,,,,,,,,,,,,,,,,,,,,0.497395833,-0.016927083,0,0,0,,,,,,,MIRROR,LB,m,m,./images/MIRRORLB.png,,,,,,,,,,,,,,,,,,,,,m,1,0.6509,,,,,,,,0,24,24,63,1,
,,,,,,,,,,,,,,,,,5ddb44664a113aaa06465dbe,42,2022-02-12_17h18.38.048,lexical_decision_task_DD_L3,2021.2.3,Win32,60.51437216,,,,,,,,,,,1.5275,1,,,,,,,,,,,,,,,,,,,,,,,,0.497395833,-0.016927083,0,0,0,,,,,,,BRIDE,C,z,m,./images/BRIDE.png,,,,,,,,,,,,,,,,,,,,,z,1,1.5275,,,,,,,,0,25,25,148,1,
,,,,,,,,,,,,,,,,,5ddb44664a113aaa06465dbe,42,2022-02-12_17h18.38.048,lexical_decision_task_DD_L3,2021.2.3,Win32,60.51437216,,,,,,,,,,,0.9174,1,,,,,,,,,,,,,,,,,,,,,,,,0.497395833,-0.016927083,0,0,0,,,,,,,PEBBLE,C,z,m,./images/PEBBLE.png,,,,,,,,,,,,,,,,,,,,,z,1,0.9174,,,,,,,,0,26,26,166,1,
,,,,,,,,,,,,,,,,,5ddb44664a113aaa06465dbe,42,2022-02-12_17h18.38.048,lexical_decision_task_DD_L3,2021.2.3,Win32,60.51437216,,,,,,,,,,,0.6975,1,,,,,,,,,,,,,,,,,,,,,,,,0.497395833,-0.016927083,0,0,0,,,,,,,SCREW,LB,m,m,./images/SCREWLB.png,,,,,,,,,,,,,,,,,,,,,m,1,0.6975,,,,,,,,0,27,27,24,1,
,,,,,,,,,,,,,,,,,5ddb44664a113aaa06465dbe,42,2022-02-12_17h18.38.048,lexical_decision_task_DD_L3,2021.2.3,Win32,60.51437216,,,,,,,,,,,0.6117,0,,,,,,,,,,,,,,,,,,,,,,,,0.497395833,-0.016927083,0,0,0,,,,,,,FLASK,LB,z,m,./images/FLASKLB.png,,,,,,,,,,,,,,,,,,,,,m,0,0.6117,,,,,,,,0,28,28,156,1,
,,,,,,,,,,,,,,,,,5ddb44664a113aaa06465dbe,42,2022-02-12_17h18.38.048,lexical_decision_task_DD_L3,2021.2.3,Win32,60.51437216,,,,,,,,,,,0.7601,1,,,,,,,,,,,,,,,,,,,,,,,,0.497395833,-0.016927083,0,0,0,,,,,,,CLOUD,HB,z,m,./images/CLOUDHB.png,,,,,,,,,,,,,,,,,,,,,z,1,0.7601,,,,,,,,0,29,29,110,1,
,,,,,,,,,,,,,,,,,5ddb44664a113aaa06465dbe,42,2022-02-12_17h18.38.048,lexical_decision_task_DD_L3,2021.2.3,Win32,60.51437216,,,,,,,,,,,0.7008,1,,,,,,,,,,,,,,,,,,,,,,,,0.497395833,-0.016927083,0,0,0,,,,,,,STREAM,HB,z,m,./images/STREAMHB.png,,,,,,,,,,,,,,,,,,,,,z,1,0.7008,,,,,,,,0,30,30,125,1,
,,,,,,,,,,,,,,,,,5ddb44664a113aaa06465dbe,42,2022-02-12_17h18.38.048,lexical_decision_task_DD_L3,2021.2.3,Win32,60.51437216,,,,,,,,,,,2.381,0,,,,,,,,,,,,,,,,,,,,,,,,0.497395833,-0.016927083,0,0,0,,,,,,,MALLET,HB,m,m,./images/MALLETHB.png,,,,,,,,,,,,,,,,,,,,,z,0,2.381,,,,,,,,0,31,31,50,1,
,,,,,,,,,,,,,,,,,5ddb44664a113aaa06465dbe,42,2022-02-12_17h18.38.048,lexical_decision_task_DD_L3,2021.2.3,Win32,60.51437216,,,,,,,,,,,0.8062,1,,,,,,,,,,,,,,,,,,,,,,,,0.497395833,-0.016927083,0,0,0,,,,,,,RAZOR,C,z,m,./images/RAZOR.png,,,,,,,,,,,,,,,,,,,,,z,1,0.8062,,,,,,,,0,32,32,118,1,
,,,,,,,,,,,,,,,,,5ddb44664a113aaa06465dbe,42,2022-02-12_17h18.38.048,lexical_decision_task_DD_L3,2021.2.3,Win32,60.51437216,,,,,,,,,,,2.1124,1,,,,,,,,,,,,,,,,,,,,,,,,0.497395833,-0.016927083,0,0,0,,,,,,,PENCE,C,m,m,./images/PENCE.png,,,,,,,,,,,,,,,,,,,,,m,1,2.1124,,,,,,,,0,33,33,16,1,
,,,,,,,,,,,,,,,,,5ddb44664a113aaa06465dbe,42,2022-02-12_17h18.38.048,lexical_decision_task_DD_L3,2021.2.3,Win32,60.51437216,,,,,,,,,,,1.114,1,,,,,,,,,,,,,,,,,,,,,,,,0.497395833,-0.016927083,0,0,0,,,,,,,BASKET,HB,z,m,./images/BASKETHB.png,,,,,,,,,,,,,,,,,,,,,z,1,1.114,,,,,,,,0,34,34,128,1,
,,,,,,,,,,,,,,,,,5ddb44664a113aaa06465dbe,42,2022-02-12_17h18.38.048,lexical_decision_task_DD_L3,2021.2.3,Win32,60.51437216,,,,,,,,,,,0.9644,1,,,,,,,,,,,,,,,,,,,,,,,,0.497395833,-0.016927083,0,0,0,,,,,,,THROAT,LB,m,m,./images/THROATLB.png,,,,,,,,,,,,,,,,,,,,,m,1,0.9644,,,,,,,,0,35,35,36,1,
,,,,,,,,,,,,,,,,,5ddb44664a113aaa06465dbe,42,2022-02-12_17h18.38.048,lexical_decision_task_DD_L3,2021.2.3,Win32,60.51437216,,,,,,,,,,,1.0963,1,,,,,,,,,,,,,,,,,,,,,,,,0.497395833,-0.016927083,0,0,0,,,,,,,CHAIN,LB,z,m,./images/CHAINLB.png,,,,,,,,,,,,,,,,,,,,,z,1,1.0963,,,,,,,,0,36,36,126,1,
,,,,,,,,,,,,,,,,,5ddb44664a113aaa06465dbe,42,2022-02-12_17h18.38.048,lexical_decision_task_DD_L3,2021.2.3,Win32,60.51437216,,,,,,,,,,,0.6319,0,,,,,,,,,,,,,,,,,,,,,,,,0.497395833,-0.016927083,0,0,0,,,,,,,MIDGET,C,z,m,./images/MIDGET.png,,,,,,,,,,,,,,,,,,,,,m,0,0.6319,,,,,,,,0,37,37,160,1,
,,,,,,,,,,,,,,,,,5ddb44664a113aaa06465dbe,42,2022-02-12_17h18.38.048,lexical_decision_task_DD_L3,2021.2.3,Win32,60.51437216,,,,,,,,,,,0.8311,1,,,,,,,,,,,,,,,,,,,,,,,,0.497395833,-0.016927083,0,0,0,,,,,,,ATTIC,LB,m,m,./images/ATTICLB.png,,,,,,,,,,,,,,,,,,,,,m,1,0.8311,,,,,,,,0,38,38,27,1,
,,,,,,,,,,,,,,,,,5ddb44664a113aaa06465dbe,42,2022-02-12_17h18.38.048,lexical_decision_task_DD_L3,2021.2.3,Win32,60.51437216,,,,,,,,,,,0.6855,0,,,,,,,,,,,,,,,,,,,,,,,,0.497395833,-0.016927083,0,0,0,,,,,,,HAMMER,LB,z,m,./images/HAMMERLB.png,,,,,,,,,,,,,,,,,,,,,m,0,0.6855,,,,,,,,0,39,39,159,1,
,,,,,,,,,,,,,,,,,5ddb44664a113aaa06465dbe,42,2022-02-12_17h18.38.048,lexical_decision_task_DD_L3,2021.2.3,Win32,60.51437216,,,,,,,,,,,1.1133,1,,,,,,,,,,,,,,,,,,,,,,,,0.497395833,-0.016927083,0,0,0,,,,,,,CANDY,LB,z,m,./images/CANDYLB.png,,,,,,,,,,,,,,,,,,,,,z,1,1.1133,,,,,,,,0,40,40,123,1,
,,,,,,,,,,,,,,,,,5ddb44664a113aaa06465dbe,42,2022-02-12_17h18.38.048,lexical_decision_task_DD_L3,2021.2.3,Win32,60.51437216,,,,,,,,,,,1.0305,0,,,,,,,,,,,,,,,,,,,,,,,,0.154947917,-0.326822917,0,0,0,space,,,,,,FARMER,HB,m,m,./images/FARMERHB.png,150.4423,,,,,,,,,,,,,,,,,,,,z,0,1.0305,,,,,,,,0,41,41,65,1,
,,,,,,,,,,,,,,,,,5ddb44664a113aaa06465dbe,42,2022-02-12_17h18.38.048,lexical_decision_task_DD_L3,2021.2.3,Win32,60.51437216,,,,,,,,,,,1.7606,0,,,,,,,,,,,,,,,,,,,,,,,,0.154947917,-0.326822917,0,0,0,,,,,,,ARROW,LB,z,m,./images/ARROWLB.png,,,,,,,,,,,,,,,,,,,,,m,0,1.7606,,,,,,,,0,42,42,153,1,
,,,,,,,,,,,,,,,,,5ddb44664a113aaa06465dbe,42,2022-02-12_17h18.38.048,lexical_decision_task_DD_L3,2021.2.3,Win32,60.51437216,,,,,,,,,,,0.8963,1,,,,,,,,,,,,,,,,,,,,,,,,0.154947917,-0.326822917,0,0,0,,,,,,,SQUARE,LB,m,m,./images/SQUARELB.png,,,,,,,,,,,,,,,,,,,,,m,1,0.8963,,,,,,,,0,43,43,6,1,
,,,,,,,,,,,,,,,,,5ddb44664a113aaa06465dbe,42,2022-02-12_17h18.38.048,lexical_decision_task_DD_L3,2021.2.3,Win32,60.51437216,,,,,,,,,,,0.8657,1,,,,,,,,,,,,,,,,,,,,,,,,0.154947917,-0.326822917,0,0,0,,,,,,,BUBBLE,HB,z,m,./images/BUBBLEHB.png,,,,,,,,,,,,,,,,,,,,,z,1,0.8657,,,,,,,,0,44,44,155,1,
,,,,,,,,,,,,,,,,,5ddb44664a113aaa06465dbe,42,2022-02-12_17h18.38.048,lexical_decision_task_DD_L3,2021.2.3,Win32,60.51437216,,,,,,,,,,,1.2481,1,,,,,,,,,,,,,,,,,,,,,,,,0.154947917,-0.326822917,0,0,0,,,,,,,ONION,LB,m,m,./images/ONIONLB.png,,,,,,,,,,,,,,,,,,,,,m,1,1.2481,,,,,,,,0,45,45,51,1,
,,,,,,,,,,,,,,,,,5ddb44664a113aaa06465dbe,42,2022-02-12_17h18.38.048,lexical_decision_task_DD_L3,2021.2.3,Win32,60.51437216,,,,,,,,,,,0.9973,1,,,,,,,,,,,,,,,,,,,,,,,,0.154947917,-0.326822917,0,0,0,,,,,,,TORCH,HB,m,m,./images/TORCHHB.png,,,,,,,,,,,,,,,,,,,,,m,1,0.9973,,,,,,,,0,46,46,68,1,
,,,,,,,,,,,,,,,,,5ddb44664a113aaa06465dbe,42,2022-02-12_17h18.38.048,lexical_decision_task_DD_L3,2021.2.3,Win32,60.51437216,,,,,,,,,,,0.7846,0,,,,,,,,,,,,,,,,,,,,,,,,0.154947917,-0.326822917,0,0,0,,,,,,,TULIP,HB,m,m,./images/TULIPHB.png,,,,,,,,,,,,,,,,,,,,,z,0,0.7846,,,,,,,,0,47,47,8,1,
,,,,,,,,,,,,,,,,,5ddb44664a113aaa06465dbe,42,2022-02-12_17h18.38.048,lexical_decision_task_DD_L3,2021.2.3,Win32,60.51437216,,,,,,,,,,,0.9297,0,,,,,,,,,,,,,,,,,,,,,,,,0.154947917,-0.326822917,0,0,0,,,,,,,SLOPE,LB,z,m,./images/SLOPELB.png,,,,,,,,,,,,,,,,,,,,,m,0,0.9297,,,,,,,,0,48,48,114,1,
,,,,,,,,,,,,,,,,,5ddb44664a113aaa06465dbe,42,2022-02-12_17h18.38.048,lexical_decision_task_DD_L3,2021.2.3,Win32,60.51437216,,,,,,,,,,,0.6933,1,,,,,,,,,,,,,,,,,,,,,,,,0.154947917,-0.326822917,0,0,0,,,,,,,SWING,C,m,m,./images/SWING.png,,,,,,,,,,,,,,,,,,,,,m,1,0.6933,,,,,,,,0,49,49,40,1,
,,,,,,,,,,,,,,,,,5ddb44664a113aaa06465dbe,42,2022-02-12_17h18.38.048,lexical_decision_task_DD_L3,2021.2.3,Win32,60.51437216,,,,,,,,,,,1.5553,1,,,,,,,,,,,,,,,,,,,,,,,,0.154947917,-0.326822917,0,0,0,,,,,,,PARCEL,LB,z,m,./images/PARCELLB.png,,,,,,,,,,,,,,,,,,,,,z,1,1.5553,,,,,,,,0,50,50,102,1,
,,,,,,,,,,,,,,,,,5ddb44664a113aaa06465dbe,42,2022-02-12_17h18.38.048,lexical_decision_task_DD_L3,2021.2.3,Win32,60.51437216,,,,,,,,,,,1.0914,0,,,,,,,,,,,,,,,,,,,,,,,,0.154947917,-0.326822917,0,0,0,,,,,,,WHISKY,HB,z,m,./images/WHISKYHB.png,,,,,,,,,,,,,,,,,,,,,m,0,1.0914,,,,,,,,0,51,51,167,1,
,,,,,,,,,,,,,,,,,5ddb44664a113aaa06465dbe,42,2022-02-12_17h18.38.048,lexical_decision_task_DD_L3,2021.2.3,Win32,60.51437216,,,,,,,,,,,3.096,1,,,,,,,,,,,,,,,,,,,,,,,,0.154947917,-0.326822917,0,0,0,,,,,,,FERRY,LB,z,m,./images/FERRYLB.png,,,,,,,,,,,,,,,,,,,,,z,1,3.096,,,,,,,,0,52,52,141,1,
,,,,,,,,,,,,,,,,,5ddb44664a113aaa06465dbe,42,2022-02-12_17h18.38.048,lexical_decision_task_DD_L3,2021.2.3,Win32,60.51437216,,,,,,,,,,,0.831,0,,,,,,,,,,,,,,,,,,,,,,,,0.154947917,-0.326822917,0,0,0,,,,,,,PARADE,HB,z,m,./images/PARADEHB.png,,,,,,,,,,,,,,,,,,,,,m,0,0.831,,,,,,,,0,53,53,101,1,
,,,,,,,,,,,,,,,,,5ddb44664a113aaa06465dbe,42,2022-02-12_17h18.38.048,lexical_decision_task_DD_L3,2021.2.3,Win32,60.51437216,,,,,,,,,,,0.7637,1,,,,,,,,,,,,,,,,,,,,,,,,0.154947917,-0.326822917,0,0,0,,,,,,,FINGER,LB,m,m,./images/FINGERLB.png,,,,,,,,,,,,,,,,,,,,,m,1,0.7637,,,,,,,,0,54,54,3,1,
,,,,,,,,,,,,,,,,,5ddb44664a113aaa06465dbe,42,2022-02-12_17h18.38.048,lexical_decision_task_DD_L3,2021.2.3,Win32,60.51437216,,,,,,,,,,,0.7161,1,,,,,,,,,,,,,,,,,,,,,,,,0.154947917,-0.326822917,0,0,0,,,,,,,TWINS,LB,m,m,./images/TWINSLB.png,,,,,,,,,,,,,,,,,,,,,m,1,0.7161,,,,,,,,0,55,55,60,1,
,,,,,,,,,,,,,,,,,5ddb44664a113aaa06465dbe,42,2022-02-12_17h18.38.048,lexical_decision_task_DD_L3,2021.2.3,Win32,60.51437216,,,,,,,,,,,0.63,1,,,,,,,,,,,,,,,,,,,,,,,,0.154947917,-0.326822917,0,0,0,,,,,,,JELLY,C,m,m,./images/JELLY.png,,,,,,,,,,,,,,,,,,,,,m,1,0.63,,,,,,,,0,56,56,64,1,
,,,,,,,,,,,,,,,,,5ddb44664a113aaa06465dbe,42,2022-02-12_17h18.38.048,lexical_decision_task_DD_L3,2021.2.3,Win32,60.51437216,,,,,,,,,,,0.6706,1,,,,,,,,,,,,,,,,,,,,,,,,0.154947917,-0.326822917,0,0,0,,,,,,,MOOSE,LB,m,m,./images/MOOSELB.png,,,,,,,,,,,,,,,,,,,,,m,1,0.6706,,,,,,,,0,57,57,57,1,
,,,,,,,,,,,,,,,,,5ddb44664a113aaa06465dbe,42,2022-02-12_17h18.38.048,lexical_decision_task_DD_L3,2021.2.3,Win32,60.51437216,,,,,,,,,,,2.8824,0,,,,,,,,,,,,,,,,,,,,,,,,0.154947917,-0.326822917,0,0,0,,,,,,,WAGON,C,z,m,./images/WAGON.png,,,,,,,,,,,,,,,,,,,,,m,0,2.8824,,,,,,,,0,58,58,91,1,
,,,,,,,,,,,,,,,,,5ddb44664a113aaa06465dbe,42,2022-02-12_17h18.38.048,lexical_decision_task_DD_L3,2021.2.3,Win32,60.51437216,,,,,,,,,,,1.9015,0,,,,,,,,,,,,,,,,,,,,,,,,0.154947917,-0.326822917,0,0,0,,,,,,,DONKEY,C,z,m,./images/DONKEY.png,,,,,,,,,,,,,,,,,,,,,m,0,1.9015,,,,,,,,0,59,59,103,1,
,,,,,,,,,,,,,,,,,5ddb44664a113aaa06465dbe,42,2022-02-12_17h18.38.048,lexical_decision_task_DD_L3,2021.2.3,Win32,60.51437216,,,,,,,,,,,1.6498,1,,,,,,,,,,,,,,,,,,,,,,,,0.154947917,-0.326822917,0,0,0,,,,,,,NOOSE,LB,m,m,./images/NOOSELB.png,,,,,,,,,,,,,,,,,,,,,m,1,1.6498,,,,,,,,0,60,60,72,1,
,,,,,,,,,,,,,,,,,5ddb44664a113aaa06465dbe,42,2022-02-12_17h18.38.048,lexical_decision_task_DD_L3,2021.2.3,Win32,60.51437216,,,,,,,,,,,2.4662,1,,,,,,,,,,,,,,,,,,,,,,,,0.154947917,-0.326822917,0,0,0,,,,,,,PEACH,HB,m,m,./images/PEACHHB.png,,,,,,,,,,,,,,,,,,,,,m,1,2.4662,,,,,,,,0,61,61,35,1,
,,,,,,,,,,,,,,,,,5ddb44664a113aaa06465dbe,42,2022-02-12_17h18.38.048,lexical_decision_task_DD_L3,2021.2.3,Win32,60.51437216,,,,,,,,,,,0.6909,1,,,,,,,,,,,,,,,,,,,,,,,,0.154947917,-0.326822917,0,0,0,,,,,,,BEARD,HB,m,m,./images/BEARDHB.png,,,,,,,,,,,,,,,,,,,,,m,1,0.6909,,,,,,,,0,62,62,2,1,
,,,,,,,,,,,,,,,,,5ddb44664a113aaa06465dbe,42,2022-02-12_17h18.38.048,lexical_decision_task_DD_L3,2021.2.3,Win32,60.51437216,,,,,,,,,,,1.1826,0,,,,,,,,,,,,,,,,,,,,,,,,0.154947917,-0.326822917,0,0,0,,,,,,,GRAIN,LB,m,m,./images/GRAINLB.png,,,,,,,,,,,,,,,,,,,,,z,0,1.1826,,,,,,,,0,63,63,75,1,
,,,,,,,,,,,,,,,,,5ddb44664a113aaa06465dbe,42,2022-02-12_17h18.38.048,lexical_decision_task_DD_L3,2021.2.3,Win32,60.51437216,,,,,,,,,,,0.8305,1,,,,,,,,,,,,,,,,,,,,,,,,0.154947917,-0.326822917,0,0,0,,,,,,,URINE,C,m,m,./images/URINE.png,,,,,,,,,,,,,,,,,,,,,m,1,0.8305,,,,,,,,0,64,64,70,1,
,,,,,,,,,,,,,,,,,5ddb44664a113aaa06465dbe,42,2022-02-12_17h18.38.048,lexical_decision_task_DD_L3,2021.2.3,Win32,60.51437216,,,,,,,,,,,0.5987,1,,,,,,,,,,,,,,,,,,,,,,,,0.154947917,-0.326822917,0,0,0,,,,,,,LITTER,LB,m,m,./images/LITTERLB.png,,,,,,,,,,,,,,,,,,,,,m,1,0.5987,,,,,,,,0,65,65,78,1,
,,,,,,,,,,,,,,,,,5ddb44664a113aaa06465dbe,42,2022-02-12_17h18.38.048,lexical_decision_task_DD_L3,2021.2.3,Win32,60.51437216,,,,,,,,,,,2.0636,0,,,,,,,,,,,,,,,,,,,,,,,,0.154947917,-0.326822917,0,0,0,,,,,,,COLLAR,LB,z,m,./images/COLLARLB.png,,,,,,,,,,,,,,,,,,,,,m,0,2.0636,,,,,,,,0,66,66,99,1,
,,,,,,,,,,,,,,,,,5ddb44664a113aaa06465dbe,42,2022-02-12_17h18.38.048,lexical_decision_task_DD_L3,2021.2.3,Win32,60.51437216,,,,,,,,,,,0.6984,0,,,,,,,,,,,,,,,,,,,,,,,,0.154947917,-0.326822917,0,0,0,,,,,,,POSTER,HB,z,m,./images/POSTERHB.png,,,,,,,,,,,,,,,,,,,,,m,0,0.6984,,,,,,,,0,67,67,137,1,
,,,,,,,,,,,,,,,,,5ddb44664a113aaa06465dbe,42,2022-02-12_17h18.38.048,lexical_decision_task_DD_L3,2021.2.3,Win32,60.51437216,,,,,,,,,,,0.6695,0,,,,,,,,,,,,,,,,,,,,,,,,0.154947917,-0.326822917,0,0,0,,,,,,,TIGER,C,z,m,./images/TIGER.png,,,,,,,,,,,,,,,,,,,,,m,0,0.6695,,,,,,,,0,68,68,121,1,
,,,,,,,,,,,,,,,,,5ddb44664a113aaa06465dbe,42,2022-02-12_17h18.38.048,lexical_decision_task_DD_L3,2021.2.3,Win32,60.51437216,,,,,,,,,,,0.6287,1,,,,,,,,,,,,,,,,,,,,,,,,0.154947917,-0.326822917,0,0,0,,,,,,,SWEAT,LB,m,m,./images/SWEATLB.png,,,,,,,,,,,,,,,,,,,,,m,1,0.6287,,,,,,,,0,69,69,66,1,
,,,,,,,,,,,,,,,,,5ddb44664a113aaa06465dbe,42,2022-02-12_17h18.38.048,lexical_decision_task_DD_L3,2021.2.3,Win32,60.51437216,,,,,,,,,,,0.682,1,,,,,,,,,,,,,,,,,,,,,,,,0.154947917,-0.326822917,0,0,0,,,,,,,STAIN,LB,z,m,./images/STAINLB.png,,,,,,,,,,,,,,,,,,,,,z,1,0.682,,,,,,,,0,70,70,90,1,
,,,,,,,,,,,,,,,,,5ddb44664a113aaa06465dbe,42,2022-02-12_17h18.38.048,lexical_decision_task_DD_L3,2021.2.3,Win32,60.51437216,,,,,,,,,,,1.5468,0,,,,,,,,,,,,,,,,,,,,,,,,0.154947917,-0.326822917,0,0,0,,,,,,,BUNNY,C,z,m,./images/BUNNY.png,,,,,,,,,,,,,,,,,,,,,m,0,1.5468,,,,,,,,0,71,71,97,1,
,,,,,,,,,,,,,,,,,5ddb44664a113aaa06465dbe,42,2022-02-12_17h18.38.048,lexical_decision_task_DD_L3,2021.2.3,Win32,60.51437216,,,,,,,,,,,1.1862,1,,,,,,,,,,,,,,,,,,,,,,,,0.154947917,-0.326822917,0,0,0,,,,,,,STEAK,C,z,m,./images/STEAK.png,,,,,,,,,,,,,,,,,,,,,z,1,1.1862,,,,,,,,0,72,72,115,1,
,,,,,,,,,,,,,,,,,5ddb44664a113aaa06465dbe,42,2022-02-12_17h18.38.048,lexical_decision_task_DD_L3,2021.2.3,Win32,60.51437216,,,,,,,,,,,0.6827,1,,,,,,,,,,,,,,,,,,,,,,,,0.154947917,-0.326822917,0,0,0,,,,,,,BELLY,C,m,m,./images/BELLY.png,,,,,,,,,,,,,,,,,,,,,m,1,0.6827,,,,,,,,0,73,73,10,1,
,,,,,,,,,,,,,,,,,5ddb44664a113aaa06465dbe,42,2022-02-12_17h18.38.048,lexical_decision_task_DD_L3,2021.2.3,Win32,60.51437216,,,,,,,,,,,0.5801,1,,,,,,,,,,,,,,,,,,,,,,,,0.154947917,-0.326822917,0,0,0,,,,,,,BIRTH,C,m,m,./images/BIRTH.png,,,,,,,,,,,,,,,,,,,,,m,1,0.5801,,,,,,,,0,74,74,37,1,
,,,,,,,,,,,,,,,,,5ddb44664a113aaa06465dbe,42,2022-02-12_17h18.38.048,lexical_decision_task_DD_L3,2021.2.3,Win32,60.51437216,,,,,,,,,,,0.9088,1,,,,,,,,,,,,,,,,,,,,,,,,0.154947917,-0.326822917,0,0,0,,,,,,,CRUST,C,m,m,./images/CRUST.png,,,,,,,,,,,,,,,,,,,,,m,1,0.9088,,,,,,,,0,75,75,79,1,
,,,,,,,,,,,,,,,,,5ddb44664a113aaa06465dbe,42,2022-02-12_17h18.38.048,lexical_decision_task_DD_L3,2021.2.3,Win32,60.51437216,,,,,,,,,,,0.6962,1,,,,,,,,,,,,,,,,,,,,,,,,0.154947917,-0.326822917,0,0,0,,,,,,,GRANNY,HB,z,m,./images/GRANNYHB.png,,,,,,,,,,,,,,,,,,,,,z,1,0.6962,,,,,,,,0,76,76,104,1,
,,,,,,,,,,,,,,,,,5ddb44664a113aaa06465dbe,42,2022-02-12_17h18.38.048,lexical_decision_task_DD_L3,2021.2.3,Win32,60.51437216,,,,,,,,,,,1.6622,1,,,,,,,,,,,,,,,,,,,,,,,,0.154947917,-0.326822917,0,0,0,,,,,,,LIZARD,HB,m,m,./images/LIZARDHB.png,,,,,,,,,,,,,,,,,,,,,m,1,1.6622,,,,,,,,0,77,77,44,1,
,,,,,,,,,,,,,,,,,5ddb44664a113aaa06465dbe,42,2022-02-12_17h18.38.048,lexical_decision_task_DD_L3,2021.2.3,Win32,60.51437216,,,,,,,,,,,0.6333,1,,,,,,,,,,,,,,,,,,,,,,,,0.154947917,-0.326822917,0,0,0,,,,,,,MUSCLE,C,m,m,./images/MUSCLE.png,,,,,,,,,,,,,,,,,,,,,m,1,0.6333,,,,,,,,0,78,78,4,1,
,,,,,,,,,,,,,,,,,5ddb44664a113aaa06465dbe,42,2022-02-12_17h18.38.048,lexical_decision_task_DD_L3,2021.2.3,Win32,60.51437216,,,,,,,,,,,0.5647,0,,,,,,,,,,,,,,,,,,,,,,,,0.154947917,-0.326822917,0,0,0,,,,,,,FOLDER,LB,m,m,./images/FOLDERLB.png,,,,,,,,,,,,,,,,,,,,,z,0,0.5647,,,,,,,,0,79,79,42,1,
,,,,,,,,,,,,,,,,,5ddb44664a113aaa06465dbe,42,2022-02-12_17h18.38.048,lexical_decision_task_DD_L3,2021.2.3,Win32,60.51437216,,,,,,,,,,,0.6793,1,,,,,,,,,,,,,,,,,,,,,,,,0.154947917,-0.326822917,0,0,0,,,,,,,DOUGH,C,m,m,./images/DOUGH.png,,,,,,,,,,,,,,,,,,,,,m,1,0.6793,,,,,,,,0,80,80,19,1,
,,,,,,,,,,,,,,,,,5ddb44664a113aaa06465dbe,42,2022-02-12_17h18.38.048,lexical_decision_task_DD_L3,2021.2.3,Win32,60.51437216,,,,,,,,,,,0.8702,1,,,,,,,,,,,,,,,,,,,,,,,,0.154947917,-0.326822917,0,0,0,,,,,,,JAGUAR,LB,m,m,./images/JAGUARLB.png,,,,,,,,,,,,,,,,,,,,,m,1,0.8702,,,,,,,,0,81,81,18,1,
,,,,,,,,,,,,,,,,,5ddb44664a113aaa06465dbe,42,2022-02-12_17h18.38.048,lexical_decision_task_DD_L3,2021.2.3,Win32,60.51437216,,,,,,,,,,,0.9469,1,,,,,,,,,,,,,,,,,,,,,,,,0.154947917,-0.326822917,0,0,0,,,,,,,GREASE,LB,m,m,./images/GREASELB.png,,,,,,,,,,,,,,,,,,,,,m,1,0.9469,,,,,,,,0,82,82,15,1,
,,,,,,,,,,,,,,,,,5ddb44664a113aaa06465dbe,42,2022-02-12_17h18.38.048,lexical_decision_task_DD_L3,2021.2.3,Win32,60.51437216,,,,,,,,,,,0.5871,1,,,,,,,,,,,,,,,,,,,,,,,,0.05078125,-0.4375,1,0,0,,,,,,,MOTOR,C,m,m,./images/MOTOR.png,,,,,,,,,,,,,,,,,,,,,m,1,0.5871,,,,,,,,0,83,83,13,1,break_done_button
,,,,,,,,,,,,,,,,,5ddb44664a113aaa06465dbe,42,2022-02-12_17h18.38.048,lexical_decision_task_DD_L3,2021.2.3,Win32,60.51437216,,,,,,,,,,,2.8712,1,,,,,,,,,,,,,,,,,,,,,,,,0.05078125,-0.4375,0,0,0,,,,,,,DRILL,LB,z,m,./images/DRILLLB.png,,,,,,,,,,,,,,,,,,,,,z,1,2.8712,,,,,,,,0,84,84,165,1,
,,,,,,,,,,,,,,,,,5ddb44664a113aaa06465dbe,42,2022-02-12_17h18.38.048,lexical_decision_task_DD_L3,2021.2.3,Win32,60.51437216,,,,,,,,,,,1.2206,1,,,,,,,,,,,,,,,,,,,,,,,,0.05078125,-0.4375,0,0,0,,,,,,,PIMPLE,HB,m,m,./images/PIMPLEHB.png,,,,,,,,,,,,,,,,,,,,,m,1,1.2206,,,,,,,,0,85,85,71,1,
,,,,,,,,,,,,,,,,,5ddb44664a113aaa06465dbe,42,2022-02-12_17h18.38.048,lexical_decision_task_DD_L3,2021.2.3,Win32,60.51437216,,,,,,,,,,,0.5795,1,,,,,,,,,,,,,,,,,,,,,,,,0.05078125,-0.4375,0,0,0,,,,,,,LADDER,HB,m,m,./images/LADDERHB.png,,,,,,,,,,,,,,,,,,,,,m,1,0.5795,,,,,,,,0,86,86,38,1,
,,,,,,,,,,,,,,,,,5ddb44664a113aaa06465dbe,42,2022-02-12_17h18.38.048,lexical_decision_task_DD_L3,2021.2.3,Win32,60.51437216,,,,,,,,,,,1.0318,1,,,,,,,,,,,,,,,,,,,,,,,,0.05078125,-0.4375,0,0,0,,,,,,,KITTEN,LB,m,m,./images/KITTENLB.png,,,,,,,,,,,,,,,,,,,,,m,1,1.0318,,,,,,,,0,87,87,45,1,
,,,,,,,,,,,,,,,,,5ddb44664a113aaa06465dbe,42,2022-02-12_17h18.38.048,lexical_decision_task_DD_L3,2021.2.3,Win32,60.51437216,,,,,,,,,,,1.0962,1,,,,,,,,,,,,,,,,,,,,,,,,0.05078125,-0.4375,0,0,0,,,,,,,HEATER,HB,z,m,./images/HEATERHB.png,,,,,,,,,,,,,,,,,,,,,z,1,1.0962,,,,,,,,0,88,88,140,1,
,,,,,,,,,,,,,,,,,5ddb44664a113aaa06465dbe,42,2022-02-12_17h18.38.048,lexical_decision_task_DD_L3,2021.2.3,Win32,60.51437216,,,,,,,,,,,1.6222,1,,,,,,,,,,,,,,,,,,,,,,,,0.05078125,-0.4375,0,0,0,,,,,,,WALRUS,HB,m,m,./images/WALRUSHB.png,,,,,,,,,,,,,,,,,,,,,m,1,1.6222,,,,,,,,0,89,89,23,1,
,,,,,,,,,,,,,,,,,5ddb44664a113aaa06465dbe,42,2022-02-12_17h18.38.048,lexical_decision_task_DD_L3,2021.2.3,Win32,60.51437216,,,,,,,,,,,1.1216,0,,,,,,,,,,,,,,,,,,,,,,,,0.05078125,-0.4375,0,0,0,,,,,,,PAINT,C,m,m,./images/PAINT.png,,,,,,,,,,,,,,,,,,,,,z,0,1.1216,,,,,,,,0,90,90,7,1,
,,,,,,,,,,,,,,,,,5ddb44664a113aaa06465dbe,42,2022-02-12_17h18.38.048,lexical_decision_task_DD_L3,2021.2.3,Win32,60.51437216,,,,,,,,,,,0.7138,1,,,,,,,,,,,,,,,,,,,,,,,,0.05078125,-0.4375,0,0,0,,,,,,,CLOTH,HB,z,m,./images/CLOTHHB.png,,,,,,,,,,,,,,,,,,,,,z,1,0.7138,,,,,,,,0,91,91,107,1,
,,,,,,,,,,,,,,,,,5ddb44664a113aaa06465dbe,42,2022-02-12_17h18.38.048,lexical_decision_task_DD_L3,2021.2.3,Win32,60.51437216,,,,,,,,,,,1.0008,1,,,,,,,,,,,,,,,,,,,,,,,,0.05078125,-0.4375,0,0,0,,,,,,,DESERT,C,z,m,./images/DESERT.png,,,,,,,,,,,,,,,,,,,,,z,1,1.0008,,,,,,,,0,92,92,136,1,
,,,,,,,,,,,,,,,,,5ddb44664a113aaa06465dbe,42,2022-02-12_17h18.38.048,lexical_decision_task_DD_L3,2021.2.3,Win32,60.51437216,,,,,,,,,,,0.8294,1,,,,,,,,,,,,,,,,,,,,,,,,0.05078125,-0.4375,0,0,0,,,,,,,GLOVE,C,z,m,./images/GLOVE.png,,,,,,,,,,,,,,,,,,,,,z,1,0.8294,,,,,,,,0,93,93,157,1,
,,,,,,,,,,,,,,,,,5ddb44664a113aaa06465dbe,42,2022-02-12_17h18.38.048,lexical_decision_task_DD_L3,2021.2.3,Win32,60.51437216,,,,,,,,,,,0.8299,1,,,,,,,,,,,,,,,,,,,,,,,,0.05078125,-0.4375,0,0,0,,,,,,,HOCKEY,HB,z,m,./images/HOCKEYHB.png,,,,,,,,,,,,,,,,,,,,,z,1,0.8299,,,,,,,,0,94,94,116,1,
,,,,,,,,,,,,,,,,,5ddb44664a113aaa06465dbe,42,2022-02-12_17h18.38.048,lexical_decision_task_DD_L3,2021.2.3,Win32,60.51437216,,,,,,,,,,,0.5978,1,,,,,,,,,,,,,,,,,,,,,,,,0.05078125,-0.4375,0,0,0,,,,,,,PICKLE,HB,m,m,./images/PICKLEHB.png,,,,,,,,,,,,,,,,,,,,,m,1,0.5978,,,,,,,,0,95,95,14,1,
,,,,,,,,,,,,,,,,,5ddb44664a113aaa06465dbe,42,2022-02-12_17h18.38.048,lexical_decision_task_DD_L3,2021.2.3,Win32,60.51437216,,,,,,,,,,,0.6641,0,,,,,,,,,,,,,,,,,,,,,,,,0.05078125,-0.4375,0,0,0,,,,,,,ALLEY,C,z,m,./images/ALLEY.png,,,,,,,,,,,,,,,,,,,,,m,0,0.6641,,,,,,,,0,96,96,139,1,
,,,,,,,,,,,,,,,,,5ddb44664a113aaa06465dbe,42,2022-02-12_17h18.38.048,lexical_decision_task_DD_L3,2021.2.3,Win32,60.51437216,,,,,,,,,,,1.3081,0,,,,,,,,,,,,,,,,,,,,,,,,0.05078125,-0.4375,0,0,0,,,,,,,BAMBOO,HB,z,m,./images/BAMBOOHB.png,,,,,,,,,,,,,,,,,,,,,m,0,1.3081,,,,,,,,0,97,97,89,1,
,,,,,,,,,,,,,,,,,5ddb44664a113aaa06465dbe,42,2022-02-12_17h18.38.048,lexical_decision_task_DD_L3,2021.2.3,Win32,60.51437216,,,,,,,,,,,1.2031,1,,,,,,,,,,,,,,,,,,,,,,,,0.05078125,-0.4375,0,0,0,,,,,,,JUMPER,HB,z,m,./images/JUMPERHB.png,,,,,,,,,,,,,,,,,,,,,z,1,1.2031,,,,,,,,0,98,98,158,1,
,,,,,,,,,,,,,,,,,5ddb44664a113aaa06465dbe,42,2022-02-12_17h18.38.048,lexical_decision_task_DD_L3,2021.2.3,Win32,60.51437216,,,,,,,,,,,1.1977,0,,,,,,,,,,,,,,,,,,,,,,,,0.05078125,-0.4375,0,0,0,,,,,,,GARDEN,C,z,m,./images/GARDEN.png,,,,,,,,,,,,,,,,,,,,,m,0,1.1977,,,,,,,,0,99,99,94,1,
,,,,,,,,,,,,,,,,,5ddb44664a113aaa06465dbe,42,2022-02-12_17h18.38.048,lexical_decision_task_DD_L3,2021.2.3,Win32,60.51437216,,,,,,,,,,,0.7034,1,,,,,,,,,,,,,,,,,,,,,,,,0.05078125,-0.4375,0,0,0,,,,,,,PURSE,HB,m,m,./images/PURSEHB.png,,,,,,,,,,,,,,,,,,,,,m,1,0.7034,,,,,,,,0,100,100,62,1,
,,,,,,,,,,,,,,,,,5ddb44664a113aaa06465dbe,42,2022-02-12_17h18.38.048,lexical_decision_task_DD_L3,2021.2.3,Win32,60.51437216,,,,,,,,,,,0.6848,1,,,,,,,,,,,,,,,,,,,,,,,,0.05078125,-0.4375,0,0,0,,,,,,,PLANK,C,m,m,./images/PLANK.png,,,,,,,,,,,,,,,,,,,,,m,1,0.6848,,,,,,,,0,101,101,1,1,
,,,,,,,,,,,,,,,,,5ddb44664a113aaa06465dbe,42,2022-02-12_17h18.38.048,lexical_decision_task_DD_L3,2021.2.3,Win32,60.51437216,,,,,,,,,,,0.7123,0,,,,,,,,,,,,,,,,,,,,,,,,0.05078125,-0.4375,0,0,0,,,,,,,SAUCE,LB,z,m,./images/SAUCELB.png,,,,,,,,,,,,,,,,,,,,,m,0,0.7123,,,,,,,,0,102,102,135,1,
,,,,,,,,,,,,,,,,,5ddb44664a113aaa06465dbe,42,2022-02-12_17h18.38.048,lexical_decision_task_DD_L3,2021.2.3,Win32,60.51437216,,,,,,,,,,,0.9626,1,,,,,,,,,,,,,,,,,,,,,,,,0.05078125,-0.4375,0,0,0,,,,,,,PISTOL,HB,z,m,./images/PISTOLHB.png,,,,,,,,,,,,,,,,,,,,,z,1,0.9626,,,,,,,,0,103,103,113,1,
,,,,,,,,,,,,,,,,,5ddb44664a113aaa06465dbe,42,2022-02-12_17h18.38.048,lexical_decision_task_DD_L3,2021.2.3,Win32,60.51437216,,,,,,,,,,,1.0461,0,,,,,,,,,,,,,,,,,,,,,,,,0.05078125,-0.4375,0,0,0,,,,,,,PACKET,HB,m,m,./images/PACKETHB.png,,,,,,,,,,,,,,,,,,,,,z,0,1.0461,,,,,,,,0,104,104,56,1,
,,,,,,,,,,,,,,,,,5ddb44664a113aaa06465dbe,42,2022-02-12_17h18.38.048,lexical_decision_task_DD_L3,2021.2.3,Win32,60.51437216,,,,,,,,,,,0.8778,1,,,,,,,,,,,,,,,,,,,,,,,,0.05078125,-0.4375,0,0,0,,,,,,,FLESH,LB,z,m,./images/FLESHLB.png,,,,,,,,,,,,,,,,,,,,,z,1,0.8778,,,,,,,,0,105,105,108,1,
,,,,,,,,,,,,,,,,,5ddb44664a113aaa06465dbe,42,2022-02-12_17h18.38.048,lexical_decision_task_DD_L3,2021.2.3,Win32,60.51437216,,,,,,,,,,,0.7331,1,,,,,,,,,,,,,,,,,,,,,,,,0.05078125,-0.4375,0,0,0,,,,,,,CANOE,C,z,m,./images/CANOE.png,,,,,,,,,,,,,,,,,,,,,z,1,0.7331,,,,,,,,0,106,106,142,1,
,,,,,,,,,,,,,,,,,5ddb44664a113aaa06465dbe,42,2022-02-12_17h18.38.048,lexical_decision_task_DD_L3,2021.2.3,Win32,60.51437216,,,,,,,,,,,0.881,0,,,,,,,,,,,,,,,,,,,,,,,,0.05078125,-0.4375,0,0,0,,,,,,,CHALK,C,z,m,./images/CHALK.png,,,,,,,,,,,,,,,,,,,,,m,0,0.881,,,,,,,,0,107,107,109,1,
,,,,,,,,,,,,,,,,,5ddb44664a113aaa06465dbe,42,2022-02-12_17h18.38.048,lexical_decision_task_DD_L3,2021.2.3,Win32,60.51437216,,,,,,,,,,,0.6155,1,,,,,,,,,,,,,,,,,,,,,,,,0.05078125,-0.4375,0,0,0,,,,,,,PASTA,HB,m,m,./images/PASTAHB.png,,,,,,,,,,,,,,,,,,,,,m,1,0.6155,,,,,,,,0,108,108,5,1,
,,,,,,,,,,,,,,,,,5ddb44664a113aaa06465dbe,42,2022-02-12_17h18.38.048,lexical_decision_task_DD_L3,2021.2.3,Win32,60.51437216,,,,,,,,,,,1.7811,0,,,,,,,,,,,,,,,,,,,,,,,,0.05078125,-0.4375,0,0,0,,,,,,,MEDAL,HB,z,m,./images/MEDALHB.png,,,,,,,,,,,,,,,,,,,,,m,0,1.7811,,,,,,,,0,109,109,95,1,
,,,,,,,,,,,,,,,,,5ddb44664a113aaa06465dbe,42,2022-02-12_17h18.38.048,lexical_decision_task_DD_L3,2021.2.3,Win32,60.51437216,,,,,,,,,,,0.8817,1,,,,,,,,,,,,,,,,,,,,,,,,0.05078125,-0.4375,0,0,0,,,,,,,DANCER,LB,z,m,./images/DANCERLB.png,,,,,,,,,,,,,,,,,,,,,z,1,0.8817,,,,,,,,0,110,110,105,1,
,,,,,,,,,,,,,,,,,5ddb44664a113aaa06465dbe,42,2022-02-12_17h18.38.048,lexical_decision_task_DD_L3,2021.2.3,Win32,60.51437216,,,,,,,,,,,0.9866,1,,,,,,,,,,,,,,,,,,,,,,,,0.05078125,-0.4375,0,0,0,,,,,,,SUNSET,C,m,m,./images/SUNSET.png,,,,,,,,,,,,,,,,,,,,,m,1,0.9866,,,,,,,,0,111,111,82,1,
,,,,,,,,,,,,,,,,,5ddb44664a113aaa06465dbe,42,2022-02-12_17h18.38.048,lexical_decision_task_DD_L3,2021.2.3,Win32,60.51437216,,,,,,,,,,,0.6285,0,,,,,,,,,,,,,,,,,,,,,,,,0.05078125,-0.4375,0,0,0,,,,,,,WALNUT,LB,z,m,./images/WALNUTLB.png,,,,,,,,,,,,,,,,,,,,,m,0,0.6285,,,,,,,,0,112,112,84,1,
,,,,,,,,,,,,,,,,,5ddb44664a113aaa06465dbe,42,2022-02-12_17h18.38.048,lexical_decision_task_DD_L3,2021.2.3,Win32,60.51437216,,,,,,,,,,,0.8725,1,,,,,,,,,,,,,,,,,,,,,,,,0.05078125,-0.4375,0,0,0,,,,,,,BANANA,C,z,m,./images/BANANA.png,,,,,,,,,,,,,,,,,,,,,z,1,0.8725,,,,,,,,0,113,113,154,1,
,,,,,,,,,,,,,,,,,5ddb44664a113aaa06465dbe,42,2022-02-12_17h18.38.048,lexical_decision_task_DD_L3,2021.2.3,Win32,60.51437216,,,,,,,,,,,0.7307,1,,,,,,,,,,,,,,,,,,,,,,,,0.05078125,-0.4375,0,0,0,,,,,,,CRADLE,HB,m,m,./images/CRADLEHB.png,,,,,,,,,,,,,,,,,,,,,m,1,0.7307,,,,,,,,0,114,114,20,1,
,,,,,,,,,,,,,,,,,5ddb44664a113aaa06465dbe,42,2022-02-12_17h18.38.048,lexical_decision_task_DD_L3,2021.2.3,Win32,60.51437216,,,,,,,,,,,0.7837,1,,,,,,,,,,,,,,,,,,,,,,,,0.05078125,-0.4375,0,0,0,,,,,,,COOKER,LB,m,m,./images/COOKERLB.png,,,,,,,,,,,,,,,,,,,,,m,1,0.7837,,,,,,,,0,115,115,69,1,
,,,,,,,,,,,,,,,,,5ddb44664a113aaa06465dbe,42,2022-02-12_17h18.38.048,lexical_decision_task_DD_L3,2021.2.3,Win32,60.51437216,,,,,,,,,,,0.613,1,,,,,,,,,,,,,,,,,,,,,,,,0.05078125,-0.4375,0,0,0,,,,,,,BARREL,HB,m,m,./images/BARRELHB.png,,,,,,,,,,,,,,,,,,,,,m,1,0.613,,,,,,,,0,116,116,32,1,
,,,,,,,,,,,,,,,,,5ddb44664a113aaa06465dbe,42,2022-02-12_17h18.38.048,lexical_decision_task_DD_L3,2021.2.3,Win32,60.51437216,,,,,,,,,,,0.5848,1,,,,,,,,,,,,,,,,,,,,,,,,0.05078125,-0.4375,0,0,0,,,,,,,BERRY,HB,m,m,./images/BERRYHB.png,,,,,,,,,,,,,,,,,,,,,m,1,0.5848,,,,,,,,0,117,117,47,1,
,,,,,,,,,,,,,,,,,5ddb44664a113aaa06465dbe,42,2022-02-12_17h18.38.048,lexical_decision_task_DD_L3,2021.2.3,Win32,60.51437216,,,,,,,,,,,0.6794,1,,,,,,,,,,,,,,,,,,,,,,,,0.05078125,-0.4375,0,0,0,,,,,,,JUNGLE,HB,m,m,./images/JUNGLEHB.png,,,,,,,,,,,,,,,,,,,,,m,1,0.6794,,,,,,,,0,118,118,83,1,
,,,,,,,,,,,,,,,,,5ddb44664a113aaa06465dbe,42,2022-02-12_17h18.38.048,lexical_decision_task_DD_L3,2021.2.3,Win32,60.51437216,,,,,,,,,,,0.5713,0,,,,,,,,,,,,,,,,,,,,,,,,0.05078125,-0.4375,0,0,0,,,,,,,POKER,C,z,m,./images/POKER.png,,,,,,,,,,,,,,,,,,,,,m,0,0.5713,,,,,,,,0,119,119,151,1,
,,,,,,,,,,,,,,,,,5ddb44664a113aaa06465dbe,42,2022-02-12_17h18.38.048,lexical_decision_task_DD_L3,2021.2.3,Win32,60.51437216,,,,,,,,,,,0.6397,1,,,,,,,,,,,,,,,,,,,,,,,,0.05078125,-0.4375,0,0,0,,,,,,,RHINO,LB,m,m,./images/RHINOLB.png,,,,,,,,,,,,,,,,,,,,,m,1,0.6397,,,,,,,,0,120,120,9,1,
,,,,,,,,,,,,,,,,,5ddb44664a113aaa06465dbe,42,2022-02-12_17h18.38.048,lexical_decision_task_DD_L3,2021.2.3,Win32,60.51437216,,,,,,,,,,,1.0623,0,,,,,,,,,,,,,,,,,,,,,,,,0.05078125,-0.4375,0,0,0,,,,,,,MUMMY,C,z,m,./images/MUMMY.png,,,,,,,,,,,,,,,,,,,,,m,0,1.0623,,,,,,,,0,121,121,130,1,
,,,,,,,,,,,,,,,,,5ddb44664a113aaa06465dbe,42,2022-02-12_17h18.38.048,lexical_decision_task_DD_L3,2021.2.3,Win32,60.51437216,,,,,,,,,,,0.7355,1,,,,,,,,,,,,,,,,,,,,,,,,0.05078125,-0.4375,0,0,0,,,,,,,CHERRY,LB,z,m,./images/CHERRYLB.png,,,,,,,,,,,,,,,,,,,,,z,1,0.7355,,,,,,,,0,122,122,138,1,
,,,,,,,,,,,,,,,,,5ddb44664a113aaa06465dbe,42,2022-02-12_17h18.38.048,lexical_decision_task_DD_L3,2021.2.3,Win32,60.51437216,,,,,,,,,,,0.9472,1,,,,,,,,,,,,,,,,,,,,,,,,0.05078125,-0.4375,0,0,0,,,,,,,CRUMB,HB,m,m,./images/CRUMBHB.png,,,,,,,,,,,,,,,,,,,,,m,1,0.9472,,,,,,,,0,123,123,29,1,
,,,,,,,,,,,,,,,,,5ddb44664a113aaa06465dbe,42,2022-02-12_17h18.38.048,lexical_decision_task_DD_L3,2021.2.3,Win32,60.51437216,,,,,,,,,,,0.9922,0,,,,,,,,,,,,,,,,,,,,,,,,0.05078125,-0.4375,0,0,0,,,,,,,WEASEL,HB,m,m,./images/WEASELHB.png,,,,,,,,,,,,,,,,,,,,,z,0,0.9922,,,,,,,,0,124,124,80,1,
,,,,,,,,,,,,,,,,,5ddb44664a113aaa06465dbe,42,2022-02-12_17h18.38.048,lexical_decision_task_DD_L3,2021.2.3,Win32,60.51437216,,,,,,,,,,,0.8199,1,,,,,,,,,,,,,,,,,,,,,,,,0.05078125,-0.4375,0,0,0,space,,,,,,MELON,C,m,m,./images/MELON.png,86.8086,,,,,,,,,,,,,,,,,,,,m,1,0.8199,,,,,,,,0,125,125,22,1,
,,,,,,,,,,,,,,,,,5ddb44664a113aaa06465dbe,42,2022-02-12_17h18.38.048,lexical_decision_task_DD_L3,2021.2.3,Win32,60.51437216,,,,,,,,,,,1.953,1,,,,,,,,,,,,,,,,,,,,,,,,0.05078125,-0.4375,0,0,0,,,,,,,VALLEY,HB,z,m,./images/VALLEYHB.png,,,,,,,,,,,,,,,,,,,,,z,1,1.953,,,,,,,,0,126,126,152,1,
,,,,,,,,,,,,,,,,,5ddb44664a113aaa06465dbe,42,2022-02-12_17h18.38.048,lexical_decision_task_DD_L3,2021.2.3,Win32,60.51437216,,,,,,,,,,,0.9139,1,,,,,,,,,,,,,,,,,,,,,,,,0.05078125,-0.4375,0,0,0,,,,,,,CASINO,C,z,m,./images/CASINO.png,,,,,,,,,,,,,,,,,,,,,z,1,0.9139,,,,,,,,0,127,127,112,1,
,,,,,,,,,,,,,,,,,5ddb44664a113aaa06465dbe,42,2022-02-12_17h18.38.048,lexical_decision_task_DD_L3,2021.2.3,Win32,60.51437216,,,,,,,,,,,0.9593,0,,,,,,,,,,,,,,,,,,,,,,,,0.05078125,-0.4375,0,0,0,,,,,,,RULER,C,z,m,./images/RULER.png,,,,,,,,,,,,,,,,,,,,,m,0,0.9593,,,,,,,,0,128,128,163,1,
,,,,,,,,,,,,,,,,,5ddb44664a113aaa06465dbe,42,2022-02-12_17h18.38.048,lexical_decision_task_DD_L3,2021.2.3,Win32,60.51437216,,,,,,,,,,,0.8996,1,,,,,,,,,,,,,,,,,,,,,,,,0.05078125,-0.4375,0,0,0,,,,,,,BOXER,C,z,m,./images/BOXER.png,,,,,,,,,,,,,,,,,,,,,z,1,0.8996,,,,,,,,0,129,129,88,1,
,,,,,,,,,,,,,,,,,5ddb44664a113aaa06465dbe,42,2022-02-12_17h18.38.048,lexical_decision_task_DD_L3,2021.2.3,Win32,60.51437216,,,,,,,,,,,0.7808,1,,,,,,,,,,,,,,,,,,,,,,,,0.05078125,-0.4375,0,0,0,,,,,,,CLOWN,C,z,m,./images/CLOWN.png,,,,,,,,,,,,,,,,,,,,,z,1,0.7808,,,,,,,,0,130,130,106,1,
,,,,,,,,,,,,,,,,,5ddb44664a113aaa06465dbe,42,2022-02-12_17h18.38.048,lexical_decision_task_DD_L3,2021.2.3,Win32,60.51437216,,,,,,,,,,,1.1501,0,,,,,,,,,,,,,,,,,,,,,,,,0.05078125,-0.4375,0,0,0,,,,,,,CANDLE,C,m,m,./images/CANDLE.png,,,,,,,,,,,,,,,,,,,,,z,0,1.1501,,,,,,,,0,131,131,61,1,
,,,,,,,,,,,,,,,,,5ddb44664a113aaa06465dbe,42,2022-02-12_17h18.38.048,lexical_decision_task_DD_L3,2021.2.3,Win32,60.51437216,,,,,,,,,,,0.6911,0,,,,,,,,,,,,,,,,,,,,,,,,0.05078125,-0.4375,0,0,0,,,,,,,BISHOP,C,z,m,./images/BISHOP.png,,,,,,,,,,,,,,,,,,,,,m,0,0.6911,,,,,,,,0,132,132,133,1,
