key_resp.keys,key_resp.rt,instr_done_touch.x,instr_done_touch.y,instr_done_touch.leftButton,instr_done_touch.midButton,instr_done_touch.rightButton,instruction_pages.thisRepN,instruction_pages.thisTrialN,instruction_pages.thisN,instruction_pages.thisIndex,instruction_pages.ran,pageN,phase,instruct_text,has_image,instruct_image,participant,age,date,expName,psychopyVersion,OS,frameRate,response.keys,response.corr,response.rt,touch_resp.x,touch_resp.y,touch_resp.leftButton,touch_resp.midButton,touch_resp.rightButton,touch_resp.time,touch_resp.clicked_name,rt,corr,practrials.thisRepN,practrials.thisTrialN,practrials.thisN,practrials.thisIndex,practrials.ran,TrialID,Target,corrAns,end_of_practice_trials_pages.thisRepN,end_of_practice_trials_pages.thisTrialN,end_of_practice_trials_pages.thisN,end_of_practice_trials_pages.thisIndex,end_of_practice_trials_pages.ran,key_resp_2.keys,key_resp_2.corr,key_resp_2.rt,targ_click.x,targ_click.y,targ_click.leftButton,targ_click.midButton,targ_click.rightButton,targ_click.time,targ_click.clicked_name,break_done_touch.x,break_done_touch.y,break_done_touch.leftButton,break_done_touch.midButton,break_done_touch.rightButton,break_done_keyboard.keys,maintrials.thisRepN,maintrials.thisTrialN,maintrials.thisN,maintrials.thisIndex,maintrials.ran,string,blur,study,lex,stim_path,break_done_keyboard.rt,mouse_2.x,mouse_2.y,mouse_2.leftButton,mouse_2.midButton,mouse_2.rightButton,mouse_2.clicked_name,slider.response,slider.rt,trials.thisRepN,trials.thisTrialN,trials.thisN,trials.thisIndex,trials.ran,test_instructions.thisRepN,test_instructions.thisTrialN,test_instructions.thisN,test_instructions.thisIndex,test_instructions.ran,instr_done_touch.clicked_name,key_resp_3.keys,key_resp_3.corr,key_resp_3.rt,test_click.x,test_click.y,test_click.leftButton,test_click.midButton,test_click.rightButton,test_click.time,test_click.clicked_name,test_phase.thisRepN,test_phase.thisTrialN,test_phase.thisN,test_phase.thisIndex,test_phase.ran
space,11.0074,0.569444466,-0.20925927,0,0,0,0,0,0,0,1,1,instructions,"INSTRUCTIONS
At the start of each trial, look at the plus sign  (+) in the center of the screen.  This tells you that a trial is about to begin and where to look. Second, the plus sign will disappear and a string of letters will appear. Your task is to determine if the string of letters is a word or not. If the item is a word press the M key (on keyboard)  or touch the word button (phone/tablet).  If the item is not a word,  press the  Z key (on keyboard)  or touch the nonword button (on phone/tablet). 
Press the space bar or touch  continue.",0,,5dfa956b247354017ef9e5a5,27,2022-02-12_13h21.20.321,lexical_decision_task_DD_L3,2021.2.3,Win32,60.07088364,,,,,,,,,,,,,,,,,,,,,,,,,,,,,,,,,,,,,,,,,,,,,,,,,,,,,,,,,,,,,,,,,,,,,,,,,,,,,,,,,,,,,,
space,5.1628,0.569444466,-0.20925927,0,0,0,0,1,1,1,1,2,instructions,"If your device has a keyboard, press the 'Z' key for nonwords and the 'M' key for words.





Press the space bar or touch the button below to continue.",0,keyboard-example.gif,5dfa956b247354017ef9e5a5,27,2022-02-12_13h21.20.321,lexical_decision_task_DD_L3,2021.2.3,Win32,60.07088364,,,,,,,,,,,,,,,,,,,,,,,,,,,,,,,,,,,,,,,,,,,,,,,,,,,,,,,,,,,,,,,,,,,,,,,,,,,,,,,,,,,,,,
space,1.3794,0.569444466,-0.20925927,0,0,0,0,2,2,2,1,3,instructions,"If you are using a touchscreen only device, use the buttons on the screen. Do not use the mouse.





Press the space bar or touch the button below to continue.",0,touchscreen-example.gif,5dfa956b247354017ef9e5a5,27,2022-02-12_13h21.20.321,lexical_decision_task_DD_L3,2021.2.3,Win32,60.07088364,,,,,,,,,,,,,,,,,,,,,,,,,,,,,,,,,,,,,,,,,,,,,,,,,,,,,,,,,,,,,,,,,,,,,,,,,,,,,,,,,,,,,,
space,10.7429,0.569444466,-0.20925927,0,0,0,0,3,3,3,1,4,instructions,"It is very important that you respond as quickly and accurately as possible, as each letter string will only be on the screen for two seconds. If you do not respond within this time, the message 'Too slow!' will be displayed and the experiment will progress to the next letter string. The first 20 trials will be practice trials and you will receive feedback on your answers. 

Press the space bar or touch the button below to start the practice trials.",0,,5dfa956b247354017ef9e5a5,27,2022-02-12_13h21.20.321,lexical_decision_task_DD_L3,2021.2.3,Win32,60.07088364,,,,,,,,,,,,,,,,,,,,,,,,,,,,,,,,,,,,,,,,,,,,,,,,,,,,,,,,,,,,,,,,,,,,,,,,,,,,,,,,,,,,,,
,,,,,,,,,,,,,,,,,5dfa956b247354017ef9e5a5,27,2022-02-12_13h21.20.321,lexical_decision_task_DD_L3,2021.2.3,Win32,60.07088364,z,1,1.8678,,,,,,,,1.8678,1,0,0,0,8,1,1001,ASLERT,z,,,,,,,,,,,,,,,,,,,,,,,,,,,,,,,,,,,,,,,,,,,,,,,,,,,,,,,,,,,,,,,,,,
,,,,,,,,,,,,,,,,,5dfa956b247354017ef9e5a5,27,2022-02-12_13h21.20.321,lexical_decision_task_DD_L3,2021.2.3,Win32,60.07088364,z,1,1.0417,,,,,,,,1.0417,1,0,1,1,14,1,1001,THRALE,z,,,,,,,,,,,,,,,,,,,,,,,,,,,,,,,,,,,,,,,,,,,,,,,,,,,,,,,,,,,,,,,,,,
,,,,,,,,,,,,,,,,,5dfa956b247354017ef9e5a5,27,2022-02-12_13h21.20.321,lexical_decision_task_DD_L3,2021.2.3,Win32,60.07088364,m,0,1.1337,,,,,,,,1.1337,0,0,2,2,12,1,1001,SPRINY,z,,,,,,,,,,,,,,,,,,,,,,,,,,,,,,,,,,,,,,,,,,,,,,,,,,,,,,,,,,,,,,,,,,
,,,,,,,,,,,,,,,,,5dfa956b247354017ef9e5a5,27,2022-02-12_13h21.20.321,lexical_decision_task_DD_L3,2021.2.3,Win32,60.07088364,z,1,0.8714,,,,,,,,0.8714,1,0,3,3,10,1,1001,INLADE,z,,,,,,,,,,,,,,,,,,,,,,,,,,,,,,,,,,,,,,,,,,,,,,,,,,,,,,,,,,,,,,,,,,
,,,,,,,,,,,,,,,,,5dfa956b247354017ef9e5a5,27,2022-02-12_13h21.20.321,lexical_decision_task_DD_L3,2021.2.3,Win32,60.07088364,z,1,0.7481,,,,,,,,0.7481,1,0,4,4,11,1,1001,RASHET,z,,,,,,,,,,,,,,,,,,,,,,,,,,,,,,,,,,,,,,,,,,,,,,,,,,,,,,,,,,,,,,,,,,
,,,,,,,,,,,,,,,,,5dfa956b247354017ef9e5a5,27,2022-02-12_13h21.20.321,lexical_decision_task_DD_L3,2021.2.3,Win32,60.07088364,z,1,0.7338,,,,,,,,0.7338,1,0,5,5,13,1,1001,ROUPET,z,,,,,,,,,,,,,,,,,,,,,,,,,,,,,,,,,,,,,,,,,,,,,,,,,,,,,,,,,,,,,,,,,,
,,,,,,,,,,,,,,,,,5dfa956b247354017ef9e5a5,27,2022-02-12_13h21.20.321,lexical_decision_task_DD_L3,2021.2.3,Win32,60.07088364,m,1,0.6223,,,,,,,,0.6223,1,0,6,6,0,1,1001,UTOPIA,m,,,,,,,,,,,,,,,,,,,,,,,,,,,,,,,,,,,,,,,,,,,,,,,,,,,,,,,,,,,,,,,,,,
,,,,,,,,,,,,,,,,,5dfa956b247354017ef9e5a5,27,2022-02-12_13h21.20.321,lexical_decision_task_DD_L3,2021.2.3,Win32,60.07088364,z,1,1.1002,,,,,,,,1.1002,1,0,7,7,15,1,1001,WHAISE,z,,,,,,,,,,,,,,,,,,,,,,,,,,,,,,,,,,,,,,,,,,,,,,,,,,,,,,,,,,,,,,,,,,
,,,,,,,,,,,,,,,,,5dfa956b247354017ef9e5a5,27,2022-02-12_13h21.20.321,lexical_decision_task_DD_L3,2021.2.3,Win32,60.07088364,m,1,0.6348,,,,,,,,0.6348,1,0,8,8,1,1,1001,ADJUST,m,,,,,,,,,,,,,,,,,,,,,,,,,,,,,,,,,,,,,,,,,,,,,,,,,,,,,,,,,,,,,,,,,,
,,,,,,,,,,,,,,,,,5dfa956b247354017ef9e5a5,27,2022-02-12_13h21.20.321,lexical_decision_task_DD_L3,2021.2.3,Win32,60.07088364,m,1,0.6843,,,,,,,,0.6843,1,0,9,9,6,1,1001,ZOMBIE,m,,,,,,,,,,,,,,,,,,,,,,,,,,,,,,,,,,,,,,,,,,,,,,,,,,,,,,,,,,,,,,,,,,
,,,,,,,,,,,,,,,,,5dfa956b247354017ef9e5a5,27,2022-02-12_13h21.20.321,lexical_decision_task_DD_L3,2021.2.3,Win32,60.07088364,m,1,0.6009,,,,,,,,0.6009,1,0,10,10,3,1,1001,MATRIX,m,,,,,,,,,,,,,,,,,,,,,,,,,,,,,,,,,,,,,,,,,,,,,,,,,,,,,,,,,,,,,,,,,,
,,,,,,,,,,,,,,,,,5dfa956b247354017ef9e5a5,27,2022-02-12_13h21.20.321,lexical_decision_task_DD_L3,2021.2.3,Win32,60.07088364,m,1,0.51,,,,,,,,0.51,1,0,11,11,2,1,1001,ALMOND,m,,,,,,,,,,,,,,,,,,,,,,,,,,,,,,,,,,,,,,,,,,,,,,,,,,,,,,,,,,,,,,,,,,
,,,,,,,,,,,,,,,,,5dfa956b247354017ef9e5a5,27,2022-02-12_13h21.20.321,lexical_decision_task_DD_L3,2021.2.3,Win32,60.07088364,m,1,0.5482,,,,,,,,0.5482,1,0,12,12,7,1,1001,VOLUME,m,,,,,,,,,,,,,,,,,,,,,,,,,,,,,,,,,,,,,,,,,,,,,,,,,,,,,,,,,,,,,,,,,,
,,,,,,,,,,,,,,,,,5dfa956b247354017ef9e5a5,27,2022-02-12_13h21.20.321,lexical_decision_task_DD_L3,2021.2.3,Win32,60.07088364,m,1,0.5257,,,,,,,,0.5257,1,0,13,13,4,1,1001,SQUEAK,m,,,,,,,,,,,,,,,,,,,,,,,,,,,,,,,,,,,,,,,,,,,,,,,,,,,,,,,,,,,,,,,,,,
,,,,,,,,,,,,,,,,,5dfa956b247354017ef9e5a5,27,2022-02-12_13h21.20.321,lexical_decision_task_DD_L3,2021.2.3,Win32,60.07088364,z,1,0.7328,,,,,,,,0.7328,1,0,14,14,9,1,1001,FARINY,z,,,,,,,,,,,,,,,,,,,,,,,,,,,,,,,,,,,,,,,,,,,,,,,,,,,,,,,,,,,,,,,,,,
,,,,,,,,,,,,,,,,,5dfa956b247354017ef9e5a5,27,2022-02-12_13h21.20.321,lexical_decision_task_DD_L3,2021.2.3,Win32,60.07088364,m,1,0.5218,,,,,,,,0.5218,1,0,15,15,5,1,1001,OBTAIN,m,,,,,,,,,,,,,,,,,,,,,,,,,,,,,,,,,,,,,,,,,,,,,,,,,,,,,,,,,,,,,,,,,,
space,8.3624,0.569444466,-0.20925927,0,0,0,,,,,,1,end_of_practice,"You have completed the practice trials. During the experimental trials, you will not receive feedback. 
Before you begin, please ensure that you are in a comfortable and quiet location and will not be disturbed for about 15 minutes, as we cannot use your data if you do not complete all the trials. 
 When you are ready to start the experimental trials, please press space or touch the button below.",,,5dfa956b247354017ef9e5a5,27,2022-02-12_13h21.20.321,lexical_decision_task_DD_L3,2021.2.3,Win32,60.07088364,,,,,,,,,,,,,,,,,,,,,0,0,0,0,1,,,,,,,,,,,,,,,,,,,,,,,,,,,,,,,,,,,,,,,,,,,,,,,,,,,,,,,,,,,,,
,,,,,,,,,,,,,,,,,5dfa956b247354017ef9e5a5,27,2022-02-12_13h21.20.321,lexical_decision_task_DD_L3,2021.2.3,Win32,60.07088364,,,,,,,,,,,1.3901,1,,,,,,,,,,,,,,m,1,1.3901,,,,,,,,0.569444466,-0.20925927,0,0,0,,0,0,0,3,1,FINGER,LB,old,m,./images/FINGERLB.png,,,,,,,,,,,,,,,,,,,,,,,,,,,,,,,,,,,
,,,,,,,,,,,,,,,,,5dfa956b247354017ef9e5a5,27,2022-02-12_13h21.20.321,lexical_decision_task_DD_L3,2021.2.3,Win32,60.07088364,,,,,,,,,,,0.6132,1,,,,,,,,,,,,,,m,1,0.6132,,,,,,,,0.569444466,-0.20925927,0,0,0,,0,1,1,24,1,SCREW,LB,old,m,./images/SCREWLB.png,,,,,,,,,,,,,,,,,,,,,,,,,,,,,,,,,,,
,,,,,,,,,,,,,,,,,5dfa956b247354017ef9e5a5,27,2022-02-12_13h21.20.321,lexical_decision_task_DD_L3,2021.2.3,Win32,60.07088364,,,,,,,,,,,0.6949,1,,,,,,,,,,,,,,m,1,0.6949,,,,,,,,0.569444466,-0.20925927,0,0,0,,0,2,2,51,1,ONION,LB,old,m,./images/ONIONLB.png,,,,,,,,,,,,,,,,,,,,,,,,,,,,,,,,,,,
,,,,,,,,,,,,,,,,,5dfa956b247354017ef9e5a5,27,2022-02-12_13h21.20.321,lexical_decision_task_DD_L3,2021.2.3,Win32,60.07088364,,,,,,,,,,,0.457,1,,,,,,,,,,,,,,m,1,0.457,,,,,,,,0.569444466,-0.20925927,0,0,0,,0,3,3,73,1,SNACK,C,old,m,./images/SNACK.png,,,,,,,,,,,,,,,,,,,,,,,,,,,,,,,,,,,
,,,,,,,,,,,,,,,,,5dfa956b247354017ef9e5a5,27,2022-02-12_13h21.20.321,lexical_decision_task_DD_L3,2021.2.3,Win32,60.07088364,,,,,,,,,,,0.8155,1,,,,,,,,,,,,,,z,1,0.8155,,,,,,,,0.569444466,-0.20925927,0,0,0,,0,4,4,104,1,GITTY,LB,old,z,./images/GITTYLB.png,,,,,,,,,,,,,,,,,,,,,,,,,,,,,,,,,,,
,,,,,,,,,,,,,,,,,5dfa956b247354017ef9e5a5,27,2022-02-12_13h21.20.321,lexical_decision_task_DD_L3,2021.2.3,Win32,60.07088364,,,,,,,,,,,0.5397,1,,,,,,,,,,,,,,m,1,0.5397,,,,,,,,0.569444466,-0.20925927,0,0,0,,0,5,5,0,1,TOMATO,LB,old,m,./images/TOMATOLB.png,,,,,,,,,,,,,,,,,,,,,,,,,,,,,,,,,,,
,,,,,,,,,,,,,,,,,5dfa956b247354017ef9e5a5,27,2022-02-12_13h21.20.321,lexical_decision_task_DD_L3,2021.2.3,Win32,60.07088364,,,,,,,,,,,0.6305,1,,,,,,,,,,,,,,z,1,0.6305,,,,,,,,0.569444466,-0.20925927,0,0,0,,0,6,6,150,1,NOOLS,C,old,z,./images/NOOLS.png,,,,,,,,,,,,,,,,,,,,,,,,,,,,,,,,,,,
,,,,,,,,,,,,,,,,,5dfa956b247354017ef9e5a5,27,2022-02-12_13h21.20.321,lexical_decision_task_DD_L3,2021.2.3,Win32,60.07088364,,,,,,,,,,,0.7645,1,,,,,,,,,,,,,,m,1,0.7645,,,,,,,,0.569444466,-0.20925927,0,0,0,,0,7,7,8,1,TULIP,HB,old,m,./images/TULIPHB.png,,,,,,,,,,,,,,,,,,,,,,,,,,,,,,,,,,,
,,,,,,,,,,,,,,,,,5dfa956b247354017ef9e5a5,27,2022-02-12_13h21.20.321,lexical_decision_task_DD_L3,2021.2.3,Win32,60.07088364,,,,,,,,,,,0.6108,1,,,,,,,,,,,,,,z,1,0.6108,,,,,,,,0.569444466,-0.20925927,0,0,0,,0,8,8,111,1,HOSSE,C,old,z,./images/HOSSE.png,,,,,,,,,,,,,,,,,,,,,,,,,,,,,,,,,,,
,,,,,,,,,,,,,,,,,5dfa956b247354017ef9e5a5,27,2022-02-12_13h21.20.321,lexical_decision_task_DD_L3,2021.2.3,Win32,60.07088364,,,,,,,,,,,0.6886,1,,,,,,,,,,,,,,m,1,0.6886,,,,,,,,0.569444466,-0.20925927,0,0,0,,0,9,9,77,1,COUCH,HB,old,m,./images/COUCHHB.png,,,,,,,,,,,,,,,,,,,,,,,,,,,,,,,,,,,
,,,,,,,,,,,,,,,,,5dfa956b247354017ef9e5a5,27,2022-02-12_13h21.20.321,lexical_decision_task_DD_L3,2021.2.3,Win32,60.07088364,,,,,,,,,,,0.7989,1,,,,,,,,,,,,,,m,1,0.7989,,,,,,,,0.569444466,-0.20925927,0,0,0,,0,10,10,47,1,BERRY,HB,old,m,./images/BERRYHB.png,,,,,,,,,,,,,,,,,,,,,,,,,,,,,,,,,,,
,,,,,,,,,,,,,,,,,5dfa956b247354017ef9e5a5,27,2022-02-12_13h21.20.321,lexical_decision_task_DD_L3,2021.2.3,Win32,60.07088364,,,,,,,,,,,0.7226,1,,,,,,,,,,,,,,z,1,0.7226,,,,,,,,0.569444466,-0.20925927,0,0,0,,0,11,11,141,1,PLEET,C,old,z,./images/PLEET.png,,,,,,,,,,,,,,,,,,,,,,,,,,,,,,,,,,,
,,,,,,,,,,,,,,,,,5dfa956b247354017ef9e5a5,27,2022-02-12_13h21.20.321,lexical_decision_task_DD_L3,2021.2.3,Win32,60.07088364,,,,,,,,,,,2.4611,0,,,,,,,,,,,,,,m,0,2.4611,,,,,,,,0.569444466,-0.20925927,0,0,0,,0,12,12,151,1,TINKY,HB,old,z,./images/TINKYHB.png,,,,,,,,,,,,,,,,,,,,,,,,,,,,,,,,,,,
,,,,,,,,,,,,,,,,,5dfa956b247354017ef9e5a5,27,2022-02-12_13h21.20.321,lexical_decision_task_DD_L3,2021.2.3,Win32,60.07088364,,,,,,,,,,,0.5769,1,,,,,,,,,,,,,,m,1,0.5769,,,,,,,,0.569444466,-0.20925927,0,0,0,,0,13,13,15,1,GREASE,LB,old,m,./images/GREASELB.png,,,,,,,,,,,,,,,,,,,,,,,,,,,,,,,,,,,
,,,,,,,,,,,,,,,,,5dfa956b247354017ef9e5a5,27,2022-02-12_13h21.20.321,lexical_decision_task_DD_L3,2021.2.3,Win32,60.07088364,,,,,,,,,,,1.3661,1,,,,,,,,,,,,,,m,1,1.3661,,,,,,,,0.569444466,-0.20925927,0,0,0,,0,14,14,26,1,SMOKER,HB,old,m,./images/SMOKERHB.png,,,,,,,,,,,,,,,,,,,,,,,,,,,,,,,,,,,
,,,,,,,,,,,,,,,,,5dfa956b247354017ef9e5a5,27,2022-02-12_13h21.20.321,lexical_decision_task_DD_L3,2021.2.3,Win32,60.07088364,,,,,,,,,,,0.5547,1,,,,,,,,,,,,,,z,1,0.5547,,,,,,,,0.569444466,-0.20925927,0,0,0,,0,15,15,90,1,NEAST,C,old,z,./images/NEAST.png,,,,,,,,,,,,,,,,,,,,,,,,,,,,,,,,,,,
,,,,,,,,,,,,,,,,,5dfa956b247354017ef9e5a5,27,2022-02-12_13h21.20.321,lexical_decision_task_DD_L3,2021.2.3,Win32,60.07088364,,,,,,,,,,,0.7334,0,,,,,,,,,,,,,,m,0,0.7334,,,,,,,,0.569444466,-0.20925927,0,0,0,,0,16,16,166,1,SHORY,HB,old,z,./images/SHORYHB.png,,,,,,,,,,,,,,,,,,,,,,,,,,,,,,,,,,,
,,,,,,,,,,,,,,,,,5dfa956b247354017ef9e5a5,27,2022-02-12_13h21.20.321,lexical_decision_task_DD_L3,2021.2.3,Win32,60.07088364,,,,,,,,,,,0.515,0,,,,,,,,,,,,,,z,0,0.515,,,,,,,,0.569444466,-0.20925927,0,0,0,,0,17,17,6,1,SQUARE,LB,old,m,./images/SQUARELB.png,,,,,,,,,,,,,,,,,,,,,,,,,,,,,,,,,,,
,,,,,,,,,,,,,,,,,5dfa956b247354017ef9e5a5,27,2022-02-12_13h21.20.321,lexical_decision_task_DD_L3,2021.2.3,Win32,60.07088364,,,,,,,,,,,0.8328,1,,,,,,,,,,,,,,z,1,0.8328,,,,,,,,0.569444466,-0.20925927,0,0,0,,0,18,18,153,1,CLUPS,C,old,z,./images/CLUPS.png,,,,,,,,,,,,,,,,,,,,,,,,,,,,,,,,,,,
,,,,,,,,,,,,,,,,,5dfa956b247354017ef9e5a5,27,2022-02-12_13h21.20.321,lexical_decision_task_DD_L3,2021.2.3,Win32,60.07088364,,,,,,,,,,,0.7089,1,,,,,,,,,,,,,,m,1,0.7089,,,,,,,,0.569444466,-0.20925927,0,0,0,,0,19,19,80,1,WEASEL,HB,old,m,./images/WEASELHB.png,,,,,,,,,,,,,,,,,,,,,,,,,,,,,,,,,,,
,,,,,,,,,,,,,,,,,5dfa956b247354017ef9e5a5,27,2022-02-12_13h21.20.321,lexical_decision_task_DD_L3,2021.2.3,Win32,60.07088364,,,,,,,,,,,0.7851,1,,,,,,,,,,,,,,z,1,0.7851,,,,,,,,0.569444466,-0.20925927,0,0,0,,0,20,20,154,1,THINT,HB,old,z,./images/THINTHB.png,,,,,,,,,,,,,,,,,,,,,,,,,,,,,,,,,,,
,,,,,,,,,,,,,,,,,5dfa956b247354017ef9e5a5,27,2022-02-12_13h21.20.321,lexical_decision_task_DD_L3,2021.2.3,Win32,60.07088364,,,,,,,,,,,0.808,1,,,,,,,,,,,,,,z,1,0.808,,,,,,,,0.569444466,-0.20925927,0,0,0,,0,21,21,94,1,BLANS,HB,old,z,./images/BLANSHB.png,,,,,,,,,,,,,,,,,,,,,,,,,,,,,,,,,,,
,,,,,,,,,,,,,,,,,5dfa956b247354017ef9e5a5,27,2022-02-12_13h21.20.321,lexical_decision_task_DD_L3,2021.2.3,Win32,60.07088364,,,,,,,,,,,0.7294,1,,,,,,,,,,,,,,z,1,0.7294,,,,,,,,0.569444466,-0.20925927,0,0,0,,0,22,22,93,1,SMONE,C,old,z,./images/SMONE.png,,,,,,,,,,,,,,,,,,,,,,,,,,,,,,,,,,,
,,,,,,,,,,,,,,,,,5dfa956b247354017ef9e5a5,27,2022-02-12_13h21.20.321,lexical_decision_task_DD_L3,2021.2.3,Win32,60.07088364,,,,,,,,,,,0.6008,1,,,,,,,,,,,,,,z,1,0.6008,,,,,,,,0.569444466,-0.20925927,0,0,0,,0,23,23,167,1,ZONET,LB,old,z,./images/ZONETLB.png,,,,,,,,,,,,,,,,,,,,,,,,,,,,,,,,,,,
,,,,,,,,,,,,,,,,,5dfa956b247354017ef9e5a5,27,2022-02-12_13h21.20.321,lexical_decision_task_DD_L3,2021.2.3,Win32,60.07088364,,,,,,,,,,,0.6948,1,,,,,,,,,,,,,,z,1,0.6948,,,,,,,,0.569444466,-0.20925927,0,0,0,,0,24,24,118,1,BAVEL,HB,old,z,./images/BAVELHB.png,,,,,,,,,,,,,,,,,,,,,,,,,,,,,,,,,,,
,,,,,,,,,,,,,,,,,5dfa956b247354017ef9e5a5,27,2022-02-12_13h21.20.321,lexical_decision_task_DD_L3,2021.2.3,Win32,60.07088364,,,,,,,,,,,0.8018,1,,,,,,,,,,,,,,m,1,0.8018,,,,,,,,0.569444466,-0.20925927,0,0,0,,0,25,25,68,1,TORCH,HB,old,m,./images/TORCHHB.png,,,,,,,,,,,,,,,,,,,,,,,,,,,,,,,,,,,
,,,,,,,,,,,,,,,,,5dfa956b247354017ef9e5a5,27,2022-02-12_13h21.20.321,lexical_decision_task_DD_L3,2021.2.3,Win32,60.07088364,,,,,,,,,,,0.6961,1,,,,,,,,,,,,,,m,1,0.6961,,,,,,,,0.569444466,-0.20925927,0,0,0,,0,26,26,56,1,PACKET,HB,old,m,./images/PACKETHB.png,,,,,,,,,,,,,,,,,,,,,,,,,,,,,,,,,,,
,,,,,,,,,,,,,,,,,5dfa956b247354017ef9e5a5,27,2022-02-12_13h21.20.321,lexical_decision_task_DD_L3,2021.2.3,Win32,60.07088364,,,,,,,,,,,0.5249,1,,,,,,,,,,,,,,m,1,0.5249,,,,,,,,0.569444466,-0.20925927,0,0,0,,0,27,27,4,1,MUSCLE,C,old,m,./images/MUSCLE.png,,,,,,,,,,,,,,,,,,,,,,,,,,,,,,,,,,,
,,,,,,,,,,,,,,,,,5dfa956b247354017ef9e5a5,27,2022-02-12_13h21.20.321,lexical_decision_task_DD_L3,2021.2.3,Win32,60.07088364,,,,,,,,,,,0.5824,1,,,,,,,,,,,,,,z,1,0.5824,,,,,,,,0.569444466,-0.20925927,0,0,0,,0,28,28,132,1,SCIFF,C,old,z,./images/SCIFF.png,,,,,,,,,,,,,,,,,,,,,,,,,,,,,,,,,,,
,,,,,,,,,,,,,,,,,5dfa956b247354017ef9e5a5,27,2022-02-12_13h21.20.321,lexical_decision_task_DD_L3,2021.2.3,Win32,60.07088364,,,,,,,,,,,0.9154,1,,,,,,,,,,,,,,z,1,0.9154,,,,,,,,0.569444466,-0.20925927,0,0,0,,0,29,29,164,1,SGREW,LB,old,z,./images/SGREWLB.png,,,,,,,,,,,,,,,,,,,,,,,,,,,,,,,,,,,
,,,,,,,,,,,,,,,,,5dfa956b247354017ef9e5a5,27,2022-02-12_13h21.20.321,lexical_decision_task_DD_L3,2021.2.3,Win32,60.07088364,,,,,,,,,,,0.6771,1,,,,,,,,,,,,,,z,1,0.6771,,,,,,,,0.569444466,-0.20925927,0,0,0,,0,30,30,85,1,CHULK,HB,old,z,./images/CHULKHB.png,,,,,,,,,,,,,,,,,,,,,,,,,,,,,,,,,,,
,,,,,,,,,,,,,,,,,5dfa956b247354017ef9e5a5,27,2022-02-12_13h21.20.321,lexical_decision_task_DD_L3,2021.2.3,Win32,60.07088364,,,,,,,,,,,0.5542,1,,,,,,,,,,,,,,m,1,0.5542,,,,,,,,0.569444466,-0.20925927,0,0,0,,0,31,31,82,1,SUNSET,C,old,m,./images/SUNSET.png,,,,,,,,,,,,,,,,,,,,,,,,,,,,,,,,,,,
,,,,,,,,,,,,,,,,,5dfa956b247354017ef9e5a5,27,2022-02-12_13h21.20.321,lexical_decision_task_DD_L3,2021.2.3,Win32,60.07088364,,,,,,,,,,,0.5161,1,,,,,,,,,,,,,,z,1,0.5161,,,,,,,,0.569444466,-0.20925927,0,0,0,,0,32,32,162,1,LEICH,C,old,z,./images/LEICH.png,,,,,,,,,,,,,,,,,,,,,,,,,,,,,,,,,,,
,,,,,,,,,,,,,,,,,5dfa956b247354017ef9e5a5,27,2022-02-12_13h21.20.321,lexical_decision_task_DD_L3,2021.2.3,Win32,60.07088364,,,,,,,,,,,0.7491,1,,,,,,,,,,,,,,m,1,0.7491,,,,,,,,0.569444466,-0.20925927,0,0,0,,0,33,33,72,1,NOOSE,LB,old,m,./images/NOOSELB.png,,,,,,,,,,,,,,,,,,,,,,,,,,,,,,,,,,,
,,,,,,,,,,,,,,,,,5dfa956b247354017ef9e5a5,27,2022-02-12_13h21.20.321,lexical_decision_task_DD_L3,2021.2.3,Win32,60.07088364,,,,,,,,,,,0.7858,0,,,,,,,,,,,,,,m,0,0.7858,,,,,,,,0.569444466,-0.20925927,0,0,0,,0,34,34,128,1,GRIFT,LB,old,z,./images/GRIFTLB.png,,,,,,,,,,,,,,,,,,,,,,,,,,,,,,,,,,,
,,,,,,,,,,,,,,,,,5dfa956b247354017ef9e5a5,27,2022-02-12_13h21.20.321,lexical_decision_task_DD_L3,2021.2.3,Win32,60.07088364,,,,,,,,,,,0.5289,1,,,,,,,,,,,,,,z,1,0.5289,,,,,,,,0.569444466,-0.20925927,0,0,0,,0,35,35,135,1,JOODY,C,old,z,./images/JOODY.png,,,,,,,,,,,,,,,,,,,,,,,,,,,,,,,,,,,
,,,,,,,,,,,,,,,,,5dfa956b247354017ef9e5a5,27,2022-02-12_13h21.20.321,lexical_decision_task_DD_L3,2021.2.3,Win32,60.07088364,,,,,,,,,,,0.6848,1,,,,,,,,,,,,,,m,1,0.6848,,,,,,,,0.569444466,-0.20925927,0,0,0,,0,36,36,83,1,JUNGLE,HB,old,m,./images/JUNGLEHB.png,,,,,,,,,,,,,,,,,,,,,,,,,,,,,,,,,,,
,,,,,,,,,,,,,,,,,5dfa956b247354017ef9e5a5,27,2022-02-12_13h21.20.321,lexical_decision_task_DD_L3,2021.2.3,Win32,60.07088364,,,,,,,,,,,0.5893,1,,,,,,,,,,,,,,m,1,0.5893,,,,,,,,0.569444466,-0.20925927,0,0,0,,0,37,37,34,1,CANYON,C,old,m,./images/CANYON.png,,,,,,,,,,,,,,,,,,,,,,,,,,,,,,,,,,,
,,,,,,,,,,,,,,,,,5dfa956b247354017ef9e5a5,27,2022-02-12_13h21.20.321,lexical_decision_task_DD_L3,2021.2.3,Win32,60.07088364,,,,,,,,,,,0.5836,1,,,,,,,,,,,,,,z,1,0.5836,,,,,,,,0.569444466,-0.20925927,0,0,0,,0,38,38,155,1,CANGY,LB,old,z,./images/CANGYLB.png,,,,,,,,,,,,,,,,,,,,,,,,,,,,,,,,,,,
,,,,,,,,,,,,,,,,,5dfa956b247354017ef9e5a5,27,2022-02-12_13h21.20.321,lexical_decision_task_DD_L3,2021.2.3,Win32,60.07088364,,,,,,,,,,,0.6815,1,,,,,,,,,,,,,,z,1,0.6815,,,,,,,,0.569444466,-0.20925927,0,0,0,,0,39,39,127,1,NINDY,HB,old,z,./images/NINDYHB.png,,,,,,,,,,,,,,,,,,,,,,,,,,,,,,,,,,,
,,,,,,,,,,,,,,,,,5dfa956b247354017ef9e5a5,27,2022-02-12_13h21.20.321,lexical_decision_task_DD_L3,2021.2.3,Win32,60.07088364,,,,,,,,,,,0.6271,1,,,,,,,,,,,,,,z,1,0.6271,,,,,,,,0.569444466,-0.20925927,0,0,0,,0,40,40,87,1,TRING,C,old,z,./images/TRING.png,,,,,,,,,,,,,,,,,,,,,,,,,,,,,,,,,,,
,,,,,,,,,,,,,,,,,5dfa956b247354017ef9e5a5,27,2022-02-12_13h21.20.321,lexical_decision_task_DD_L3,2021.2.3,Win32,60.07088364,,,,,,,,,,,0.4926,1,,,,,,,,,,,,,,m,1,0.4926,,,,,,,,0.569444466,-0.20925927,0,0,0,space,0,41,41,30,1,STORM,LB,old,m,./images/STORMLB.png,30.6568,,,,,,,,,,,,,,,,,,,,,,,,,,,,,,,,,,
,,,,,,,,,,,,,,,,,5dfa956b247354017ef9e5a5,27,2022-02-12_13h21.20.321,lexical_decision_task_DD_L3,2021.2.3,Win32,60.07088364,,,,,,,,,,,0.6472,1,,,,,,,,,,,,,,m,1,0.6472,,,,,,,,0.569444466,-0.20925927,0,0,0,,0,42,42,58,1,BABOON,C,old,m,./images/BABOON.png,,,,,,,,,,,,,,,,,,,,,,,,,,,,,,,,,,,
,,,,,,,,,,,,,,,,,5dfa956b247354017ef9e5a5,27,2022-02-12_13h21.20.321,lexical_decision_task_DD_L3,2021.2.3,Win32,60.07088364,,,,,,,,,,,0.9763,1,,,,,,,,,,,,,,z,1,0.9763,,,,,,,,0.569444466,-0.20925927,0,0,0,,0,43,43,91,1,SHENS,HB,old,z,./images/SHENSHB.png,,,,,,,,,,,,,,,,,,,,,,,,,,,,,,,,,,,
,,,,,,,,,,,,,,,,,5dfa956b247354017ef9e5a5,27,2022-02-12_13h21.20.321,lexical_decision_task_DD_L3,2021.2.3,Win32,60.07088364,,,,,,,,,,,0.7986,1,,,,,,,,,,,,,,m,1,0.7986,,,,,,,,0.569444466,-0.20925927,0,0,0,,0,44,44,40,1,SWING,C,old,m,./images/SWING.png,,,,,,,,,,,,,,,,,,,,,,,,,,,,,,,,,,,
,,,,,,,,,,,,,,,,,5dfa956b247354017ef9e5a5,27,2022-02-12_13h21.20.321,lexical_decision_task_DD_L3,2021.2.3,Win32,60.07088364,,,,,,,,,,,0.5125,1,,,,,,,,,,,,,,m,1,0.5125,,,,,,,,0.569444466,-0.20925927,0,0,0,,0,45,45,60,1,TWINS,LB,old,m,./images/TWINSLB.png,,,,,,,,,,,,,,,,,,,,,,,,,,,,,,,,,,,
,,,,,,,,,,,,,,,,,5dfa956b247354017ef9e5a5,27,2022-02-12_13h21.20.321,lexical_decision_task_DD_L3,2021.2.3,Win32,60.07088364,,,,,,,,,,,0.5651,1,,,,,,,,,,,,,,m,1,0.5651,,,,,,,,0.569444466,-0.20925927,0,0,0,,0,46,46,12,1,SHORE,LB,old,m,./images/SHORELB.png,,,,,,,,,,,,,,,,,,,,,,,,,,,,,,,,,,,
,,,,,,,,,,,,,,,,,5dfa956b247354017ef9e5a5,27,2022-02-12_13h21.20.321,lexical_decision_task_DD_L3,2021.2.3,Win32,60.07088364,,,,,,,,,,,0.4976,1,,,,,,,,,,,,,,m,1,0.4976,,,,,,,,0.569444466,-0.20925927,0,0,0,,0,47,47,7,1,PAINT,C,old,m,./images/PAINT.png,,,,,,,,,,,,,,,,,,,,,,,,,,,,,,,,,,,
,,,,,,,,,,,,,,,,,5dfa956b247354017ef9e5a5,27,2022-02-12_13h21.20.321,lexical_decision_task_DD_L3,2021.2.3,Win32,60.07088364,,,,,,,,,,,0.4708,1,,,,,,,,,,,,,,m,1,0.4708,,,,,,,,0.569444466,-0.20925927,0,0,0,,0,48,48,49,1,DRUMS,C,old,m,./images/DRUMS.png,,,,,,,,,,,,,,,,,,,,,,,,,,,,,,,,,,,
,,,,,,,,,,,,,,,,,5dfa956b247354017ef9e5a5,27,2022-02-12_13h21.20.321,lexical_decision_task_DD_L3,2021.2.3,Win32,60.07088364,,,,,,,,,,,0.5681,1,,,,,,,,,,,,,,z,1,0.5681,,,,,,,,0.569444466,-0.20925927,0,0,0,,0,49,49,120,1,RINED,C,old,z,./images/RINED.png,,,,,,,,,,,,,,,,,,,,,,,,,,,,,,,,,,,
,,,,,,,,,,,,,,,,,5dfa956b247354017ef9e5a5,27,2022-02-12_13h21.20.321,lexical_decision_task_DD_L3,2021.2.3,Win32,60.07088364,,,,,,,,,,,0.6135,1,,,,,,,,,,,,,,m,1,0.6135,,,,,,,,0.569444466,-0.20925927,0,0,0,,0,50,50,70,1,URINE,C,old,m,./images/URINE.png,,,,,,,,,,,,,,,,,,,,,,,,,,,,,,,,,,,
,,,,,,,,,,,,,,,,,5dfa956b247354017ef9e5a5,27,2022-02-12_13h21.20.321,lexical_decision_task_DD_L3,2021.2.3,Win32,60.07088364,,,,,,,,,,,0.6012,1,,,,,,,,,,,,,,z,1,0.6012,,,,,,,,0.569444466,-0.20925927,0,0,0,,0,51,51,136,1,WERVE,HB,old,z,./images/WERVEHB.png,,,,,,,,,,,,,,,,,,,,,,,,,,,,,,,,,,,
,,,,,,,,,,,,,,,,,5dfa956b247354017ef9e5a5,27,2022-02-12_13h21.20.321,lexical_decision_task_DD_L3,2021.2.3,Win32,60.07088364,,,,,,,,,,,0.8676,1,,,,,,,,,,,,,,m,1,0.8676,,,,,,,,0.569444466,-0.20925927,0,0,0,,0,52,52,71,1,PIMPLE,HB,old,m,./images/PIMPLEHB.png,,,,,,,,,,,,,,,,,,,,,,,,,,,,,,,,,,,
,,,,,,,,,,,,,,,,,5dfa956b247354017ef9e5a5,27,2022-02-12_13h21.20.321,lexical_decision_task_DD_L3,2021.2.3,Win32,60.07088364,,,,,,,,,,,0.6249,1,,,,,,,,,,,,,,m,1,0.6249,,,,,,,,0.569444466,-0.20925927,0,0,0,,0,53,53,46,1,PEARL,C,old,m,./images/PEARL.png,,,,,,,,,,,,,,,,,,,,,,,,,,,,,,,,,,,
,,,,,,,,,,,,,,,,,5dfa956b247354017ef9e5a5,27,2022-02-12_13h21.20.321,lexical_decision_task_DD_L3,2021.2.3,Win32,60.07088364,,,,,,,,,,,0.5222,1,,,,,,,,,,,,,,z,1,0.5222,,,,,,,,0.569444466,-0.20925927,0,0,0,,0,54,54,86,1,AIFED,LB,old,z,./images/AIFEDLB.png,,,,,,,,,,,,,,,,,,,,,,,,,,,,,,,,,,,
,,,,,,,,,,,,,,,,,5dfa956b247354017ef9e5a5,27,2022-02-12_13h21.20.321,lexical_decision_task_DD_L3,2021.2.3,Win32,60.07088364,,,,,,,,,,,0.6813,1,,,,,,,,,,,,,,z,1,0.6813,,,,,,,,0.569444466,-0.20925927,0,0,0,,0,55,55,88,1,GLUSH,HB,old,z,./images/GLUSHHB.png,,,,,,,,,,,,,,,,,,,,,,,,,,,,,,,,,,,
,,,,,,,,,,,,,,,,,5dfa956b247354017ef9e5a5,27,2022-02-12_13h21.20.321,lexical_decision_task_DD_L3,2021.2.3,Win32,60.07088364,,,,,,,,,,,0.6208,1,,,,,,,,,,,,,,z,1,0.6208,,,,,,,,0.569444466,-0.20925927,0,0,0,,0,56,56,140,1,DOVET,LB,old,z,./images/DOVETLB.png,,,,,,,,,,,,,,,,,,,,,,,,,,,,,,,,,,,
,,,,,,,,,,,,,,,,,5dfa956b247354017ef9e5a5,27,2022-02-12_13h21.20.321,lexical_decision_task_DD_L3,2021.2.3,Win32,60.07088364,,,,,,,,,,,0.5732,1,,,,,,,,,,,,,,z,1,0.5732,,,,,,,,0.569444466,-0.20925927,0,0,0,,0,57,57,161,1,BLAPS,LB,old,z,./images/BLAPSLB.png,,,,,,,,,,,,,,,,,,,,,,,,,,,,,,,,,,,
,,,,,,,,,,,,,,,,,5dfa956b247354017ef9e5a5,27,2022-02-12_13h21.20.321,lexical_decision_task_DD_L3,2021.2.3,Win32,60.07088364,,,,,,,,,,,0.9251,0,,,,,,,,,,,,,,m,0,0.9251,,,,,,,,0.569444466,-0.20925927,0,0,0,,0,58,58,142,1,PLASK,HB,old,z,./images/PLASKHB.png,,,,,,,,,,,,,,,,,,,,,,,,,,,,,,,,,,,
,,,,,,,,,,,,,,,,,5dfa956b247354017ef9e5a5,27,2022-02-12_13h21.20.321,lexical_decision_task_DD_L3,2021.2.3,Win32,60.07088364,,,,,,,,,,,0.5484,1,,,,,,,,,,,,,,m,1,0.5484,,,,,,,,0.569444466,-0.20925927,0,0,0,,0,59,59,33,1,MAGGOT,LB,old,m,./images/MAGGOTLB.png,,,,,,,,,,,,,,,,,,,,,,,,,,,,,,,,,,,
,,,,,,,,,,,,,,,,,5dfa956b247354017ef9e5a5,27,2022-02-12_13h21.20.321,lexical_decision_task_DD_L3,2021.2.3,Win32,60.07088364,,,,,,,,,,,0.5176,1,,,,,,,,,,,,,,z,1,0.5176,,,,,,,,0.569444466,-0.20925927,0,0,0,,0,60,60,129,1,PRANS,C,old,z,./images/PRANS.png,,,,,,,,,,,,,,,,,,,,,,,,,,,,,,,,,,,
,,,,,,,,,,,,,,,,,5dfa956b247354017ef9e5a5,27,2022-02-12_13h21.20.321,lexical_decision_task_DD_L3,2021.2.3,Win32,60.07088364,,,,,,,,,,,0.5497,1,,,,,,,,,,,,,,z,1,0.5497,,,,,,,,0.569444466,-0.20925927,0,0,0,,0,61,61,147,1,ZOLES,C,old,z,./images/ZOLES.png,,,,,,,,,,,,,,,,,,,,,,,,,,,,,,,,,,,
,,,,,,,,,,,,,,,,,5dfa956b247354017ef9e5a5,27,2022-02-12_13h21.20.321,lexical_decision_task_DD_L3,2021.2.3,Win32,60.07088364,,,,,,,,,,,0.7091,1,,,,,,,,,,,,,,z,1,0.7091,,,,,,,,0.569444466,-0.20925927,0,0,0,,0,62,62,117,1,STEEG,C,old,z,./images/STEEG.png,,,,,,,,,,,,,,,,,,,,,,,,,,,,,,,,,,,
,,,,,,,,,,,,,,,,,5dfa956b247354017ef9e5a5,27,2022-02-12_13h21.20.321,lexical_decision_task_DD_L3,2021.2.3,Win32,60.07088364,,,,,,,,,,,0.5566,1,,,,,,,,,,,,,,z,1,0.5566,,,,,,,,0.569444466,-0.20925927,0,0,0,,0,63,63,149,1,VEASE,LB,old,z,./images/VEASELB.png,,,,,,,,,,,,,,,,,,,,,,,,,,,,,,,,,,,
,,,,,,,,,,,,,,,,,5dfa956b247354017ef9e5a5,27,2022-02-12_13h21.20.321,lexical_decision_task_DD_L3,2021.2.3,Win32,60.07088364,,,,,,,,,,,0.5535,1,,,,,,,,,,,,,,z,1,0.5535,,,,,,,,0.569444466,-0.20925927,0,0,0,,0,64,64,122,1,BLOOT,LB,old,z,./images/BLOOTLB.png,,,,,,,,,,,,,,,,,,,,,,,,,,,,,,,,,,,
,,,,,,,,,,,,,,,,,5dfa956b247354017ef9e5a5,27,2022-02-12_13h21.20.321,lexical_decision_task_DD_L3,2021.2.3,Win32,60.07088364,,,,,,,,,,,1.4662,1,,,,,,,,,,,,,,z,1,1.4662,,,,,,,,0.569444466,-0.20925927,0,0,0,,0,65,65,130,1,CRILL,HB,old,z,./images/CRILLHB.png,,,,,,,,,,,,,,,,,,,,,,,,,,,,,,,,,,,
,,,,,,,,,,,,,,,,,5dfa956b247354017ef9e5a5,27,2022-02-12_13h21.20.321,lexical_decision_task_DD_L3,2021.2.3,Win32,60.07088364,,,,,,,,,,,0.4816,1,,,,,,,,,,,,,,m,1,0.4816,,,,,,,,0.569444466,-0.20925927,0,0,0,,0,66,66,52,1,BANNER,C,old,m,./images/BANNER.png,,,,,,,,,,,,,,,,,,,,,,,,,,,,,,,,,,,
,,,,,,,,,,,,,,,,,5dfa956b247354017ef9e5a5,27,2022-02-12_13h21.20.321,lexical_decision_task_DD_L3,2021.2.3,Win32,60.07088364,,,,,,,,,,,0.6551,1,,,,,,,,,,,,,,z,1,0.6551,,,,,,,,0.569444466,-0.20925927,0,0,0,,0,67,67,157,1,INLER,HB,old,z,./images/INLERHB.png,,,,,,,,,,,,,,,,,,,,,,,,,,,,,,,,,,,
,,,,,,,,,,,,,,,,,5dfa956b247354017ef9e5a5,27,2022-02-12_13h21.20.321,lexical_decision_task_DD_L3,2021.2.3,Win32,60.07088364,,,,,,,,,,,0.5314,1,,,,,,,,,,,,,,m,1,0.5314,,,,,,,,0.569444466,-0.20925927,0,0,0,,0,68,68,66,1,SWEAT,LB,old,m,./images/SWEATLB.png,,,,,,,,,,,,,,,,,,,,,,,,,,,,,,,,,,,
,,,,,,,,,,,,,,,,,5dfa956b247354017ef9e5a5,27,2022-02-12_13h21.20.321,lexical_decision_task_DD_L3,2021.2.3,Win32,60.07088364,,,,,,,,,,,0.6828,1,,,,,,,,,,,,,,m,1,0.6828,,,,,,,,0.569444466,-0.20925927,0,0,0,,0,69,69,42,1,FOLDER,LB,old,m,./images/FOLDERLB.png,,,,,,,,,,,,,,,,,,,,,,,,,,,,,,,,,,,
,,,,,,,,,,,,,,,,,5dfa956b247354017ef9e5a5,27,2022-02-12_13h21.20.321,lexical_decision_task_DD_L3,2021.2.3,Win32,60.07088364,,,,,,,,,,,0.5345,1,,,,,,,,,,,,,,m,1,0.5345,,,,,,,,0.569444466,-0.20925927,0,0,0,,0,70,70,21,1,KIDNEY,LB,old,m,./images/KIDNEYLB.png,,,,,,,,,,,,,,,,,,,,,,,,,,,,,,,,,,,
,,,,,,,,,,,,,,,,,5dfa956b247354017ef9e5a5,27,2022-02-12_13h21.20.321,lexical_decision_task_DD_L3,2021.2.3,Win32,60.07088364,,,,,,,,,,,0.5102,1,,,,,,,,,,,,,,m,1,0.5102,,,,,,,,0.569444466,-0.20925927,0,0,0,,0,71,71,69,1,COOKER,LB,old,m,./images/COOKERLB.png,,,,,,,,,,,,,,,,,,,,,,,,,,,,,,,,,,,
,,,,,,,,,,,,,,,,,5dfa956b247354017ef9e5a5,27,2022-02-12_13h21.20.321,lexical_decision_task_DD_L3,2021.2.3,Win32,60.07088364,,,,,,,,,,,0.5182,1,,,,,,,,,,,,,,z,1,0.5182,,,,,,,,0.569444466,-0.20925927,0,0,0,,0,72,72,165,1,TROWN,C,old,z,./images/TROWN.png,,,,,,,,,,,,,,,,,,,,,,,,,,,,,,,,,,,
,,,,,,,,,,,,,,,,,5dfa956b247354017ef9e5a5,27,2022-02-12_13h21.20.321,lexical_decision_task_DD_L3,2021.2.3,Win32,60.07088364,,,,,,,,,,,0.6417,1,,,,,,,,,,,,,,m,1,0.6417,,,,,,,,0.569444466,-0.20925927,0,0,0,,0,73,73,61,1,CANDLE,C,old,m,./images/CANDLE.png,,,,,,,,,,,,,,,,,,,,,,,,,,,,,,,,,,,
,,,,,,,,,,,,,,,,,5dfa956b247354017ef9e5a5,27,2022-02-12_13h21.20.321,lexical_decision_task_DD_L3,2021.2.3,Win32,60.07088364,,,,,,,,,,,0.5833,1,,,,,,,,,,,,,,m,1,0.5833,,,,,,,,0.569444466,-0.20925927,0,0,0,,0,74,74,63,1,MIRROR,LB,old,m,./images/MIRRORLB.png,,,,,,,,,,,,,,,,,,,,,,,,,,,,,,,,,,,
,,,,,,,,,,,,,,,,,5dfa956b247354017ef9e5a5,27,2022-02-12_13h21.20.321,lexical_decision_task_DD_L3,2021.2.3,Win32,60.07088364,,,,,,,,,,,0.5717,1,,,,,,,,,,,,,,z,1,0.5717,,,,,,,,0.569444466,-0.20925927,0,0,0,,0,75,75,110,1,CRUNK,LB,old,z,./images/CRUNKLB.png,,,,,,,,,,,,,,,,,,,,,,,,,,,,,,,,,,,
,,,,,,,,,,,,,,,,,5dfa956b247354017ef9e5a5,27,2022-02-12_13h21.20.321,lexical_decision_task_DD_L3,2021.2.3,Win32,60.07088364,,,,,,,,,,,0.7819,1,,,,,,,,,,,,,,m,1,0.7819,,,,,,,,0.569444466,-0.20925927,0,0,0,,0,76,76,53,1,CARPET,HB,old,m,./images/CARPETHB.png,,,,,,,,,,,,,,,,,,,,,,,,,,,,,,,,,,,
,,,,,,,,,,,,,,,,,5dfa956b247354017ef9e5a5,27,2022-02-12_13h21.20.321,lexical_decision_task_DD_L3,2021.2.3,Win32,60.07088364,,,,,,,,,,,0.5376,1,,,,,,,,,,,,,,m,1,0.5376,,,,,,,,0.569444466,-0.20925927,0,0,0,,0,77,77,76,1,INFANT,C,old,m,./images/INFANT.png,,,,,,,,,,,,,,,,,,,,,,,,,,,,,,,,,,,
,,,,,,,,,,,,,,,,,5dfa956b247354017ef9e5a5,27,2022-02-12_13h21.20.321,lexical_decision_task_DD_L3,2021.2.3,Win32,60.07088364,,,,,,,,,,,0.6533,1,,,,,,,,,,,,,,m,1,0.6533,,,,,,,,0.569444466,-0.20925927,0,0,0,,0,78,78,23,1,WALRUS,HB,old,m,./images/WALRUSHB.png,,,,,,,,,,,,,,,,,,,,,,,,,,,,,,,,,,,
,,,,,,,,,,,,,,,,,5dfa956b247354017ef9e5a5,27,2022-02-12_13h21.20.321,lexical_decision_task_DD_L3,2021.2.3,Win32,60.07088364,,,,,,,,,,,0.5979,1,,,,,,,,,,,,,,m,1,0.5979,,,,,,,,0.569444466,-0.20925927,0,0,0,,0,79,79,27,1,ATTIC,LB,old,m,./images/ATTICLB.png,,,,,,,,,,,,,,,,,,,,,,,,,,,,,,,,,,,
,,,,,,,,,,,,,,,,,5dfa956b247354017ef9e5a5,27,2022-02-12_13h21.20.321,lexical_decision_task_DD_L3,2021.2.3,Win32,60.07088364,,,,,,,,,,,0.5449,1,,,,,,,,,,,,,,z,1,0.5449,,,,,,,,0.569444466,-0.20925927,0,0,0,,0,80,80,105,1,MOKER,C,old,z,./images/MOKER.png,,,,,,,,,,,,,,,,,,,,,,,,,,,,,,,,,,,
,,,,,,,,,,,,,,,,,5dfa956b247354017ef9e5a5,27,2022-02-12_13h21.20.321,lexical_decision_task_DD_L3,2021.2.3,Win32,60.07088364,,,,,,,,,,,0.6216,1,,,,,,,,,,,,,,z,1,0.6216,,,,,,,,0.569444466,-0.20925927,0,0,0,,0,81,81,131,1,NACES,LB,old,z,./images/NACESLB.png,,,,,,,,,,,,,,,,,,,,,,,,,,,,,,,,,,,
,,,,,,,,,,,,,,,,,5dfa956b247354017ef9e5a5,27,2022-02-12_13h21.20.321,lexical_decision_task_DD_L3,2021.2.3,Win32,60.07088364,,,,,,,,,,,0.69,1,,,,,,,,,,,,,,m,1,0.69,,,,,,,,0.569444466,-0.20925927,0,0,0,,0,82,82,18,1,JAGUAR,LB,old,m,./images/JAGUARLB.png,,,,,,,,,,,,,,,,,,,,,,,,,,,,,,,,,,,
,,,,,,,,,,,,,,,,,5dfa956b247354017ef9e5a5,27,2022-02-12_13h21.20.321,lexical_decision_task_DD_L3,2021.2.3,Win32,60.07088364,,,,,,,,,,,0.5844,1,,,,,,,,,,,,,,m,1,0.5844,,,,,,,,0.569444466,-0.20925927,0,0,0,space,0,83,83,54,1,TRIPOD,LB,old,m,./images/TRIPODLB.png,18.8906,,,,,,,,,,,,,,,,,,,,,,,,,,,,,,,,,,
,,,,,,,,,,,,,,,,,5dfa956b247354017ef9e5a5,27,2022-02-12_13h21.20.321,lexical_decision_task_DD_L3,2021.2.3,Win32,60.07088364,,,,,,,,,,,0.6721,1,,,,,,,,,,,,,,z,1,0.6721,,,,,,,,0.569444466,-0.20925927,0,0,0,,0,84,84,89,1,DRIEK,LB,old,z,./images/DRIEKLB.png,,,,,,,,,,,,,,,,,,,,,,,,,,,,,,,,,,,
,,,,,,,,,,,,,,,,,5dfa956b247354017ef9e5a5,27,2022-02-12_13h21.20.321,lexical_decision_task_DD_L3,2021.2.3,Win32,60.07088364,,,,,,,,,,,0.6619,1,,,,,,,,,,,,,,m,1,0.6619,,,,,,,,0.569444466,-0.20925927,0,0,0,,0,85,85,20,1,CRADLE,HB,old,m,./images/CRADLEHB.png,,,,,,,,,,,,,,,,,,,,,,,,,,,,,,,,,,,
,,,,,,,,,,,,,,,,,5dfa956b247354017ef9e5a5,27,2022-02-12_13h21.20.321,lexical_decision_task_DD_L3,2021.2.3,Win32,60.07088364,,,,,,,,,,,0.5033,1,,,,,,,,,,,,,,m,1,0.5033,,,,,,,,0.569444466,-0.20925927,0,0,0,,0,86,86,39,1,SHELF,LB,old,m,./images/SHELFLB.png,,,,,,,,,,,,,,,,,,,,,,,,,,,,,,,,,,,
,,,,,,,,,,,,,,,,,5dfa956b247354017ef9e5a5,27,2022-02-12_13h21.20.321,lexical_decision_task_DD_L3,2021.2.3,Win32,60.07088364,,,,,,,,,,,0.5658,1,,,,,,,,,,,,,,m,1,0.5658,,,,,,,,0.569444466,-0.20925927,0,0,0,,0,87,87,81,1,POODLE,LB,old,m,./images/POODLELB.png,,,,,,,,,,,,,,,,,,,,,,,,,,,,,,,,,,,
,,,,,,,,,,,,,,,,,5dfa956b247354017ef9e5a5,27,2022-02-12_13h21.20.321,lexical_decision_task_DD_L3,2021.2.3,Win32,60.07088364,,,,,,,,,,,0.6471,1,,,,,,,,,,,,,,m,1,0.6471,,,,,,,,0.569444466,-0.20925927,0,0,0,,0,88,88,2,1,BEARD,HB,old,m,./images/BEARDHB.png,,,,,,,,,,,,,,,,,,,,,,,,,,,,,,,,,,,
,,,,,,,,,,,,,,,,,5dfa956b247354017ef9e5a5,27,2022-02-12_13h21.20.321,lexical_decision_task_DD_L3,2021.2.3,Win32,60.07088364,,,,,,,,,,,0.6049,1,,,,,,,,,,,,,,m,1,0.6049,,,,,,,,0.569444466,-0.20925927,0,0,0,,0,89,89,74,1,CEMENT,HB,old,m,./images/CEMENTHB.png,,,,,,,,,,,,,,,,,,,,,,,,,,,,,,,,,,,
,,,,,,,,,,,,,,,,,5dfa956b247354017ef9e5a5,27,2022-02-12_13h21.20.321,lexical_decision_task_DD_L3,2021.2.3,Win32,60.07088364,,,,,,,,,,,0.6393,1,,,,,,,,,,,,,,z,1,0.6393,,,,,,,,0.569444466,-0.20925927,0,0,0,,0,90,90,107,1,FASKS,LB,old,z,./images/FASKSLB.png,,,,,,,,,,,,,,,,,,,,,,,,,,,,,,,,,,,
,,,,,,,,,,,,,,,,,5dfa956b247354017ef9e5a5,27,2022-02-12_13h21.20.321,lexical_decision_task_DD_L3,2021.2.3,Win32,60.07088364,,,,,,,,,,,0.652,1,,,,,,,,,,,,,,z,1,0.652,,,,,,,,0.569444466,-0.20925927,0,0,0,,0,91,91,115,1,MAWNS,HB,old,z,./images/MAWNSHB.png,,,,,,,,,,,,,,,,,,,,,,,,,,,,,,,,,,,
,,,,,,,,,,,,,,,,,5dfa956b247354017ef9e5a5,27,2022-02-12_13h21.20.321,lexical_decision_task_DD_L3,2021.2.3,Win32,60.07088364,,,,,,,,,,,1.0653,1,,,,,,,,,,,,,,z,1,1.0653,,,,,,,,0.569444466,-0.20925927,0,0,0,,0,92,92,92,1,PAIMS,LB,old,z,./images/PAIMSLB.png,,,,,,,,,,,,,,,,,,,,,,,,,,,,,,,,,,,
,,,,,,,,,,,,,,,,,5dfa956b247354017ef9e5a5,27,2022-02-12_13h21.20.321,lexical_decision_task_DD_L3,2021.2.3,Win32,60.07088364,,,,,,,,,,,0.9115,1,,,,,,,,,,,,,,z,1,0.9115,,,,,,,,0.569444466,-0.20925927,0,0,0,,0,93,93,109,1,BURGE,HB,old,z,./images/BURGEHB.png,,,,,,,,,,,,,,,,,,,,,,,,,,,,,,,,,,,
,,,,,,,,,,,,,,,,,5dfa956b247354017ef9e5a5,27,2022-02-12_13h21.20.321,lexical_decision_task_DD_L3,2021.2.3,Win32,60.07088364,,,,,,,,,,,0.733,1,,,,,,,,,,,,,,m,1,0.733,,,,,,,,0.569444466,-0.20925927,0,0,0,,0,94,94,50,1,MALLET,HB,old,m,./images/MALLETHB.png,,,,,,,,,,,,,,,,,,,,,,,,,,,,,,,,,,,
,,,,,,,,,,,,,,,,,5dfa956b247354017ef9e5a5,27,2022-02-12_13h21.20.321,lexical_decision_task_DD_L3,2021.2.3,Win32,60.07088364,,,,,,,,,,,0.553,1,,,,,,,,,,,,,,m,1,0.553,,,,,,,,0.569444466,-0.20925927,0,0,0,,0,95,95,75,1,GRAIN,LB,old,m,./images/GRAINLB.png,,,,,,,,,,,,,,,,,,,,,,,,,,,,,,,,,,,
,,,,,,,,,,,,,,,,,5dfa956b247354017ef9e5a5,27,2022-02-12_13h21.20.321,lexical_decision_task_DD_L3,2021.2.3,Win32,60.07088364,,,,,,,,,,,0.4852,1,,,,,,,,,,,,,,m,1,0.4852,,,,,,,,0.569444466,-0.20925927,0,0,0,,0,96,96,64,1,JELLY,C,old,m,./images/JELLY.png,,,,,,,,,,,,,,,,,,,,,,,,,,,,,,,,,,,
,,,,,,,,,,,,,,,,,5dfa956b247354017ef9e5a5,27,2022-02-12_13h21.20.321,lexical_decision_task_DD_L3,2021.2.3,Win32,60.07088364,,,,,,,,,,,0.5842,1,,,,,,,,,,,,,,m,1,0.5842,,,,,,,,0.569444466,-0.20925927,0,0,0,,0,97,97,11,1,BONNET,HB,old,m,./images/BONNETHB.png,,,,,,,,,,,,,,,,,,,,,,,,,,,,,,,,,,,
,,,,,,,,,,,,,,,,,5dfa956b247354017ef9e5a5,27,2022-02-12_13h21.20.321,lexical_decision_task_DD_L3,2021.2.3,Win32,60.07088364,,,,,,,,,,,1.0003,0,,,,,,,,,,,,,,z,0,1.0003,,,,,,,,0.569444466,-0.20925927,0,0,0,,0,98,98,16,1,PENCE,C,old,m,./images/PENCE.png,,,,,,,,,,,,,,,,,,,,,,,,,,,,,,,,,,,
,,,,,,,,,,,,,,,,,5dfa956b247354017ef9e5a5,27,2022-02-12_13h21.20.321,lexical_decision_task_DD_L3,2021.2.3,Win32,60.07088364,,,,,,,,,,,1.086,1,,,,,,,,,,,,,,m,1,1.086,,,,,,,,0.569444466,-0.20925927,0,0,0,,0,99,99,38,1,LADDER,HB,old,m,./images/LADDERHB.png,,,,,,,,,,,,,,,,,,,,,,,,,,,,,,,,,,,
,,,,,,,,,,,,,,,,,5dfa956b247354017ef9e5a5,27,2022-02-12_13h21.20.321,lexical_decision_task_DD_L3,2021.2.3,Win32,60.07088364,,,,,,,,,,,0.6129,1,,,,,,,,,,,,,,z,1,0.6129,,,,,,,,0.569444466,-0.20925927,0,0,0,,0,100,100,137,1,JOOST,LB,old,z,./images/JOOSTLB.png,,,,,,,,,,,,,,,,,,,,,,,,,,,,,,,,,,,
,,,,,,,,,,,,,,,,,5dfa956b247354017ef9e5a5,27,2022-02-12_13h21.20.321,lexical_decision_task_DD_L3,2021.2.3,Win32,60.07088364,,,,,,,,,,,0.7452,1,,,,,,,,,,,,,,m,1,0.7452,,,,,,,,0.569444466,-0.20925927,0,0,0,,0,101,101,5,1,PASTA,HB,old,m,./images/PASTAHB.png,,,,,,,,,,,,,,,,,,,,,,,,,,,,,,,,,,,
,,,,,,,,,,,,,,,,,5dfa956b247354017ef9e5a5,27,2022-02-12_13h21.20.321,lexical_decision_task_DD_L3,2021.2.3,Win32,60.07088364,,,,,,,,,,,0.7027,1,,,,,,,,,,,,,,m,1,0.7027,,,,,,,,0.569444466,-0.20925927,0,0,0,,0,102,102,45,1,KITTEN,LB,old,m,./images/KITTENLB.png,,,,,,,,,,,,,,,,,,,,,,,,,,,,,,,,,,,
,,,,,,,,,,,,,,,,,5dfa956b247354017ef9e5a5,27,2022-02-12_13h21.20.321,lexical_decision_task_DD_L3,2021.2.3,Win32,60.07088364,,,,,,,,,,,0.8154,1,,,,,,,,,,,,,,z,1,0.8154,,,,,,,,0.569444466,-0.20925927,0,0,0,,0,103,103,106,1,CLUMS,HB,old,z,./images/CLUMSHB.png,,,,,,,,,,,,,,,,,,,,,,,,,,,,,,,,,,,
,,,,,,,,,,,,,,,,,5dfa956b247354017ef9e5a5,27,2022-02-12_13h21.20.321,lexical_decision_task_DD_L3,2021.2.3,Win32,60.07088364,,,,,,,,,,,0.8364,1,,,,,,,,,,,,,,m,1,0.8364,,,,,,,,0.569444466,-0.20925927,0,0,0,,0,104,104,29,1,CRUMB,HB,old,m,./images/CRUMBHB.png,,,,,,,,,,,,,,,,,,,,,,,,,,,,,,,,,,,
,,,,,,,,,,,,,,,,,5dfa956b247354017ef9e5a5,27,2022-02-12_13h21.20.321,lexical_decision_task_DD_L3,2021.2.3,Win32,60.07088364,,,,,,,,,,,0.8227,1,,,,,,,,,,,,,,m,1,0.8227,,,,,,,,0.569444466,-0.20925927,0,0,0,,0,105,105,37,1,BIRTH,C,old,m,./images/BIRTH.png,,,,,,,,,,,,,,,,,,,,,,,,,,,,,,,,,,,
,,,,,,,,,,,,,,,,,5dfa956b247354017ef9e5a5,27,2022-02-12_13h21.20.321,lexical_decision_task_DD_L3,2021.2.3,Win32,60.07088364,,,,,,,,,,,1.502,1,,,,,,,,,,,,,,z,1,1.502,,,,,,,,0.569444466,-0.20925927,0,0,0,,0,106,106,133,1,POWDY,HB,old,z,./images/POWDYHB.png,,,,,,,,,,,,,,,,,,,,,,,,,,,,,,,,,,,
,,,,,,,,,,,,,,,,,5dfa956b247354017ef9e5a5,27,2022-02-12_13h21.20.321,lexical_decision_task_DD_L3,2021.2.3,Win32,60.07088364,,,,,,,,,,,0.6664,1,,,,,,,,,,,,,,z,1,0.6664,,,,,,,,0.569444466,-0.20925927,0,0,0,,0,107,107,148,1,JOMS,HB,old,z,./images/JOMSHB.png,,,,,,,,,,,,,,,,,,,,,,,,,,,,,,,,,,,
,,,,,,,,,,,,,,,,,5dfa956b247354017ef9e5a5,27,2022-02-12_13h21.20.321,lexical_decision_task_DD_L3,2021.2.3,Win32,60.07088364,,,,,,,,,,,1.1251,1,,,,,,,,,,,,,,z,1,1.1251,,,,,,,,0.569444466,-0.20925927,0,0,0,,0,108,108,158,1,EGECT,LB,old,z,./images/EGECTLB.png,,,,,,,,,,,,,,,,,,,,,,,,,,,,,,,,,,,
,,,,,,,,,,,,,,,,,5dfa956b247354017ef9e5a5,27,2022-02-12_13h21.20.321,lexical_decision_task_DD_L3,2021.2.3,Win32,60.07088364,,,,,,,,,,,0.9607,1,,,,,,,,,,,,,,z,1,0.9607,,,,,,,,0.569444466,-0.20925927,0,0,0,,0,109,109,146,1,MOOST,LB,old,z,./images/MOOSTLB.png,,,,,,,,,,,,,,,,,,,,,,,,,,,,,,,,,,,
,,,,,,,,,,,,,,,,,5dfa956b247354017ef9e5a5,27,2022-02-12_13h21.20.321,lexical_decision_task_DD_L3,2021.2.3,Win32,60.07088364,,,,,,,,,,,0.618,1,,,,,,,,,,,,,,m,1,0.618,,,,,,,,0.569444466,-0.20925927,0,0,0,,0,110,110,19,1,DOUGH,C,old,m,./images/DOUGH.png,,,,,,,,,,,,,,,,,,,,,,,,,,,,,,,,,,,
,,,,,,,,,,,,,,,,,5dfa956b247354017ef9e5a5,27,2022-02-12_13h21.20.321,lexical_decision_task_DD_L3,2021.2.3,Win32,60.07088364,,,,,,,,,,,0.583,1,,,,,,,,,,,,,,m,1,0.583,,,,,,,,0.569444466,-0.20925927,0,0,0,,0,111,111,32,1,BARREL,HB,old,m,./images/BARRELHB.png,,,,,,,,,,,,,,,,,,,,,,,,,,,,,,,,,,,
,,,,,,,,,,,,,,,,,5dfa956b247354017ef9e5a5,27,2022-02-12_13h21.20.321,lexical_decision_task_DD_L3,2021.2.3,Win32,60.07088364,,,,,,,,,,,0.6518,1,,,,,,,,,,,,,,z,1,0.6518,,,,,,,,0.569444466,-0.20925927,0,0,0,,0,112,112,125,1,MOOKY,LB,old,z,./images/MOOKYLB.png,,,,,,,,,,,,,,,,,,,,,,,,,,,,,,,,,,,
,,,,,,,,,,,,,,,,,5dfa956b247354017ef9e5a5,27,2022-02-12_13h21.20.321,lexical_decision_task_DD_L3,2021.2.3,Win32,60.07088364,,,,,,,,,,,0.5431,1,,,,,,,,,,,,,,z,1,0.5431,,,,,,,,0.569444466,-0.20925927,0,0,0,,0,113,113,95,1,HANTY,LB,old,z,./images/HANTYLB.png,,,,,,,,,,,,,,,,,,,,,,,,,,,,,,,,,,,
,,,,,,,,,,,,,,,,,5dfa956b247354017ef9e5a5,27,2022-02-12_13h21.20.321,lexical_decision_task_DD_L3,2021.2.3,Win32,60.07088364,,,,,,,,,,,0.5476,1,,,,,,,,,,,,,,m,1,0.5476,,,,,,,,0.569444466,-0.20925927,0,0,0,,0,114,114,10,1,BELLY,C,old,m,./images/BELLY.png,,,,,,,,,,,,,,,,,,,,,,,,,,,,,,,,,,,
,,,,,,,,,,,,,,,,,5dfa956b247354017ef9e5a5,27,2022-02-12_13h21.20.321,lexical_decision_task_DD_L3,2021.2.3,Win32,60.07088364,,,,,,,,,,,0.9296,1,,,,,,,,,,,,,,z,1,0.9296,,,,,,,,0.569444466,-0.20925927,0,0,0,,0,115,115,112,1,MYING,HB,old,z,./images/MYINGHB.png,,,,,,,,,,,,,,,,,,,,,,,,,,,,,,,,,,,
,,,,,,,,,,,,,,,,,5dfa956b247354017ef9e5a5,27,2022-02-12_13h21.20.321,lexical_decision_task_DD_L3,2021.2.3,Win32,60.07088364,,,,,,,,,,,0.7636,1,,,,,,,,,,,,,,z,1,0.7636,,,,,,,,0.569444466,-0.20925927,0,0,0,,0,116,116,163,1,GAMBA,HB,old,z,./images/GAMBAHB.png,,,,,,,,,,,,,,,,,,,,,,,,,,,,,,,,,,,
,,,,,,,,,,,,,,,,,5dfa956b247354017ef9e5a5,27,2022-02-12_13h21.20.321,lexical_decision_task_DD_L3,2021.2.3,Win32,60.07088364,,,,,,,,,,,0.5653,1,,,,,,,,,,,,,,m,1,0.5653,,,,,,,,0.569444466,-0.20925927,0,0,0,,0,117,117,22,1,MELON,C,old,m,./images/MELON.png,,,,,,,,,,,,,,,,,,,,,,,,,,,,,,,,,,,
,,,,,,,,,,,,,,,,,5dfa956b247354017ef9e5a5,27,2022-02-12_13h21.20.321,lexical_decision_task_DD_L3,2021.2.3,Win32,60.07088364,,,,,,,,,,,0.5564,1,,,,,,,,,,,,,,m,1,0.5564,,,,,,,,0.569444466,-0.20925927,0,0,0,,0,118,118,78,1,LITTER,LB,old,m,./images/LITTERLB.png,,,,,,,,,,,,,,,,,,,,,,,,,,,,,,,,,,,
,,,,,,,,,,,,,,,,,5dfa956b247354017ef9e5a5,27,2022-02-12_13h21.20.321,lexical_decision_task_DD_L3,2021.2.3,Win32,60.07088364,,,,,,,,,,,0.6987,1,,,,,,,,,,,,,,z,1,0.6987,,,,,,,,0.569444466,-0.20925927,0,0,0,,0,119,119,119,1,PAFER,LB,old,z,./images/PAFERLB.png,,,,,,,,,,,,,,,,,,,,,,,,,,,,,,,,,,,
,,,,,,,,,,,,,,,,,5dfa956b247354017ef9e5a5,27,2022-02-12_13h21.20.321,lexical_decision_task_DD_L3,2021.2.3,Win32,60.07088364,,,,,,,,,,,0.5653,1,,,,,,,,,,,,,,m,1,0.5653,,,,,,,,0.569444466,-0.20925927,0,0,0,,0,120,120,67,1,SAILOR,C,old,m,./images/SAILOR.png,,,,,,,,,,,,,,,,,,,,,,,,,,,,,,,,,,,
,,,,,,,,,,,,,,,,,5dfa956b247354017ef9e5a5,27,2022-02-12_13h21.20.321,lexical_decision_task_DD_L3,2021.2.3,Win32,60.07088364,,,,,,,,,,,0.7921,1,,,,,,,,,,,,,,m,1,0.7921,,,,,,,,0.569444466,-0.20925927,0,0,0,,0,121,121,59,1,BURIAL,HB,old,m,./images/BURIALHB.png,,,,,,,,,,,,,,,,,,,,,,,,,,,,,,,,,,,
,,,,,,,,,,,,,,,,,5dfa956b247354017ef9e5a5,27,2022-02-12_13h21.20.321,lexical_decision_task_DD_L3,2021.2.3,Win32,60.07088364,,,,,,,,,,,0.5592,1,,,,,,,,,,,,,,z,1,0.5592,,,,,,,,0.569444466,-0.20925927,0,0,0,,0,122,122,101,1,GLEET,LB,old,z,./images/GLEETLB.png,,,,,,,,,,,,,,,,,,,,,,,,,,,,,,,,,,,
,,,,,,,,,,,,,,,,,5dfa956b247354017ef9e5a5,27,2022-02-12_13h21.20.321,lexical_decision_task_DD_L3,2021.2.3,Win32,60.07088364,,,,,,,,,,,0.492,1,,,,,,,,,,,,,,m,1,0.492,,,,,,,,0.569444466,-0.20925927,0,0,0,,0,123,123,79,1,CRUST,C,old,m,./images/CRUST.png,,,,,,,,,,,,,,,,,,,,,,,,,,,,,,,,,,,
,,,,,,,,,,,,,,,,,5dfa956b247354017ef9e5a5,27,2022-02-12_13h21.20.321,lexical_decision_task_DD_L3,2021.2.3,Win32,60.07088364,,,,,,,,,,,0.6248,1,,,,,,,,,,,,,,z,1,0.6248,,,,,,,,0.569444466,-0.20925927,0,0,0,,0,124,124,116,1,BALGY,LB,old,z,./images/BALGYLB.png,,,,,,,,,,,,,,,,,,,,,,,,,,,,,,,,,,,
,,,,,,,,,,,,,,,,,5dfa956b247354017ef9e5a5,27,2022-02-12_13h21.20.321,lexical_decision_task_DD_L3,2021.2.3,Win32,60.07088364,,,,,,,,,,,0.6222,1,,,,,,,,,,,,,,z,1,0.6222,,,,,,,,0.569444466,-0.20925927,0,0,0,space,0,125,125,98,1,BAMPS,LB,old,z,./images/BAMPSLB.png,1.4553,,,,,,,,,,,,,,,,,,,,,,,,,,,,,,,,,,
,,,,,,,,,,,,,,,,,5dfa956b247354017ef9e5a5,27,2022-02-12_13h21.20.321,lexical_decision_task_DD_L3,2021.2.3,Win32,60.07088364,,,,,,,,,,,0.645,1,,,,,,,,,,,,,,z,1,0.645,,,,,,,,0.569444466,-0.20925927,0,0,0,,0,126,126,102,1,DULLE,C,old,z,./images/DULLE.png,,,,,,,,,,,,,,,,,,,,,,,,,,,,,,,,,,,
,,,,,,,,,,,,,,,,,5dfa956b247354017ef9e5a5,27,2022-02-12_13h21.20.321,lexical_decision_task_DD_L3,2021.2.3,Win32,60.07088364,,,,,,,,,,,0.7825,0,,,,,,,,,,,,,,z,0,0.7825,,,,,,,,0.569444466,-0.20925927,0,0,0,,0,127,127,65,1,FARMER,HB,old,m,./images/FARMERHB.png,,,,,,,,,,,,,,,,,,,,,,,,,,,,,,,,,,,
,,,,,,,,,,,,,,,,,5dfa956b247354017ef9e5a5,27,2022-02-12_13h21.20.321,lexical_decision_task_DD_L3,2021.2.3,Win32,60.07088364,,,,,,,,,,,1.3105,1,,,,,,,,,,,,,,z,1,1.3105,,,,,,,,0.569444466,-0.20925927,0,0,0,,0,128,128,156,1,HIXES,C,old,z,./images/HIXES.png,,,,,,,,,,,,,,,,,,,,,,,,,,,,,,,,,,,
,,,,,,,,,,,,,,,,,5dfa956b247354017ef9e5a5,27,2022-02-12_13h21.20.321,lexical_decision_task_DD_L3,2021.2.3,Win32,60.07088364,,,,,,,,,,,0.5994,1,,,,,,,,,,,,,,z,1,0.5994,,,,,,,,0.569444466,-0.20925927,0,0,0,,0,129,129,113,1,LINEW,LB,old,z,./images/LINEWLB.png,,,,,,,,,,,,,,,,,,,,,,,,,,,,,,,,,,,
,,,,,,,,,,,,,,,,,5dfa956b247354017ef9e5a5,27,2022-02-12_13h21.20.321,lexical_decision_task_DD_L3,2021.2.3,Win32,60.07088364,,,,,,,,,,,0.6532,0,,,,,,,,,,,,,,z,0,0.6532,,,,,,,,0.569444466,-0.20925927,0,0,0,,0,130,130,44,1,LIZARD,HB,old,m,./images/LIZARDHB.png,,,,,,,,,,,,,,,,,,,,,,,,,,,,,,,,,,,
,,,,,,,,,,,,,,,,,5dfa956b247354017ef9e5a5,27,2022-02-12_13h21.20.321,lexical_decision_task_DD_L3,2021.2.3,Win32,60.07088364,,,,,,,,,,,0.5516,1,,,,,,,,,,,,,,z,1,0.5516,,,,,,,,0.569444466,-0.20925927,0,0,0,,0,131,131,143,1,MONGS,LB,old,z,./images/MONGSLB.png,,,,,,,,,,,,,,,,,,,,,,,,,,,,,,,,,,,
,,,,,,,,,,,,,,,,,5dfa956b247354017ef9e5a5,27,2022-02-12_13h21.20.321,lexical_decision_task_DD_L3,2021.2.3,Win32,60.07088364,,,,,,,,,,,0.8,1,,,,,,,,,,,,,,m,1,0.8,,,,,,,,0.569444466,-0.20925927,0,0,0,,0,132,132,35,1,PEACH,HB,old,m,./images/PEACHHB.png,,,,,,,,,,,,,,,,,,,,,,,,,,,,,,,,,,,
,,,,,,,,,,,,,,,,,5dfa956b247354017ef9e5a5,27,2022-02-12_13h21.20.321,lexical_decision_task_DD_L3,2021.2.3,Win32,60.07088364,,,,,,,,,,,0.5631,1,,,,,,,,,,,,,,m,1,0.5631,,,,,,,,0.569444466,-0.20925927,0,0,0,,0,133,133,13,1,MOTOR,C,old,m,./images/MOTOR.png,,,,,,,,,,,,,,,,,,,,,,,,,,,,,,,,,,,
,,,,,,,,,,,,,,,,,5dfa956b247354017ef9e5a5,27,2022-02-12_13h21.20.321,lexical_decision_task_DD_L3,2021.2.3,Win32,60.07088364,,,,,,,,,,,0.4996,1,,,,,,,,,,,,,,m,1,0.4996,,,,,,,,0.569444466,-0.20925927,0,0,0,,0,134,134,9,1,RHINO,LB,old,m,./images/RHINOLB.png,,,,,,,,,,,,,,,,,,,,,,,,,,,,,,,,,,,
,,,,,,,,,,,,,,,,,5dfa956b247354017ef9e5a5,27,2022-02-12_13h21.20.321,lexical_decision_task_DD_L3,2021.2.3,Win32,60.07088364,,,,,,,,,,,1.0515,1,,,,,,,,,,,,,,z,1,1.0515,,,,,,,,0.569444466,-0.20925927,0,0,0,,0,135,135,123,1,SEDGE,C,old,z,./images/SEDGE.png,,,,,,,,,,,,,,,,,,,,,,,,,,,,,,,,,,,
,,,,,,,,,,,,,,,,,5dfa956b247354017ef9e5a5,27,2022-02-12_13h21.20.321,lexical_decision_task_DD_L3,2021.2.3,Win32,60.07088364,,,,,,,,,,,0.9399,1,,,,,,,,,,,,,,z,1,0.9399,,,,,,,,0.569444466,-0.20925927,0,0,0,,0,136,136,100,1,DRIBS,HB,old,z,./images/DRIBSHB.png,,,,,,,,,,,,,,,,,,,,,,,,,,,,,,,,,,,
,,,,,,,,,,,,,,,,,5dfa956b247354017ef9e5a5,27,2022-02-12_13h21.20.321,lexical_decision_task_DD_L3,2021.2.3,Win32,60.07088364,,,,,,,,,,,0.6299,1,,,,,,,,,,,,,,z,1,0.6299,,,,,,,,0.569444466,-0.20925927,0,0,0,,0,137,137,114,1,RIKES,C,old,z,./images/RIKES.png,,,,,,,,,,,,,,,,,,,,,,,,,,,,,,,,,,,
,,,,,,,,,,,,,,,,,5dfa956b247354017ef9e5a5,27,2022-02-12_13h21.20.321,lexical_decision_task_DD_L3,2021.2.3,Win32,60.07088364,,,,,,,,,,,0.5532,1,,,,,,,,,,,,,,m,1,0.5532,,,,,,,,0.569444466,-0.20925927,0,0,0,,0,138,138,41,1,STRING,HB,old,m,./images/STRINGHB.png,,,,,,,,,,,,,,,,,,,,,,,,,,,,,,,,,,,
,,,,,,,,,,,,,,,,,5dfa956b247354017ef9e5a5,27,2022-02-12_13h21.20.321,lexical_decision_task_DD_L3,2021.2.3,Win32,60.07088364,,,,,,,,,,,0.5554,1,,,,,,,,,,,,,,m,1,0.5554,,,,,,,,0.569444466,-0.20925927,0,0,0,,0,139,139,14,1,PICKLE,HB,old,m,./images/PICKLEHB.png,,,,,,,,,,,,,,,,,,,,,,,,,,,,,,,,,,,
,,,,,,,,,,,,,,,,,5dfa956b247354017ef9e5a5,27,2022-02-12_13h21.20.321,lexical_decision_task_DD_L3,2021.2.3,Win32,60.07088364,,,,,,,,,,,0.5161,1,,,,,,,,,,,,,,z,1,0.5161,,,,,,,,0.569444466,-0.20925927,0,0,0,,0,140,140,96,1,KEAMS,C,old,z,./images/KEAMS.png,,,,,,,,,,,,,,,,,,,,,,,,,,,,,,,,,,,
,,,,,,,,,,,,,,,,,5dfa956b247354017ef9e5a5,27,2022-02-12_13h21.20.321,lexical_decision_task_DD_L3,2021.2.3,Win32,60.07088364,,,,,,,,,,,0.6234,1,,,,,,,,,,,,,,z,1,0.6234,,,,,,,,0.569444466,-0.20925927,0,0,0,,0,141,141,134,1,TROSS,LB,old,z,./images/TROSSLB.png,,,,,,,,,,,,,,,,,,,,,,,,,,,,,,,,,,,
,,,,,,,,,,,,,,,,,5dfa956b247354017ef9e5a5,27,2022-02-12_13h21.20.321,lexical_decision_task_DD_L3,2021.2.3,Win32,60.07088364,,,,,,,,,,,0.6121,1,,,,,,,,,,,,,,m,1,0.6121,,,,,,,,0.569444466,-0.20925927,0,0,0,,0,142,142,48,1,SPORT,LB,old,m,./images/SPORTLB.png,,,,,,,,,,,,,,,,,,,,,,,,,,,,,,,,,,,
,,,,,,,,,,,,,,,,,5dfa956b247354017ef9e5a5,27,2022-02-12_13h21.20.321,lexical_decision_task_DD_L3,2021.2.3,Win32,60.07088364,,,,,,,,,,,0.5719,1,,,,,,,,,,,,,,m,1,0.5719,,,,,,,,0.569444466,-0.20925927,0,0,0,,0,143,143,55,1,MUFFIN,C,old,m,./images/MUFFIN.png,,,,,,,,,,,,,,,,,,,,,,,,,,,,,,,,,,,
,,,,,,,,,,,,,,,,,5dfa956b247354017ef9e5a5,27,2022-02-12_13h21.20.321,lexical_decision_task_DD_L3,2021.2.3,Win32,60.07088364,,,,,,,,,,,0.6907,1,,,,,,,,,,,,,,m,1,0.6907,,,,,,,,0.569444466,-0.20925927,0,0,0,,0,144,144,25,1,WRIST,C,old,m,./images/WRIST.png,,,,,,,,,,,,,,,,,,,,,,,,,,,,,,,,,,,
,,,,,,,,,,,,,,,,,5dfa956b247354017ef9e5a5,27,2022-02-12_13h21.20.321,lexical_decision_task_DD_L3,2021.2.3,Win32,60.07088364,,,,,,,,,,,0.5939,1,,,,,,,,,,,,,,z,1,0.5939,,,,,,,,0.569444466,-0.20925927,0,0,0,,0,145,145,144,1,NAIRY,C,old,z,./images/NAIRY.png,,,,,,,,,,,,,,,,,,,,,,,,,,,,,,,,,,,
,,,,,,,,,,,,,,,,,5dfa956b247354017ef9e5a5,27,2022-02-12_13h21.20.321,lexical_decision_task_DD_L3,2021.2.3,Win32,60.07088364,,,,,,,,,,,0.9158,1,,,,,,,,,,,,,,z,1,0.9158,,,,,,,,0.569444466,-0.20925927,0,0,0,,0,146,146,124,1,TUNCH,HB,old,z,./images/TUNCHHB.png,,,,,,,,,,,,,,,,,,,,,,,,,,,,,,,,,,,
,,,,,,,,,,,,,,,,,5dfa956b247354017ef9e5a5,27,2022-02-12_13h21.20.321,lexical_decision_task_DD_L3,2021.2.3,Win32,60.07088364,,,,,,,,,,,0.5658,1,,,,,,,,,,,,,,m,1,0.5658,,,,,,,,0.569444466,-0.20925927,0,0,0,,0,147,147,1,1,PLANK,C,old,m,./images/PLANK.png,,,,,,,,,,,,,,,,,,,,,,,,,,,,,,,,,,,
,,,,,,,,,,,,,,,,,5dfa956b247354017ef9e5a5,27,2022-02-12_13h21.20.321,lexical_decision_task_DD_L3,2021.2.3,Win32,60.07088364,,,,,,,,,,,0.5716,1,,,,,,,,,,,,,,z,1,0.5716,,,,,,,,0.569444466,-0.20925927,0,0,0,,0,148,148,108,1,GRUET,C,old,z,./images/GRUET.png,,,,,,,,,,,,,,,,,,,,,,,,,,,,,,,,,,,
,,,,,,,,,,,,,,,,,5dfa956b247354017ef9e5a5,27,2022-02-12_13h21.20.321,lexical_decision_task_DD_L3,2021.2.3,Win32,60.07088364,,,,,,,,,,,0.5362,1,,,,,,,,,,,,,,m,1,0.5362,,,,,,,,0.569444466,-0.20925927,0,0,0,,0,149,149,43,1,MOSQUE,C,old,m,./images/MOSQUE.png,,,,,,,,,,,,,,,,,,,,,,,,,,,,,,,,,,,
,,,,,,,,,,,,,,,,,5dfa956b247354017ef9e5a5,27,2022-02-12_13h21.20.321,lexical_decision_task_DD_L3,2021.2.3,Win32,60.07088364,,,,,,,,,,,0.663,1,,,,,,,,,,,,,,z,1,0.663,,,,,,,,0.569444466,-0.20925927,0,0,0,,0,150,150,121,1,CEERS,HB,old,z,./images/CEERSHB.png,,,,,,,,,,,,,,,,,,,,,,,,,,,,,,,,,,,
,,,,,,,,,,,,,,,,,5dfa956b247354017ef9e5a5,27,2022-02-12_13h21.20.321,lexical_decision_task_DD_L3,2021.2.3,Win32,60.07088364,,,,,,,,,,,0.6292,1,,,,,,,,,,,,,,z,1,0.6292,,,,,,,,0.569444466,-0.20925927,0,0,0,,0,151,151,159,1,CUDDY,C,old,z,./images/CUDDY.png,,,,,,,,,,,,,,,,,,,,,,,,,,,,,,,,,,,
,,,,,,,,,,,,,,,,,5dfa956b247354017ef9e5a5,27,2022-02-12_13h21.20.321,lexical_decision_task_DD_L3,2021.2.3,Win32,60.07088364,,,,,,,,,,,0.6783,1,,,,,,,,,,,,,,m,1,0.6783,,,,,,,,0.569444466,-0.20925927,0,0,0,,0,152,152,57,1,MOOSE,LB,old,m,./images/MOOSELB.png,,,,,,,,,,,,,,,,,,,,,,,,,,,,,,,,,,,
,,,,,,,,,,,,,,,,,5dfa956b247354017ef9e5a5,27,2022-02-12_13h21.20.321,lexical_decision_task_DD_L3,2021.2.3,Win32,60.07088364,,,,,,,,,,,0.6141,1,,,,,,,,,,,,,,z,1,0.6141,,,,,,,,0.569444466,-0.20925927,0,0,0,,0,153,153,139,1,BLEAR,HB,old,z,./images/BLEARHB.png,,,,,,,,,,,,,,,,,,,,,,,,,,,,,,,,,,,
,,,,,,,,,,,,,,,,,5dfa956b247354017ef9e5a5,27,2022-02-12_13h21.20.321,lexical_decision_task_DD_L3,2021.2.3,Win32,60.07088364,,,,,,,,,,,0.4784,1,,,,,,,,,,,,,,m,1,0.4784,,,,,,,,0.569444466,-0.20925927,0,0,0,,0,154,154,28,1,FALCON,C,old,m,./images/FALCON.png,,,,,,,,,,,,,,,,,,,,,,,,,,,,,,,,,,,
,,,,,,,,,,,,,,,,,5dfa956b247354017ef9e5a5,27,2022-02-12_13h21.20.321,lexical_decision_task_DD_L3,2021.2.3,Win32,60.07088364,,,,,,,,,,,0.9672,1,,,,,,,,,,,,,,m,1,0.9672,,,,,,,,0.569444466,-0.20925927,0,0,0,,0,155,155,17,1,SKIING,HB,old,m,./images/SKIINGHB.png,,,,,,,,,,,,,,,,,,,,,,,,,,,,,,,,,,,
,,,,,,,,,,,,,,,,,5dfa956b247354017ef9e5a5,27,2022-02-12_13h21.20.321,lexical_decision_task_DD_L3,2021.2.3,Win32,60.07088364,,,,,,,,,,,0.7487,1,,,,,,,,,,,,,,z,1,0.7487,,,,,,,,0.569444466,-0.20925927,0,0,0,,0,156,156,84,1,HAXES,C,old,z,./images/HAXES.png,,,,,,,,,,,,,,,,,,,,,,,,,,,,,,,,,,,
,,,,,,,,,,,,,,,,,5dfa956b247354017ef9e5a5,27,2022-02-12_13h21.20.321,lexical_decision_task_DD_L3,2021.2.3,Win32,60.07088364,,,,,,,,,,,0.8818,1,,,,,,,,,,,,,,z,1,0.8818,,,,,,,,0.569444466,-0.20925927,0,0,0,,0,157,157,145,1,LAMEL,HB,old,z,./images/LAMELHB.png,,,,,,,,,,,,,,,,,,,,,,,,,,,,,,,,,,,
,,,,,,,,,,,,,,,,,5dfa956b247354017ef9e5a5,27,2022-02-12_13h21.20.321,lexical_decision_task_DD_L3,2021.2.3,Win32,60.07088364,,,,,,,,,,,0.5314,1,,,,,,,,,,,,,,z,1,0.5314,,,,,,,,0.569444466,-0.20925927,0,0,0,,0,158,158,99,1,BACKY,C,old,z,./images/BACKY.png,,,,,,,,,,,,,,,,,,,,,,,,,,,,,,,,,,,
,,,,,,,,,,,,,,,,,5dfa956b247354017ef9e5a5,27,2022-02-12_13h21.20.321,lexical_decision_task_DD_L3,2021.2.3,Win32,60.07088364,,,,,,,,,,,0.5847,1,,,,,,,,,,,,,,z,1,0.5847,,,,,,,,0.569444466,-0.20925927,0,0,0,,0,159,159,152,1,FRAIN,LB,old,z,./images/FRAINLB.png,,,,,,,,,,,,,,,,,,,,,,,,,,,,,,,,,,,
,,,,,,,,,,,,,,,,,5dfa956b247354017ef9e5a5,27,2022-02-12_13h21.20.321,lexical_decision_task_DD_L3,2021.2.3,Win32,60.07088364,,,,,,,,,,,0.5677,1,,,,,,,,,,,,,,z,1,0.5677,,,,,,,,0.569444466,-0.20925927,0,0,0,,0,160,160,138,1,PLICE,C,old,z,./images/PLICE.png,,,,,,,,,,,,,,,,,,,,,,,,,,,,,,,,,,,
,,,,,,,,,,,,,,,,,5dfa956b247354017ef9e5a5,27,2022-02-12_13h21.20.321,lexical_decision_task_DD_L3,2021.2.3,Win32,60.07088364,,,,,,,,,,,0.5578,1,,,,,,,,,,,,,,m,1,0.5578,,,,,,,,0.569444466,-0.20925927,0,0,0,,0,161,161,62,1,PURSE,HB,old,m,./images/PURSEHB.png,,,,,,,,,,,,,,,,,,,,,,,,,,,,,,,,,,,
,,,,,,,,,,,,,,,,,5dfa956b247354017ef9e5a5,27,2022-02-12_13h21.20.321,lexical_decision_task_DD_L3,2021.2.3,Win32,60.07088364,,,,,,,,,,,0.6983,1,,,,,,,,,,,,,,z,1,0.6983,,,,,,,,0.569444466,-0.20925927,0,0,0,,0,162,162,160,1,VEETS,HB,old,z,./images/VEETSHB.png,,,,,,,,,,,,,,,,,,,,,,,,,,,,,,,,,,,
,,,,,,,,,,,,,,,,,5dfa956b247354017ef9e5a5,27,2022-02-12_13h21.20.321,lexical_decision_task_DD_L3,2021.2.3,Win32,60.07088364,,,,,,,,,,,0.6786,1,,,,,,,,,,,,,,z,1,0.6786,,,,,,,,0.569444466,-0.20925927,0,0,0,,0,163,163,103,1,FLORT,HB,old,z,./images/FLORTHB.png,,,,,,,,,,,,,,,,,,,,,,,,,,,,,,,,,,,
,,,,,,,,,,,,,,,,,5dfa956b247354017ef9e5a5,27,2022-02-12_13h21.20.321,lexical_decision_task_DD_L3,2021.2.3,Win32,60.07088364,,,,,,,,,,,0.5441,1,,,,,,,,,,,,,,z,1,0.5441,,,,,,,,0.569444466,-0.20925927,0,0,0,,0,164,164,126,1,GUELS,C,old,z,./images/GUELS.png,,,,,,,,,,,,,,,,,,,,,,,,,,,,,,,,,,,
,,,,,,,,,,,,,,,,,5dfa956b247354017ef9e5a5,27,2022-02-12_13h21.20.321,lexical_decision_task_DD_L3,2021.2.3,Win32,60.07088364,,,,,,,,,,,0.8543,1,,,,,,,,,,,,,,z,1,0.8543,,,,,,,,0.569444466,-0.20925927,0,0,0,,0,165,165,97,1,CHIDS,HB,old,z,./images/CHIDSHB.png,,,,,,,,,,,,,,,,,,,,,,,,,,,,,,,,,,,
,,,,,,,,,,,,,,,,,5dfa956b247354017ef9e5a5,27,2022-02-12_13h21.20.321,lexical_decision_task_DD_L3,2021.2.3,Win32,60.07088364,,,,,,,,,,,0.4695,1,,,,,,,,,,,,,,m,1,0.4695,,,,,,,,0.569444466,-0.20925927,0,0,0,,0,166,166,36,1,THROAT,LB,old,m,./images/THROATLB.png,,,,,,,,,,,,,,,,,,,,,,,,,,,,,,,,,,,
,,,,,,,,,,,,,,,,,5dfa956b247354017ef9e5a5,27,2022-02-12_13h21.20.321,lexical_decision_task_DD_L3,2021.2.3,Win32,60.07088364,,,,,,,,,,,0.8363,1,,,,,,,,,,,,,,m,1,0.8363,,,,,,,,0.569444466,-0.20925927,0,0,0,,0,167,167,31,1,QUILL,C,old,m,./images/QUILL.png,,,,,,,,,,,,,,,,,,,,,,,,,,,,,,,,,,,
,,,,,,,,,,,,,,,,,5dfa956b247354017ef9e5a5,27,2022-02-12_13h21.20.321,lexical_decision_task_DD_L3,2021.2.3,Win32,60.07088364,,,,,,,,,,,,,,,,,,,,,,,,,,,,,,,,,,,,,,,,,,,,,,,,How likely will it be that you will recognize the words presented slighly blurred on a scale of 0 (not likely) to 100 (most likely)?,,,,,-0.004629616,-0.386111181,1,0,0,jol_adv,4,4.6203,0,0,0,1,1,,,,,,,,,,,,,,,,,,,,,
,,,,,,,,,,,,,,,,,5dfa956b247354017ef9e5a5,27,2022-02-12_13h21.20.321,lexical_decision_task_DD_L3,2021.2.3,Win32,60.07088364,,,,,,,,,,,,,,,,,,,,,,,,,,,,,,,,,,,,,,,,,,,,,,,,How likely will it be that you will recognize the words presented very blurred on a scale of 0 (not likely) to 100 (most likely)?,,,,,,,,,,,1,3.9334,0,1,1,2,1,,,,,,,,,,,,,,,,,,,,,
,,,,,,,,,,,,,,,,,5dfa956b247354017ef9e5a5,27,2022-02-12_13h21.20.321,lexical_decision_task_DD_L3,2021.2.3,Win32,60.07088364,,,,,,,,,,,,,,,,,,,,,,,,,,,,,,,,,,,,,,,,,,,,,,,,How likely will it be that you will recognize the words presented clearly on a scale of 0 (not likely) to 100 (most likely)?,,,,,,,,,,,6,2.2845,0,2,2,0,1,,,,,,,,,,,,,,,,,,,,,
space,10.2203,0.158333349,-0.199074084,0,0,0,,,,,,1,test,"In the next phase you will be presented with the words from the the first phase. Your job is to decide whether you remember seeing the word or not. If you remember seeing the word press ""old"" or type ""m"". If you do not remember seeing the word press ""new"" or type ""z"". Please press the space bar or click on continue to begin. ",,,5dfa956b247354017ef9e5a5,27,2022-02-12_13h21.20.321,lexical_decision_task_DD_L3,2021.2.3,Win32,60.07088364,,,,,,,,,,,,,,,,,,,,,,,,,,,,,,,,,,,,,,,,,,,,,,,,,,,,,,,,,,,,,,,,,,0,0,0,0,1,,,,,,,,,,,,,,,,
space,2.1596,-0.005555542,-0.415740754,0,0,0,,,,,,1,test,"In the next phase you will be presented with the words from the the first phase. Your job is to decide whether you remember seeing the word or not. If you remember seeing the word press ""old"" or type ""m"". If you do not remember seeing the word press ""new"" or type ""z"". Please press the space bar or click on continue to begin. ",,,5dfa956b247354017ef9e5a5,27,2022-02-12_13h21.20.321,lexical_decision_task_DD_L3,2021.2.3,Win32,60.07088364,,,,,,,,,,,,,,,,,,,,,,,,,,,,,,,,,,,,,,,,,,,,,,,,,,,,,,,,,,,,,,,,,,1,0,1,0,1,,,,,,,,,,,,,,,,
,,0.073148162,-0.374074087,1,0,0,,,,,,1,test,"In the next phase you will be presented with the words from the the first phase. Your job is to decide whether you remember seeing the word or not. If you remember seeing the word press ""old"" or type ""m"". If you do not remember seeing the word press ""new"" or type ""z"". Please press the space bar or click on continue to begin. ",,,5dfa956b247354017ef9e5a5,27,2022-02-12_13h21.20.321,lexical_decision_task_DD_L3,2021.2.3,Win32,60.07088364,,,,,,,,,,,,,,,,,,,,,,,,,,,,,,,,,,,,,,,,,,,,,,,,,,,,,,,,,,,,,,,,,,2,0,2,0,1,instr_done_button,,,,,,,,,,,,,,,
space,1.701,-0.025925857,-0.350925939,0,0,0,,,,,,1,test,"In the next phase you will be presented with the words from the the first phase. Your job is to decide whether you remember seeing the word or not. If you remember seeing the word press ""old"" or type ""m"". If you do not remember seeing the word press ""new"" or type ""z"". Please press the space bar or click on continue to begin. ",,,5dfa956b247354017ef9e5a5,27,2022-02-12_13h21.20.321,lexical_decision_task_DD_L3,2021.2.3,Win32,60.07088364,,,,,,,,,,,,,,,,,,,,,,,,,,,,,,,,,,,,,,,,,,,,,,,,,,,,,,,,,,,,,,,,,,3,0,3,0,1,,,,,,,,,,,,,,,,
space,0.3687,-0.025925857,-0.350925939,0,0,0,,,,,,1,test,"In the next phase you will be presented with the words from the the first phase. Your job is to decide whether you remember seeing the word or not. If you remember seeing the word press ""old"" or type ""m"". If you do not remember seeing the word press ""new"" or type ""z"". Please press the space bar or click on continue to begin. ",,,5dfa956b247354017ef9e5a5,27,2022-02-12_13h21.20.321,lexical_decision_task_DD_L3,2021.2.3,Win32,60.07088364,,,,,,,,,,,,,,,,,,,,,,,,,,,,,,,,,,,,,,,,,,,,,,,,,,,,,,,,,,,,,,,,,,4,0,4,0,1,,,,,,,,,,,,,,,,
,,,,,,,,,,,,,,,,,5dfa956b247354017ef9e5a5,27,2022-02-12_13h21.20.321,lexical_decision_task_DD_L3,2021.2.3,Win32,60.07088364,,,,,,,,,,,2.4903,0,,,,,,,,,,,,,,,,,,,,,,,,-0.025925857,-0.350925939,0,0,0,,,,,,,DRUMS,C,m,m,./images/DRUMS.png,,,,,,,,,,,,,,,,,,,,,z,0,2.4903,,,,,,,,0,0,0,49,1
,,,,,,,,,,,,,,,,,5dfa956b247354017ef9e5a5,27,2022-02-12_13h21.20.321,lexical_decision_task_DD_L3,2021.2.3,Win32,60.07088364,,,,,,,,,,,1.2027,1,,,,,,,,,,,,,,,,,,,,,,,,-0.025925857,-0.350925939,0,0,0,,,,,,,CHERRY,LB,z,m,./images/CHERRYLB.png,,,,,,,,,,,,,,,,,,,,,z,1,1.2027,,,,,,,,0,1,1,138,1
,,,,,,,,,,,,,,,,,5dfa956b247354017ef9e5a5,27,2022-02-12_13h21.20.321,lexical_decision_task_DD_L3,2021.2.3,Win32,60.07088364,,,,,,,,,,,0.8948,1,,,,,,,,,,,,,,,,,,,,,,,,-0.025925857,-0.350925939,0,0,0,,,,,,,WALNUT,LB,z,m,./images/WALNUTLB.png,,,,,,,,,,,,,,,,,,,,,z,1,0.8948,,,,,,,,0,2,2,84,1
,,,,,,,,,,,,,,,,,5dfa956b247354017ef9e5a5,27,2022-02-12_13h21.20.321,lexical_decision_task_DD_L3,2021.2.3,Win32,60.07088364,,,,,,,,,,,1.4514,0,,,,,,,,,,,,,,,,,,,,,,,,-0.025925857,-0.350925939,0,0,0,,,,,,,SHELF,LB,m,m,./images/SHELFLB.png,,,,,,,,,,,,,,,,,,,,,z,0,1.4514,,,,,,,,0,3,3,39,1
,,,,,,,,,,,,,,,,,5dfa956b247354017ef9e5a5,27,2022-02-12_13h21.20.321,lexical_decision_task_DD_L3,2021.2.3,Win32,60.07088364,,,,,,,,,,,0.7313,1,,,,,,,,,,,,,,,,,,,,,,,,-0.025925857,-0.350925939,0,0,0,,,,,,,DIVER,LB,z,m,./images/DIVERLB.png,,,,,,,,,,,,,,,,,,,,,z,1,0.7313,,,,,,,,0,4,4,93,1
,,,,,,,,,,,,,,,,,5dfa956b247354017ef9e5a5,27,2022-02-12_13h21.20.321,lexical_decision_task_DD_L3,2021.2.3,Win32,60.07088364,,,,,,,,,,,1.5342,1,,,,,,,,,,,,,,,,,,,,,,,,-0.025925857,-0.350925939,0,0,0,,,,,,,MUSCLE,C,m,m,./images/MUSCLE.png,,,,,,,,,,,,,,,,,,,,,m,1,1.5342,,,,,,,,0,5,5,4,1
,,,,,,,,,,,,,,,,,5dfa956b247354017ef9e5a5,27,2022-02-12_13h21.20.321,lexical_decision_task_DD_L3,2021.2.3,Win32,60.07088364,,,,,,,,,,,0.7318,1,,,,,,,,,,,,,,,,,,,,,,,,-0.025925857,-0.350925939,0,0,0,,,,,,,CANDLE,C,m,m,./images/CANDLE.png,,,,,,,,,,,,,,,,,,,,,m,1,0.7318,,,,,,,,0,6,6,61,1
,,,,,,,,,,,,,,,,,5dfa956b247354017ef9e5a5,27,2022-02-12_13h21.20.321,lexical_decision_task_DD_L3,2021.2.3,Win32,60.07088364,,,,,,,,,,,0.5722,1,,,,,,,,,,,,,,,,,,,,,,,,-0.025925857,-0.350925939,0,0,0,,,,,,,LADDER,HB,m,m,./images/LADDERHB.png,,,,,,,,,,,,,,,,,,,,,m,1,0.5722,,,,,,,,0,7,7,38,1
,,,,,,,,,,,,,,,,,5dfa956b247354017ef9e5a5,27,2022-02-12_13h21.20.321,lexical_decision_task_DD_L3,2021.2.3,Win32,60.07088364,,,,,,,,,,,4.6216,0,,,,,,,,,,,,,,,,,,,,,,,,-0.025925857,-0.350925939,0,0,0,,,,,,,BURIAL,HB,m,m,./images/BURIALHB.png,,,,,,,,,,,,,,,,,,,,,z,0,4.6216,,,,,,,,0,8,8,59,1
,,,,,,,,,,,,,,,,,5dfa956b247354017ef9e5a5,27,2022-02-12_13h21.20.321,lexical_decision_task_DD_L3,2021.2.3,Win32,60.07088364,,,,,,,,,,,1.3683,1,,,,,,,,,,,,,,,,,,,,,,,,-0.025925857,-0.350925939,0,0,0,,,,,,,CLOUD,HB,z,m,./images/CLOUDHB.png,,,,,,,,,,,,,,,,,,,,,z,1,1.3683,,,,,,,,0,9,9,110,1
,,,,,,,,,,,,,,,,,5dfa956b247354017ef9e5a5,27,2022-02-12_13h21.20.321,lexical_decision_task_DD_L3,2021.2.3,Win32,60.07088364,,,,,,,,,,,2.433,1,,,,,,,,,,,,,,,,,,,,,,,,-0.025925857,-0.350925939,0,0,0,,,,,,,CLIFF,HB,z,m,./images/CLIFFHB.png,,,,,,,,,,,,,,,,,,,,,z,1,2.433,,,,,,,,0,10,10,92,1
,,,,,,,,,,,,,,,,,5dfa956b247354017ef9e5a5,27,2022-02-12_13h21.20.321,lexical_decision_task_DD_L3,2021.2.3,Win32,60.07088364,,,,,,,,,,,2.7891,0,,,,,,,,,,,,,,,,,,,,,,,,-0.025925857,-0.350925939,0,0,0,,,,,,,FINGER,LB,m,m,./images/FINGERLB.png,,,,,,,,,,,,,,,,,,,,,z,0,2.7891,,,,,,,,0,11,11,3,1
,,,,,,,,,,,,,,,,,5dfa956b247354017ef9e5a5,27,2022-02-12_13h21.20.321,lexical_decision_task_DD_L3,2021.2.3,Win32,60.07088364,,,,,,,,,,,1.0858,1,,,,,,,,,,,,,,,,,,,,,,,,-0.025925857,-0.350925939,0,0,0,,,,,,,TWINS,LB,m,m,./images/TWINSLB.png,,,,,,,,,,,,,,,,,,,,,m,1,1.0858,,,,,,,,0,12,12,60,1
,,,,,,,,,,,,,,,,,5dfa956b247354017ef9e5a5,27,2022-02-12_13h21.20.321,lexical_decision_task_DD_L3,2021.2.3,Win32,60.07088364,,,,,,,,,,,0.6513,0,,,,,,,,,,,,,,,,,,,,,,,,-0.025925857,-0.350925939,0,0,0,,,,,,,BELLY,C,m,m,./images/BELLY.png,,,,,,,,,,,,,,,,,,,,,z,0,0.6513,,,,,,,,0,13,13,10,1
,,,,,,,,,,,,,,,,,5dfa956b247354017ef9e5a5,27,2022-02-12_13h21.20.321,lexical_decision_task_DD_L3,2021.2.3,Win32,60.07088364,,,,,,,,,,,0.7677,1,,,,,,,,,,,,,,,,,,,,,,,,-0.025925857,-0.350925939,0,0,0,,,,,,,THROAT,LB,m,m,./images/THROATLB.png,,,,,,,,,,,,,,,,,,,,,m,1,0.7677,,,,,,,,0,14,14,36,1
,,,,,,,,,,,,,,,,,5dfa956b247354017ef9e5a5,27,2022-02-12_13h21.20.321,lexical_decision_task_DD_L3,2021.2.3,Win32,60.07088364,,,,,,,,,,,0.7369,1,,,,,,,,,,,,,,,,,,,,,,,,-0.025925857,-0.350925939,0,0,0,,,,,,,JUNGLE,HB,m,m,./images/JUNGLEHB.png,,,,,,,,,,,,,,,,,,,,,m,1,0.7369,,,,,,,,0,15,15,83,1
,,,,,,,,,,,,,,,,,5dfa956b247354017ef9e5a5,27,2022-02-12_13h21.20.321,lexical_decision_task_DD_L3,2021.2.3,Win32,60.07088364,,,,,,,,,,,0.5348,1,,,,,,,,,,,,,,,,,,,,,,,,-0.025925857,-0.350925939,0,0,0,,,,,,,WALRUS,HB,m,m,./images/WALRUSHB.png,,,,,,,,,,,,,,,,,,,,,m,1,0.5348,,,,,,,,0,16,16,23,1
,,,,,,,,,,,,,,,,,5dfa956b247354017ef9e5a5,27,2022-02-12_13h21.20.321,lexical_decision_task_DD_L3,2021.2.3,Win32,60.07088364,,,,,,,,,,,0.8171,1,,,,,,,,,,,,,,,,,,,,,,,,-0.025925857,-0.350925939,0,0,0,,,,,,,CURRY,LB,z,m,./images/CURRYLB.png,,,,,,,,,,,,,,,,,,,,,z,1,0.8171,,,,,,,,0,17,17,144,1
,,,,,,,,,,,,,,,,,5dfa956b247354017ef9e5a5,27,2022-02-12_13h21.20.321,lexical_decision_task_DD_L3,2021.2.3,Win32,60.07088364,,,,,,,,,,,0.8852,1,,,,,,,,,,,,,,,,,,,,,,,,-0.025925857,-0.350925939,0,0,0,,,,,,,CHALK,C,z,m,./images/CHALK.png,,,,,,,,,,,,,,,,,,,,,z,1,0.8852,,,,,,,,0,18,18,109,1
,,,,,,,,,,,,,,,,,5dfa956b247354017ef9e5a5,27,2022-02-12_13h21.20.321,lexical_decision_task_DD_L3,2021.2.3,Win32,60.07088364,,,,,,,,,,,0.5893,1,,,,,,,,,,,,,,,,,,,,,,,,-0.025925857,-0.350925939,0,0,0,,,,,,,NOOSE,LB,m,m,./images/NOOSELB.png,,,,,,,,,,,,,,,,,,,,,m,1,0.5893,,,,,,,,0,19,19,72,1
,,,,,,,,,,,,,,,,,5dfa956b247354017ef9e5a5,27,2022-02-12_13h21.20.321,lexical_decision_task_DD_L3,2021.2.3,Win32,60.07088364,,,,,,,,,,,1.3513,0,,,,,,,,,,,,,,,,,,,,,,,,-0.025925857,-0.350925939,0,0,0,,,,,,,FARMER,HB,m,m,./images/FARMERHB.png,,,,,,,,,,,,,,,,,,,,,z,0,1.3513,,,,,,,,0,20,20,65,1
,,,,,,,,,,,,,,,,,5dfa956b247354017ef9e5a5,27,2022-02-12_13h21.20.321,lexical_decision_task_DD_L3,2021.2.3,Win32,60.07088364,,,,,,,,,,,2.3064,0,,,,,,,,,,,,,,,,,,,,,,,,-0.025925857,-0.350925939,0,0,0,,,,,,,CANYON,C,m,m,./images/CANYON.png,,,,,,,,,,,,,,,,,,,,,z,0,2.3064,,,,,,,,0,21,21,34,1
,,,,,,,,,,,,,,,,,5dfa956b247354017ef9e5a5,27,2022-02-12_13h21.20.321,lexical_decision_task_DD_L3,2021.2.3,Win32,60.07088364,,,,,,,,,,,1.0256,1,,,,,,,,,,,,,,,,,,,,,,,,-0.025925857,-0.350925939,0,0,0,,,,,,,PARCEL,LB,z,m,./images/PARCELLB.png,,,,,,,,,,,,,,,,,,,,,z,1,1.0256,,,,,,,,0,22,22,102,1
,,,,,,,,,,,,,,,,,5dfa956b247354017ef9e5a5,27,2022-02-12_13h21.20.321,lexical_decision_task_DD_L3,2021.2.3,Win32,60.07088364,,,,,,,,,,,0.6799,1,,,,,,,,,,,,,,,,,,,,,,,,-0.025925857,-0.350925939,0,0,0,,,,,,,DESERT,C,z,m,./images/DESERT.png,,,,,,,,,,,,,,,,,,,,,z,1,0.6799,,,,,,,,0,23,23,136,1
,,,,,,,,,,,,,,,,,5dfa956b247354017ef9e5a5,27,2022-02-12_13h21.20.321,lexical_decision_task_DD_L3,2021.2.3,Win32,60.07088364,,,,,,,,,,,0.821,0,,,,,,,,,,,,,,,,,,,,,,,,-0.025925857,-0.350925939,0,0,0,,,,,,,MIRROR,LB,m,m,./images/MIRRORLB.png,,,,,,,,,,,,,,,,,,,,,z,0,0.821,,,,,,,,0,24,24,63,1
,,,,,,,,,,,,,,,,,5dfa956b247354017ef9e5a5,27,2022-02-12_13h21.20.321,lexical_decision_task_DD_L3,2021.2.3,Win32,60.07088364,,,,,,,,,,,0.9496,1,,,,,,,,,,,,,,,,,,,,,,,,-0.025925857,-0.350925939,0,0,0,,,,,,,CANDY,LB,z,m,./images/CANDYLB.png,,,,,,,,,,,,,,,,,,,,,z,1,0.9496,,,,,,,,0,25,25,123,1
,,,,,,,,,,,,,,,,,5dfa956b247354017ef9e5a5,27,2022-02-12_13h21.20.321,lexical_decision_task_DD_L3,2021.2.3,Win32,60.07088364,,,,,,,,,,,1.8527,1,,,,,,,,,,,,,,,,,,,,,,,,-0.025925857,-0.350925939,0,0,0,,,,,,,BUBBLE,HB,z,m,./images/BUBBLEHB.png,,,,,,,,,,,,,,,,,,,,,z,1,1.8527,,,,,,,,0,26,26,155,1
,,,,,,,,,,,,,,,,,5dfa956b247354017ef9e5a5,27,2022-02-12_13h21.20.321,lexical_decision_task_DD_L3,2021.2.3,Win32,60.07088364,,,,,,,,,,,0.776,1,,,,,,,,,,,,,,,,,,,,,,,,-0.025925857,-0.350925939,0,0,0,,,,,,,LAGOON,HB,z,m,./images/LAGOONHB.png,,,,,,,,,,,,,,,,,,,,,z,1,0.776,,,,,,,,0,27,27,131,1
,,,,,,,,,,,,,,,,,5dfa956b247354017ef9e5a5,27,2022-02-12_13h21.20.321,lexical_decision_task_DD_L3,2021.2.3,Win32,60.07088364,,,,,,,,,,,1.8029,1,,,,,,,,,,,,,,,,,,,,,,,,-0.025925857,-0.350925939,0,0,0,,,,,,,LITTER,LB,m,m,./images/LITTERLB.png,,,,,,,,,,,,,,,,,,,,,m,1,1.8029,,,,,,,,0,28,28,78,1
,,,,,,,,,,,,,,,,,5dfa956b247354017ef9e5a5,27,2022-02-12_13h21.20.321,lexical_decision_task_DD_L3,2021.2.3,Win32,60.07088364,,,,,,,,,,,0.7393,1,,,,,,,,,,,,,,,,,,,,,,,,-0.025925857,-0.350925939,0,0,0,,,,,,,LLAMA,HB,z,m,./images/LLAMAHB.png,,,,,,,,,,,,,,,,,,,,,z,1,0.7393,,,,,,,,0,29,29,119,1
,,,,,,,,,,,,,,,,,5dfa956b247354017ef9e5a5,27,2022-02-12_13h21.20.321,lexical_decision_task_DD_L3,2021.2.3,Win32,60.07088364,,,,,,,,,,,1.0505,0,,,,,,,,,,,,,,,,,,,,,,,,-0.025925857,-0.350925939,0,0,0,,,,,,,BRIDE,C,z,m,./images/BRIDE.png,,,,,,,,,,,,,,,,,,,,,m,0,1.0505,,,,,,,,0,30,30,148,1
,,,,,,,,,,,,,,,,,5dfa956b247354017ef9e5a5,27,2022-02-12_13h21.20.321,lexical_decision_task_DD_L3,2021.2.3,Win32,60.07088364,,,,,,,,,,,2.4701,0,,,,,,,,,,,,,,,,,,,,,,,,-0.025925857,-0.350925939,0,0,0,,,,,,,STRING,HB,m,m,./images/STRINGHB.png,,,,,,,,,,,,,,,,,,,,,z,0,2.4701,,,,,,,,0,31,31,41,1
,,,,,,,,,,,,,,,,,5dfa956b247354017ef9e5a5,27,2022-02-12_13h21.20.321,lexical_decision_task_DD_L3,2021.2.3,Win32,60.07088364,,,,,,,,,,,1.5905,1,,,,,,,,,,,,,,,,,,,,,,,,-0.025925857,-0.350925939,0,0,0,,,,,,,POKER,C,z,m,./images/POKER.png,,,,,,,,,,,,,,,,,,,,,z,1,1.5905,,,,,,,,0,32,32,151,1
,,,,,,,,,,,,,,,,,5dfa956b247354017ef9e5a5,27,2022-02-12_13h21.20.321,lexical_decision_task_DD_L3,2021.2.3,Win32,60.07088364,,,,,,,,,,,1.0477,0,,,,,,,,,,,,,,,,,,,,,,,,-0.025925857,-0.350925939,0,0,0,,,,,,,PILOT,HB,z,m,./images/PILOTHB.png,,,,,,,,,,,,,,,,,,,,,m,0,1.0477,,,,,,,,0,33,33,134,1
,,,,,,,,,,,,,,,,,5dfa956b247354017ef9e5a5,27,2022-02-12_13h21.20.321,lexical_decision_task_DD_L3,2021.2.3,Win32,60.07088364,,,,,,,,,,,1.2439,1,,,,,,,,,,,,,,,,,,,,,,,,-0.025925857,-0.350925939,0,0,0,,,,,,,COLLAR,LB,z,m,./images/COLLARLB.png,,,,,,,,,,,,,,,,,,,,,z,1,1.2439,,,,,,,,0,34,34,99,1
,,,,,,,,,,,,,,,,,5dfa956b247354017ef9e5a5,27,2022-02-12_13h21.20.321,lexical_decision_task_DD_L3,2021.2.3,Win32,60.07088364,,,,,,,,,,,0.5752,1,,,,,,,,,,,,,,,,,,,,,,,,-0.025925857,-0.350925939,0,0,0,,,,,,,HOCKEY,HB,z,m,./images/HOCKEYHB.png,,,,,,,,,,,,,,,,,,,,,z,1,0.5752,,,,,,,,0,35,35,116,1
,,,,,,,,,,,,,,,,,5dfa956b247354017ef9e5a5,27,2022-02-12_13h21.20.321,lexical_decision_task_DD_L3,2021.2.3,Win32,60.07088364,,,,,,,,,,,0.6036,1,,,,,,,,,,,,,,,,,,,,,,,,-0.025925857,-0.350925939,0,0,0,,,,,,,FENCE,HB,z,m,./images/FENCEHB.png,,,,,,,,,,,,,,,,,,,,,z,1,0.6036,,,,,,,,0,36,36,98,1
,,,,,,,,,,,,,,,,,5dfa956b247354017ef9e5a5,27,2022-02-12_13h21.20.321,lexical_decision_task_DD_L3,2021.2.3,Win32,60.07088364,,,,,,,,,,,0.8437,1,,,,,,,,,,,,,,,,,,,,,,,,-0.025925857,-0.350925939,0,0,0,,,,,,,SUNSET,C,m,m,./images/SUNSET.png,,,,,,,,,,,,,,,,,,,,,m,1,0.8437,,,,,,,,0,37,37,82,1
,,,,,,,,,,,,,,,,,5dfa956b247354017ef9e5a5,27,2022-02-12_13h21.20.321,lexical_decision_task_DD_L3,2021.2.3,Win32,60.07088364,,,,,,,,,,,0.7811,1,,,,,,,,,,,,,,,,,,,,,,,,-0.025925857,-0.350925939,0,0,0,,,,,,,SLOPE,LB,z,m,./images/SLOPELB.png,,,,,,,,,,,,,,,,,,,,,z,1,0.7811,,,,,,,,0,38,38,114,1
,,,,,,,,,,,,,,,,,5dfa956b247354017ef9e5a5,27,2022-02-12_13h21.20.321,lexical_decision_task_DD_L3,2021.2.3,Win32,60.07088364,,,,,,,,,,,0.6465,1,,,,,,,,,,,,,,,,,,,,,,,,-0.025925857,-0.350925939,0,0,0,,,,,,,BANANA,C,z,m,./images/BANANA.png,,,,,,,,,,,,,,,,,,,,,z,1,0.6465,,,,,,,,0,39,39,154,1
,,,,,,,,,,,,,,,,,5dfa956b247354017ef9e5a5,27,2022-02-12_13h21.20.321,lexical_decision_task_DD_L3,2021.2.3,Win32,60.07088364,,,,,,,,,,,0.5517,1,,,,,,,,,,,,,,,,,,,,,,,,-0.025925857,-0.350925939,0,0,0,,,,,,,BLOKE,LB,z,m,./images/BLOKELB.png,,,,,,,,,,,,,,,,,,,,,z,1,0.5517,,,,,,,,0,40,40,96,1
,,,,,,,,,,,,,,,,,5dfa956b247354017ef9e5a5,27,2022-02-12_13h21.20.321,lexical_decision_task_DD_L3,2021.2.3,Win32,60.07088364,,,,,,,,,,,0.7186,1,,,,,,,,,,,,,,,,,,,,,,,,-0.025925857,-0.350925939,0,0,0,space,,,,,,TOMATO,LB,m,m,./images/TOMATOLB.png,1.6191,,,,,,,,,,,,,,,,,,,,m,1,0.7186,,,,,,,,0,41,41,0,1
,,,,,,,,,,,,,,,,,5dfa956b247354017ef9e5a5,27,2022-02-12_13h21.20.321,lexical_decision_task_DD_L3,2021.2.3,Win32,60.07088364,,,,,,,,,,,0.8966,1,,,,,,,,,,,,,,,,,,,,,,,,-0.025925857,-0.350925939,0,0,0,,,,,,,CEMENT,HB,m,m,./images/CEMENTHB.png,,,,,,,,,,,,,,,,,,,,,m,1,0.8966,,,,,,,,0,42,42,74,1
,,,,,,,,,,,,,,,,,5dfa956b247354017ef9e5a5,27,2022-02-12_13h21.20.321,lexical_decision_task_DD_L3,2021.2.3,Win32,60.07088364,,,,,,,,,,,1.5508,1,,,,,,,,,,,,,,,,,,,,,,,,-0.025925857,-0.350925939,0,0,0,,,,,,,PICKLE,HB,m,m,./images/PICKLEHB.png,,,,,,,,,,,,,,,,,,,,,m,1,1.5508,,,,,,,,0,43,43,14,1
,,,,,,,,,,,,,,,,,5dfa956b247354017ef9e5a5,27,2022-02-12_13h21.20.321,lexical_decision_task_DD_L3,2021.2.3,Win32,60.07088364,,,,,,,,,,,4.7124,1,,,,,,,,,,,,,,,,,,,,,,,,-0.025925857,-0.350925939,0,0,0,,,,,,,ONION,LB,m,m,./images/ONIONLB.png,,,,,,,,,,,,,,,,,,,,,m,1,4.7124,,,,,,,,0,44,44,51,1
,,,,,,,,,,,,,,,,,5dfa956b247354017ef9e5a5,27,2022-02-12_13h21.20.321,lexical_decision_task_DD_L3,2021.2.3,Win32,60.07088364,,,,,,,,,,,0.7723,0,,,,,,,,,,,,,,,,,,,,,,,,-0.025925857,-0.350925939,0,0,0,,,,,,,BIRTH,C,m,m,./images/BIRTH.png,,,,,,,,,,,,,,,,,,,,,z,0,0.7723,,,,,,,,0,45,45,37,1
,,,,,,,,,,,,,,,,,5dfa956b247354017ef9e5a5,27,2022-02-12_13h21.20.321,lexical_decision_task_DD_L3,2021.2.3,Win32,60.07088364,,,,,,,,,,,0.7555,1,,,,,,,,,,,,,,,,,,,,,,,,-0.025925857,-0.350925939,0,0,0,,,,,,,SPINE,HB,z,m,./images/SPINEHB.png,,,,,,,,,,,,,,,,,,,,,z,1,0.7555,,,,,,,,0,46,46,149,1
,,,,,,,,,,,,,,,,,5dfa956b247354017ef9e5a5,27,2022-02-12_13h21.20.321,lexical_decision_task_DD_L3,2021.2.3,Win32,60.07088364,,,,,,,,,,,2.0835,0,,,,,,,,,,,,,,,,,,,,,,,,-0.025925857,-0.350925939,0,0,0,,,,,,,PACKET,HB,m,m,./images/PACKETHB.png,,,,,,,,,,,,,,,,,,,,,z,0,2.0835,,,,,,,,0,47,47,56,1
,,,,,,,,,,,,,,,,,5dfa956b247354017ef9e5a5,27,2022-02-12_13h21.20.321,lexical_decision_task_DD_L3,2021.2.3,Win32,60.07088364,,,,,,,,,,,0.9474,1,,,,,,,,,,,,,,,,,,,,,,,,-0.025925857,-0.350925939,0,0,0,,,,,,,PURSE,HB,m,m,./images/PURSEHB.png,,,,,,,,,,,,,,,,,,,,,m,1,0.9474,,,,,,,,0,48,48,62,1
,,,,,,,,,,,,,,,,,5dfa956b247354017ef9e5a5,27,2022-02-12_13h21.20.321,lexical_decision_task_DD_L3,2021.2.3,Win32,60.07088364,,,,,,,,,,,0.5818,0,,,,,,,,,,,,,,,,,,,,,,,,-0.025925857,-0.350925939,0,0,0,,,,,,,BAMBOO,HB,z,m,./images/BAMBOOHB.png,,,,,,,,,,,,,,,,,,,,,m,0,0.5818,,,,,,,,0,49,49,89,1
,,,,,,,,,,,,,,,,,5dfa956b247354017ef9e5a5,27,2022-02-12_13h21.20.321,lexical_decision_task_DD_L3,2021.2.3,Win32,60.07088364,,,,,,,,,,,2.9127,1,,,,,,,,,,,,,,,,,,,,,,,,-0.025925857,-0.350925939,0,0,0,,,,,,,PEARL,C,m,m,./images/PEARL.png,,,,,,,,,,,,,,,,,,,,,m,1,2.9127,,,,,,,,0,50,50,46,1
,,,,,,,,,,,,,,,,,5dfa956b247354017ef9e5a5,27,2022-02-12_13h21.20.321,lexical_decision_task_DD_L3,2021.2.3,Win32,60.07088364,,,,,,,,,,,0.6146,1,,,,,,,,,,,,,,,,,,,,,,,,-0.025925857,-0.350925939,0,0,0,,,,,,,STATUE,LB,z,m,./images/STATUELB.png,,,,,,,,,,,,,,,,,,,,,z,1,0.6146,,,,,,,,0,51,51,150,1
,,,,,,,,,,,,,,,,,5dfa956b247354017ef9e5a5,27,2022-02-12_13h21.20.321,lexical_decision_task_DD_L3,2021.2.3,Win32,60.07088364,,,,,,,,,,,0.6739,1,,,,,,,,,,,,,,,,,,,,,,,,-0.025925857,-0.350925939,0,0,0,,,,,,,TULIP,HB,m,m,./images/TULIPHB.png,,,,,,,,,,,,,,,,,,,,,m,1,0.6739,,,,,,,,0,52,52,8,1
,,,,,,,,,,,,,,,,,5dfa956b247354017ef9e5a5,27,2022-02-12_13h21.20.321,lexical_decision_task_DD_L3,2021.2.3,Win32,60.07088364,,,,,,,,,,,0.5686,1,,,,,,,,,,,,,,,,,,,,,,,,-0.025925857,-0.350925939,0,0,0,,,,,,,SKIING,HB,m,m,./images/SKIINGHB.png,,,,,,,,,,,,,,,,,,,,,m,1,0.5686,,,,,,,,0,53,53,17,1
,,,,,,,,,,,,,,,,,5dfa956b247354017ef9e5a5,27,2022-02-12_13h21.20.321,lexical_decision_task_DD_L3,2021.2.3,Win32,60.07088364,,,,,,,,,,,0.6686,1,,,,,,,,,,,,,,,,,,,,,,,,-0.025925857,-0.350925939,0,0,0,,,,,,,STOOL,C,z,m,./images/STOOL.png,,,,,,,,,,,,,,,,,,,,,z,1,0.6686,,,,,,,,0,54,54,127,1
,,,,,,,,,,,,,,,,,5dfa956b247354017ef9e5a5,27,2022-02-12_13h21.20.321,lexical_decision_task_DD_L3,2021.2.3,Win32,60.07088364,,,,,,,,,,,7.9909,0,,,,,,,,,,,,,,,,,,,,,,,,-0.025925857,-0.350925939,0,0,0,,,,,,,SNACK,C,m,m,./images/SNACK.png,,,,,,,,,,,,,,,,,,,,,z,0,7.9909,,,,,,,,0,55,55,73,1
,,,,,,,,,,,,,,,,,5dfa956b247354017ef9e5a5,27,2022-02-12_13h21.20.321,lexical_decision_task_DD_L3,2021.2.3,Win32,60.07088364,,,,,,,,,,,6.0262,0,,,,,,,,,,,,,,,,,,,,,,,,-0.025925857,-0.350925939,0,0,0,,,,,,,MIDGET,C,z,m,./images/MIDGET.png,,,,,,,,,,,,,,,,,,,,,m,0,6.0262,,,,,,,,0,56,56,160,1
,,,,,,,,,,,,,,,,,5dfa956b247354017ef9e5a5,27,2022-02-12_13h21.20.321,lexical_decision_task_DD_L3,2021.2.3,Win32,60.07088364,,,,,,,,,,,0.6519,0,,,,,,,,,,,,,,,,,,,,,,,,-0.025925857,-0.350925939,0,0,0,,,,,,,SCREW,LB,m,m,./images/SCREWLB.png,,,,,,,,,,,,,,,,,,,,,z,0,0.6519,,,,,,,,0,57,57,24,1
,,,,,,,,,,,,,,,,,5dfa956b247354017ef9e5a5,27,2022-02-12_13h21.20.321,lexical_decision_task_DD_L3,2021.2.3,Win32,60.07088364,,,,,,,,,,,0.7318,1,,,,,,,,,,,,,,,,,,,,,,,,-0.025925857,-0.350925939,0,0,0,,,,,,,BOILER,LB,z,m,./images/BOILERLB.png,,,,,,,,,,,,,,,,,,,,,z,1,0.7318,,,,,,,,0,58,58,120,1
,,,,,,,,,,,,,,,,,5dfa956b247354017ef9e5a5,27,2022-02-12_13h21.20.321,lexical_decision_task_DD_L3,2021.2.3,Win32,60.07088364,,,,,,,,,,,7.6547,1,,,,,,,,,,,,,,,,,,,,,,,,-0.025925857,-0.350925939,0,0,0,,,,,,,TIGER,C,z,m,./images/TIGER.png,,,,,,,,,,,,,,,,,,,,,z,1,7.6547,,,,,,,,0,59,59,121,1
,,,,,,,,,,,,,,,,,5dfa956b247354017ef9e5a5,27,2022-02-12_13h21.20.321,lexical_decision_task_DD_L3,2021.2.3,Win32,60.07088364,,,,,,,,,,,1.0424,1,,,,,,,,,,,,,,,,,,,,,,,,-0.025925857,-0.350925939,0,0,0,,,,,,,SHORE,LB,m,m,./images/SHORELB.png,,,,,,,,,,,,,,,,,,,,,m,1,1.0424,,,,,,,,0,60,60,12,1
,,,,,,,,,,,,,,,,,5dfa956b247354017ef9e5a5,27,2022-02-12_13h21.20.321,lexical_decision_task_DD_L3,2021.2.3,Win32,60.07088364,,,,,,,,,,,0.6595,1,,,,,,,,,,,,,,,,,,,,,,,,-0.025925857,-0.350925939,0,0,0,,,,,,,SAUCE,LB,z,m,./images/SAUCELB.png,,,,,,,,,,,,,,,,,,,,,z,1,0.6595,,,,,,,,0,61,61,135,1
,,,,,,,,,,,,,,,,,5dfa956b247354017ef9e5a5,27,2022-02-12_13h21.20.321,lexical_decision_task_DD_L3,2021.2.3,Win32,60.07088364,,,,,,,,,,,2.5211,1,,,,,,,,,,,,,,,,,,,,,,,,-0.025925857,-0.350925939,0,0,0,,,,,,,BUTTER,LB,z,m,./images/BUTTERLB.png,,,,,,,,,,,,,,,,,,,,,z,1,2.5211,,,,,,,,0,62,62,111,1
,,,,,,,,,,,,,,,,,5dfa956b247354017ef9e5a5,27,2022-02-12_13h21.20.321,lexical_decision_task_DD_L3,2021.2.3,Win32,60.07088364,,,,,,,,,,,3.8071,1,,,,,,,,,,,,,,,,,,,,,,,,-0.025925857,-0.350925939,0,0,0,,,,,,,MELON,C,m,m,./images/MELON.png,,,,,,,,,,,,,,,,,,,,,m,1,3.8071,,,,,,,,0,63,63,22,1
,,,,,,,,,,,,,,,,,5dfa956b247354017ef9e5a5,27,2022-02-12_13h21.20.321,lexical_decision_task_DD_L3,2021.2.3,Win32,60.07088364,,,,,,,,,,,1.0278,1,,,,,,,,,,,,,,,,,,,,,,,,-0.025925857,-0.350925939,0,0,0,,,,,,,CLOTH,HB,z,m,./images/CLOTHHB.png,,,,,,,,,,,,,,,,,,,,,z,1,1.0278,,,,,,,,0,64,64,107,1
,,,,,,,,,,,,,,,,,5dfa956b247354017ef9e5a5,27,2022-02-12_13h21.20.321,lexical_decision_task_DD_L3,2021.2.3,Win32,60.07088364,,,,,,,,,,,1.0199,0,,,,,,,,,,,,,,,,,,,,,,,,-0.025925857,-0.350925939,0,0,0,,,,,,,PASTA,HB,m,m,./images/PASTAHB.png,,,,,,,,,,,,,,,,,,,,,z,0,1.0199,,,,,,,,0,65,65,5,1
,,,,,,,,,,,,,,,,,5dfa956b247354017ef9e5a5,27,2022-02-12_13h21.20.321,lexical_decision_task_DD_L3,2021.2.3,Win32,60.07088364,,,,,,,,,,,0.8444,1,,,,,,,,,,,,,,,,,,,,,,,,-0.025925857,-0.350925939,0,0,0,,,,,,,CASINO,C,z,m,./images/CASINO.png,,,,,,,,,,,,,,,,,,,,,z,1,0.8444,,,,,,,,0,66,66,112,1
,,,,,,,,,,,,,,,,,5dfa956b247354017ef9e5a5,27,2022-02-12_13h21.20.321,lexical_decision_task_DD_L3,2021.2.3,Win32,60.07088364,,,,,,,,,,,1.4987,1,,,,,,,,,,,,,,,,,,,,,,,,-0.025925857,-0.350925939,0,0,0,,,,,,,RHINO,LB,m,m,./images/RHINOLB.png,,,,,,,,,,,,,,,,,,,,,m,1,1.4987,,,,,,,,0,67,67,9,1
,,,,,,,,,,,,,,,,,5dfa956b247354017ef9e5a5,27,2022-02-12_13h21.20.321,lexical_decision_task_DD_L3,2021.2.3,Win32,60.07088364,,,,,,,,,,,0.9325,1,,,,,,,,,,,,,,,,,,,,,,,,-0.025925857,-0.350925939,0,0,0,,,,,,,PEACH,HB,m,m,./images/PEACHHB.png,,,,,,,,,,,,,,,,,,,,,m,1,0.9325,,,,,,,,0,68,68,35,1
,,,,,,,,,,,,,,,,,5dfa956b247354017ef9e5a5,27,2022-02-12_13h21.20.321,lexical_decision_task_DD_L3,2021.2.3,Win32,60.07088364,,,,,,,,,,,1.0943,0,,,,,,,,,,,,,,,,,,,,,,,,-0.025925857,-0.350925939,0,0,0,,,,,,,BUNNY,C,z,m,./images/BUNNY.png,,,,,,,,,,,,,,,,,,,,,m,0,1.0943,,,,,,,,0,69,69,97,1
,,,,,,,,,,,,,,,,,5dfa956b247354017ef9e5a5,27,2022-02-12_13h21.20.321,lexical_decision_task_DD_L3,2021.2.3,Win32,60.07088364,,,,,,,,,,,1.1258,1,,,,,,,,,,,,,,,,,,,,,,,,-0.025925857,-0.350925939,0,0,0,,,,,,,MAMMAL,HB,z,m,./images/MAMMALHB.png,,,,,,,,,,,,,,,,,,,,,z,1,1.1258,,,,,,,,0,70,70,146,1
,,,,,,,,,,,,,,,,,5dfa956b247354017ef9e5a5,27,2022-02-12_13h21.20.321,lexical_decision_task_DD_L3,2021.2.3,Win32,60.07088364,,,,,,,,,,,4.9406,0,,,,,,,,,,,,,,,,,,,,,,,,-0.025925857,-0.350925939,0,0,0,,,,,,,BARREL,HB,m,m,./images/BARRELHB.png,,,,,,,,,,,,,,,,,,,,,z,0,4.9406,,,,,,,,0,71,71,32,1
,,,,,,,,,,,,,,,,,5dfa956b247354017ef9e5a5,27,2022-02-12_13h21.20.321,lexical_decision_task_DD_L3,2021.2.3,Win32,60.07088364,,,,,,,,,,,1.0877,1,,,,,,,,,,,,,,,,,,,,,,,,-0.025925857,-0.350925939,0,0,0,,,,,,,SAUNA,LB,z,m,./images/SAUNALB.png,,,,,,,,,,,,,,,,,,,,,z,1,1.0877,,,,,,,,0,72,72,117,1
,,,,,,,,,,,,,,,,,5dfa956b247354017ef9e5a5,27,2022-02-12_13h21.20.321,lexical_decision_task_DD_L3,2021.2.3,Win32,60.07088364,,,,,,,,,,,1.3192,1,,,,,,,,,,,,,,,,,,,,,,,,-0.025925857,-0.350925939,0,0,0,,,,,,,HAMMER,LB,z,m,./images/HAMMERLB.png,,,,,,,,,,,,,,,,,,,,,z,1,1.3192,,,,,,,,0,73,73,159,1
,,,,,,,,,,,,,,,,,5dfa956b247354017ef9e5a5,27,2022-02-12_13h21.20.321,lexical_decision_task_DD_L3,2021.2.3,Win32,60.07088364,,,,,,,,,,,1.6791,0,,,,,,,,,,,,,,,,,,,,,,,,-0.025925857,-0.350925939,0,0,0,,,,,,,COOKER,LB,m,m,./images/COOKERLB.png,,,,,,,,,,,,,,,,,,,,,z,0,1.6791,,,,,,,,0,74,74,69,1
,,,,,,,,,,,,,,,,,5dfa956b247354017ef9e5a5,27,2022-02-12_13h21.20.321,lexical_decision_task_DD_L3,2021.2.3,Win32,60.07088364,,,,,,,,,,,3.2667,1,,,,,,,,,,,,,,,,,,,,,,,,-0.025925857,-0.350925939,0,0,0,,,,,,,MONKEY,LB,z,m,./images/MONKEYLB.png,,,,,,,,,,,,,,,,,,,,,z,1,3.2667,,,,,,,,0,75,75,129,1
,,,,,,,,,,,,,,,,,5dfa956b247354017ef9e5a5,27,2022-02-12_13h21.20.321,lexical_decision_task_DD_L3,2021.2.3,Win32,60.07088364,,,,,,,,,,,0.6978,1,,,,,,,,,,,,,,,,,,,,,,,,-0.025925857,-0.350925939,0,0,0,,,,,,,JUMPER,HB,z,m,./images/JUMPERHB.png,,,,,,,,,,,,,,,,,,,,,z,1,0.6978,,,,,,,,0,76,76,158,1
,,,,,,,,,,,,,,,,,5dfa956b247354017ef9e5a5,27,2022-02-12_13h21.20.321,lexical_decision_task_DD_L3,2021.2.3,Win32,60.07088364,,,,,,,,,,,0.694,1,,,,,,,,,,,,,,,,,,,,,,,,-0.025925857,-0.350925939,0,0,0,,,,,,,VALLEY,HB,z,m,./images/VALLEYHB.png,,,,,,,,,,,,,,,,,,,,,z,1,0.694,,,,,,,,0,77,77,152,1
,,,,,,,,,,,,,,,,,5dfa956b247354017ef9e5a5,27,2022-02-12_13h21.20.321,lexical_decision_task_DD_L3,2021.2.3,Win32,60.07088364,,,,,,,,,,,1.0265,1,,,,,,,,,,,,,,,,,,,,,,,,-0.025925857,-0.350925939,0,0,0,,,,,,,JAGUAR,LB,m,m,./images/JAGUARLB.png,,,,,,,,,,,,,,,,,,,,,m,1,1.0265,,,,,,,,0,78,78,18,1
,,,,,,,,,,,,,,,,,5dfa956b247354017ef9e5a5,27,2022-02-12_13h21.20.321,lexical_decision_task_DD_L3,2021.2.3,Win32,60.07088364,,,,,,,,,,,1.161,0,,,,,,,,,,,,,,,,,,,,,,,,-0.025925857,-0.350925939,0,0,0,,,,,,,SAILOR,C,m,m,./images/SAILOR.png,,,,,,,,,,,,,,,,,,,,,z,0,1.161,,,,,,,,0,79,79,67,1
,,,,,,,,,,,,,,,,,5dfa956b247354017ef9e5a5,27,2022-02-12_13h21.20.321,lexical_decision_task_DD_L3,2021.2.3,Win32,60.07088364,,,,,,,,,,,0.5827,1,,,,,,,,,,,,,,,,,,,,,,,,-0.025925857,-0.350925939,0,0,0,,,,,,,SWING,C,m,m,./images/SWING.png,,,,,,,,,,,,,,,,,,,,,m,1,0.5827,,,,,,,,0,80,80,40,1
,,,,,,,,,,,,,,,,,5dfa956b247354017ef9e5a5,27,2022-02-12_13h21.20.321,lexical_decision_task_DD_L3,2021.2.3,Win32,60.07088364,,,,,,,,,,,3.6688,1,,,,,,,,,,,,,,,,,,,,,,,,-0.025925857,-0.350925939,0,0,0,,,,,,,BAKER,LB,z,m,./images/BAKERLB.png,,,,,,,,,,,,,,,,,,,,,z,1,3.6688,,,,,,,,0,81,81,147,1
,,,,,,,,,,,,,,,,,5dfa956b247354017ef9e5a5,27,2022-02-12_13h21.20.321,lexical_decision_task_DD_L3,2021.2.3,Win32,60.07088364,,,,,,,,,,,3.4435,0,,,,,,,,,,,,,,,,,,,,,,,,-0.025925857,-0.350925939,0,0,0,,,,,,,FLASK,LB,z,m,./images/FLASKLB.png,,,,,,,,,,,,,,,,,,,,,m,0,3.4435,,,,,,,,0,82,82,156,1
,,,,,,,,,,,,,,,,,5dfa956b247354017ef9e5a5,27,2022-02-12_13h21.20.321,lexical_decision_task_DD_L3,2021.2.3,Win32,60.07088364,,,,,,,,,,,0.6152,1,,,,,,,,,,,,,,,,,,,,,,,,-0.025925857,-0.350925939,0,0,0,space,,,,,,BASKET,HB,z,m,./images/BASKETHB.png,214.2912,,,,,,,,,,,,,,,,,,,,z,1,0.6152,,,,,,,,0,83,83,128,1
,,,,,,,,,,,,,,,,,5dfa956b247354017ef9e5a5,27,2022-02-12_13h21.20.321,lexical_decision_task_DD_L3,2021.2.3,Win32,60.07088364,,,,,,,,,,,0.8412,1,,,,,,,,,,,,,,,,,,,,,,,,-0.025925857,-0.350925939,0,0,0,,,,,,,STEAK,C,z,m,./images/STEAK.png,,,,,,,,,,,,,,,,,,,,,z,1,0.8412,,,,,,,,0,84,84,115,1
,,,,,,,,,,,,,,,,,5dfa956b247354017ef9e5a5,27,2022-02-12_13h21.20.321,lexical_decision_task_DD_L3,2021.2.3,Win32,60.07088364,,,,,,,,,,,0.5739,0,,,,,,,,,,,,,,,,,,,,,,,,-0.025925857,-0.350925939,0,0,0,,,,,,,ATTIC,LB,m,m,./images/ATTICLB.png,,,,,,,,,,,,,,,,,,,,,z,0,0.5739,,,,,,,,0,85,85,27,1
,,,,,,,,,,,,,,,,,5dfa956b247354017ef9e5a5,27,2022-02-12_13h21.20.321,lexical_decision_task_DD_L3,2021.2.3,Win32,60.07088364,,,,,,,,,,,0.6362,1,,,,,,,,,,,,,,,,,,,,,,,,-0.025925857,-0.350925939,0,0,0,,,,,,,RAZOR,C,z,m,./images/RAZOR.png,,,,,,,,,,,,,,,,,,,,,z,1,0.6362,,,,,,,,0,86,86,118,1
,,,,,,,,,,,,,,,,,5dfa956b247354017ef9e5a5,27,2022-02-12_13h21.20.321,lexical_decision_task_DD_L3,2021.2.3,Win32,60.07088364,,,,,,,,,,,0.6847,1,,,,,,,,,,,,,,,,,,,,,,,,-0.025925857,-0.350925939,0,0,0,,,,,,,INFANT,C,m,m,./images/INFANT.png,,,,,,,,,,,,,,,,,,,,,m,1,0.6847,,,,,,,,0,87,87,76,1
,,,,,,,,,,,,,,,,,5dfa956b247354017ef9e5a5,27,2022-02-12_13h21.20.321,lexical_decision_task_DD_L3,2021.2.3,Win32,60.07088364,,,,,,,,,,,0.6552,1,,,,,,,,,,,,,,,,,,,,,,,,-0.025925857,-0.350925939,0,0,0,,,,,,,PISTOL,HB,z,m,./images/PISTOLHB.png,,,,,,,,,,,,,,,,,,,,,z,1,0.6552,,,,,,,,0,88,88,113,1
,,,,,,,,,,,,,,,,,5dfa956b247354017ef9e5a5,27,2022-02-12_13h21.20.321,lexical_decision_task_DD_L3,2021.2.3,Win32,60.07088364,,,,,,,,,,,0.6352,1,,,,,,,,,,,,,,,,,,,,,,,,-0.025925857,-0.350925939,0,0,0,,,,,,,ALLEY,C,z,m,./images/ALLEY.png,,,,,,,,,,,,,,,,,,,,,z,1,0.6352,,,,,,,,0,89,89,139,1
,,,,,,,,,,,,,,,,,5dfa956b247354017ef9e5a5,27,2022-02-12_13h21.20.321,lexical_decision_task_DD_L3,2021.2.3,Win32,60.07088364,,,,,,,,,,,0.6172,1,,,,,,,,,,,,,,,,,,,,,,,,-0.025925857,-0.350925939,0,0,0,,,,,,,GARDEN,C,z,m,./images/GARDEN.png,,,,,,,,,,,,,,,,,,,,,z,1,0.6172,,,,,,,,0,90,90,94,1
,,,,,,,,,,,,,,,,,5dfa956b247354017ef9e5a5,27,2022-02-12_13h21.20.321,lexical_decision_task_DD_L3,2021.2.3,Win32,60.07088364,,,,,,,,,,,0.567,0,,,,,,,,,,,,,,,,,,,,,,,,-0.025925857,-0.350925939,0,0,0,,,,,,,KIDNEY,LB,m,m,./images/KIDNEYLB.png,,,,,,,,,,,,,,,,,,,,,z,0,0.567,,,,,,,,0,91,91,21,1
,,,,,,,,,,,,,,,,,5dfa956b247354017ef9e5a5,27,2022-02-12_13h21.20.321,lexical_decision_task_DD_L3,2021.2.3,Win32,60.07088364,,,,,,,,,,,2.3031,0,,,,,,,,,,,,,,,,,,,,,,,,-0.025925857,-0.350925939,0,0,0,,,,,,,MALLET,HB,m,m,./images/MALLETHB.png,,,,,,,,,,,,,,,,,,,,,z,0,2.3031,,,,,,,,0,92,92,50,1
,,,,,,,,,,,,,,,,,5dfa956b247354017ef9e5a5,27,2022-02-12_13h21.20.321,lexical_decision_task_DD_L3,2021.2.3,Win32,60.07088364,,,,,,,,,,,0.5421,1,,,,,,,,,,,,,,,,,,,,,,,,-0.025925857,-0.350925939,0,0,0,,,,,,,DOUGH,C,m,m,./images/DOUGH.png,,,,,,,,,,,,,,,,,,,,,m,1,0.5421,,,,,,,,0,93,93,19,1
,,,,,,,,,,,,,,,,,5dfa956b247354017ef9e5a5,27,2022-02-12_13h21.20.321,lexical_decision_task_DD_L3,2021.2.3,Win32,60.07088364,,,,,,,,,,,0.5776,1,,,,,,,,,,,,,,,,,,,,,,,,-0.025925857,-0.350925939,0,0,0,,,,,,,WAGON,C,z,m,./images/WAGON.png,,,,,,,,,,,,,,,,,,,,,z,1,0.5776,,,,,,,,0,94,94,91,1
,,,,,,,,,,,,,,,,,5dfa956b247354017ef9e5a5,27,2022-02-12_13h21.20.321,lexical_decision_task_DD_L3,2021.2.3,Win32,60.07088364,,,,,,,,,,,0.4957,1,,,,,,,,,,,,,,,,,,,,,,,,-0.025925857,-0.350925939,0,0,0,,,,,,,GRAPE,C,z,m,./images/GRAPE.png,,,,,,,,,,,,,,,,,,,,,z,1,0.4957,,,,,,,,0,95,95,100,1
,,,,,,,,,,,,,,,,,5dfa956b247354017ef9e5a5,27,2022-02-12_13h21.20.321,lexical_decision_task_DD_L3,2021.2.3,Win32,60.07088364,,,,,,,,,,,0.7095,1,,,,,,,,,,,,,,,,,,,,,,,,-0.025925857,-0.350925939,0,0,0,,,,,,,MOSQUE,C,m,m,./images/MOSQUE.png,,,,,,,,,,,,,,,,,,,,,m,1,0.7095,,,,,,,,0,96,96,43,1
,,,,,,,,,,,,,,,,,5dfa956b247354017ef9e5a5,27,2022-02-12_13h21.20.321,lexical_decision_task_DD_L3,2021.2.3,Win32,60.07088364,,,,,,,,,,,0.5794,1,,,,,,,,,,,,,,,,,,,,,,,,-0.025925857,-0.350925939,0,0,0,,,,,,,STOVE,HB,z,m,./images/STOVEHB.png,,,,,,,,,,,,,,,,,,,,,z,1,0.5794,,,,,,,,0,97,97,86,1
,,,,,,,,,,,,,,,,,5dfa956b247354017ef9e5a5,27,2022-02-12_13h21.20.321,lexical_decision_task_DD_L3,2021.2.3,Win32,60.07088364,,,,,,,,,,,0.6165,1,,,,,,,,,,,,,,,,,,,,,,,,-0.025925857,-0.350925939,0,0,0,,,,,,,STAIN,LB,z,m,./images/STAINLB.png,,,,,,,,,,,,,,,,,,,,,z,1,0.6165,,,,,,,,0,98,98,90,1
,,,,,,,,,,,,,,,,,5dfa956b247354017ef9e5a5,27,2022-02-12_13h21.20.321,lexical_decision_task_DD_L3,2021.2.3,Win32,60.07088364,,,,,,,,,,,1.021,1,,,,,,,,,,,,,,,,,,,,,,,,-0.025925857,-0.350925939,0,0,0,,,,,,,CRATER,LB,z,m,./images/CRATERLB.png,,,,,,,,,,,,,,,,,,,,,z,1,1.021,,,,,,,,0,99,99,87,1
,,,,,,,,,,,,,,,,,5dfa956b247354017ef9e5a5,27,2022-02-12_13h21.20.321,lexical_decision_task_DD_L3,2021.2.3,Win32,60.07088364,,,,,,,,,,,0.8458,1,,,,,,,,,,,,,,,,,,,,,,,,-0.025925857,-0.350925939,0,0,0,,,,,,,LIZARD,HB,m,m,./images/LIZARDHB.png,,,,,,,,,,,,,,,,,,,,,m,1,0.8458,,,,,,,,0,100,100,44,1
,,,,,,,,,,,,,,,,,5dfa956b247354017ef9e5a5,27,2022-02-12_13h21.20.321,lexical_decision_task_DD_L3,2021.2.3,Win32,60.07088364,,,,,,,,,,,0.6154,1,,,,,,,,,,,,,,,,,,,,,,,,-0.025925857,-0.350925939,0,0,0,,,,,,,RULER,C,z,m,./images/RULER.png,,,,,,,,,,,,,,,,,,,,,z,1,0.6154,,,,,,,,0,101,101,163,1
,,,,,,,,,,,,,,,,,5dfa956b247354017ef9e5a5,27,2022-02-12_13h21.20.321,lexical_decision_task_DD_L3,2021.2.3,Win32,60.07088364,,,,,,,,,,,0.7668,1,,,,,,,,,,,,,,,,,,,,,,,,-0.025925857,-0.350925939,0,0,0,,,,,,,PARADE,HB,z,m,./images/PARADEHB.png,,,,,,,,,,,,,,,,,,,,,z,1,0.7668,,,,,,,,0,102,102,101,1
,,,,,,,,,,,,,,,,,5dfa956b247354017ef9e5a5,27,2022-02-12_13h21.20.321,lexical_decision_task_DD_L3,2021.2.3,Win32,60.07088364,,,,,,,,,,,0.6487,1,,,,,,,,,,,,,,,,,,,,,,,,-0.025925857,-0.350925939,0,0,0,,,,,,,QUILL,C,m,m,./images/QUILL.png,,,,,,,,,,,,,,,,,,,,,m,1,0.6487,,,,,,,,0,103,103,31,1
,,,,,,,,,,,,,,,,,5dfa956b247354017ef9e5a5,27,2022-02-12_13h21.20.321,lexical_decision_task_DD_L3,2021.2.3,Win32,60.07088364,,,,,,,,,,,0.5467,0,,,,,,,,,,,,,,,,,,,,,,,,-0.025925857,-0.350925939,0,0,0,,,,,,,GRAIN,LB,m,m,./images/GRAINLB.png,,,,,,,,,,,,,,,,,,,,,z,0,0.5467,,,,,,,,0,104,104,75,1
,,,,,,,,,,,,,,,,,5dfa956b247354017ef9e5a5,27,2022-02-12_13h21.20.321,lexical_decision_task_DD_L3,2021.2.3,Win32,60.07088364,,,,,,,,,,,0.6628,1,,,,,,,,,,,,,,,,,,,,,,,,-0.025925857,-0.350925939,0,0,0,,,,,,,GLOVE,C,z,m,./images/GLOVE.png,,,,,,,,,,,,,,,,,,,,,z,1,0.6628,,,,,,,,0,105,105,157,1
,,,,,,,,,,,,,,,,,5dfa956b247354017ef9e5a5,27,2022-02-12_13h21.20.321,lexical_decision_task_DD_L3,2021.2.3,Win32,60.07088364,,,,,,,,,,,0.9128,1,,,,,,,,,,,,,,,,,,,,,,,,-0.025925857,-0.350925939,0,0,0,,,,,,,POSTER,HB,z,m,./images/POSTERHB.png,,,,,,,,,,,,,,,,,,,,,z,1,0.9128,,,,,,,,0,106,106,137,1
,,,,,,,,,,,,,,,,,5dfa956b247354017ef9e5a5,27,2022-02-12_13h21.20.321,lexical_decision_task_DD_L3,2021.2.3,Win32,60.07088364,,,,,,,,,,,0.6815,0,,,,,,,,,,,,,,,,,,,,,,,,-0.025925857,-0.350925939,0,0,0,,,,,,,SMOKER,HB,m,m,./images/SMOKERHB.png,,,,,,,,,,,,,,,,,,,,,z,0,0.6815,,,,,,,,0,107,107,26,1
,,,,,,,,,,,,,,,,,5dfa956b247354017ef9e5a5,27,2022-02-12_13h21.20.321,lexical_decision_task_DD_L3,2021.2.3,Win32,60.07088364,,,,,,,,,,,0.6383,1,,,,,,,,,,,,,,,,,,,,,,,,-0.025925857,-0.350925939,0,0,0,,,,,,,PEBBLE,C,z,m,./images/PEBBLE.png,,,,,,,,,,,,,,,,,,,,,z,1,0.6383,,,,,,,,0,108,108,166,1
,,,,,,,,,,,,,,,,,5dfa956b247354017ef9e5a5,27,2022-02-12_13h21.20.321,lexical_decision_task_DD_L3,2021.2.3,Win32,60.07088364,,,,,,,,,,,1.0314,0,,,,,,,,,,,,,,,,,,,,,,,,-0.025925857,-0.350925939,0,0,0,,,,,,,BOXER,C,z,m,./images/BOXER.png,,,,,,,,,,,,,,,,,,,,,m,0,1.0314,,,,,,,,0,109,109,88,1
,,,,,,,,,,,,,,,,,5dfa956b247354017ef9e5a5,27,2022-02-12_13h21.20.321,lexical_decision_task_DD_L3,2021.2.3,Win32,60.07088364,,,,,,,,,,,0.6182,1,,,,,,,,,,,,,,,,,,,,,,,,-0.025925857,-0.350925939,0,0,0,,,,,,,STREAM,HB,z,m,./images/STREAMHB.png,,,,,,,,,,,,,,,,,,,,,z,1,0.6182,,,,,,,,0,110,110,125,1
,,,,,,,,,,,,,,,,,5dfa956b247354017ef9e5a5,27,2022-02-12_13h21.20.321,lexical_decision_task_DD_L3,2021.2.3,Win32,60.07088364,,,,,,,,,,,0.5137,0,,,,,,,,,,,,,,,,,,,,,,,,-0.025925857,-0.350925939,0,0,0,,,,,,,WRIST,C,m,m,./images/WRIST.png,,,,,,,,,,,,,,,,,,,,,z,0,0.5137,,,,,,,,0,111,111,25,1
,,,,,,,,,,,,,,,,,5dfa956b247354017ef9e5a5,27,2022-02-12_13h21.20.321,lexical_decision_task_DD_L3,2021.2.3,Win32,60.07088364,,,,,,,,,,,0.594,1,,,,,,,,,,,,,,,,,,,,,,,,-0.025925857,-0.350925939,0,0,0,,,,,,,DANCER,LB,z,m,./images/DANCERLB.png,,,,,,,,,,,,,,,,,,,,,z,1,0.594,,,,,,,,0,112,112,105,1
,,,,,,,,,,,,,,,,,5dfa956b247354017ef9e5a5,27,2022-02-12_13h21.20.321,lexical_decision_task_DD_L3,2021.2.3,Win32,60.07088364,,,,,,,,,,,0.6383,1,,,,,,,,,,,,,,,,,,,,,,,,-0.025925857,-0.350925939,0,0,0,,,,,,,URINE,C,m,m,./images/URINE.png,,,,,,,,,,,,,,,,,,,,,m,1,0.6383,,,,,,,,0,113,113,70,1
,,,,,,,,,,,,,,,,,5dfa956b247354017ef9e5a5,27,2022-02-12_13h21.20.321,lexical_decision_task_DD_L3,2021.2.3,Win32,60.07088364,,,,,,,,,,,0.6157,0,,,,,,,,,,,,,,,,,,,,,,,,-0.025925857,-0.350925939,0,0,0,,,,,,,BISHOP,C,z,m,./images/BISHOP.png,,,,,,,,,,,,,,,,,,,,,m,0,0.6157,,,,,,,,0,114,114,133,1
,,,,,,,,,,,,,,,,,5dfa956b247354017ef9e5a5,27,2022-02-12_13h21.20.321,lexical_decision_task_DD_L3,2021.2.3,Win32,60.07088364,,,,,,,,,,,0.8709,0,,,,,,,,,,,,,,,,,,,,,,,,-0.025925857,-0.350925939,0,0,0,,,,,,,SQUARE,LB,m,m,./images/SQUARELB.png,,,,,,,,,,,,,,,,,,,,,z,0,0.8709,,,,,,,,0,115,115,6,1
,,,,,,,,,,,,,,,,,5dfa956b247354017ef9e5a5,27,2022-02-12_13h21.20.321,lexical_decision_task_DD_L3,2021.2.3,Win32,60.07088364,,,,,,,,,,,0.5964,0,,,,,,,,,,,,,,,,,,,,,,,,-0.025925857,-0.350925939,0,0,0,,,,,,,BEARD,HB,m,m,./images/BEARDHB.png,,,,,,,,,,,,,,,,,,,,,z,0,0.5964,,,,,,,,0,116,116,2,1
,,,,,,,,,,,,,,,,,5dfa956b247354017ef9e5a5,27,2022-02-12_13h21.20.321,lexical_decision_task_DD_L3,2021.2.3,Win32,60.07088364,,,,,,,,,,,0.6979,0,,,,,,,,,,,,,,,,,,,,,,,,-0.025925857,-0.350925939,0,0,0,,,,,,,KITTEN,LB,m,m,./images/KITTENLB.png,,,,,,,,,,,,,,,,,,,,,z,0,0.6979,,,,,,,,0,117,117,45,1
,,,,,,,,,,,,,,,,,5dfa956b247354017ef9e5a5,27,2022-02-12_13h21.20.321,lexical_decision_task_DD_L3,2021.2.3,Win32,60.07088364,,,,,,,,,,,0.7633,1,,,,,,,,,,,,,,,,,,,,,,,,-0.025925857,-0.350925939,0,0,0,,,,,,,PLANET,HB,z,m,./images/PLANETHB.png,,,,,,,,,,,,,,,,,,,,,z,1,0.7633,,,,,,,,0,118,118,164,1
,,,,,,,,,,,,,,,,,5dfa956b247354017ef9e5a5,27,2022-02-12_13h21.20.321,lexical_decision_task_DD_L3,2021.2.3,Win32,60.07088364,,,,,,,,,,,0.6833,1,,,,,,,,,,,,,,,,,,,,,,,,-0.025925857,-0.350925939,0,0,0,,,,,,,TRIPOD,LB,m,m,./images/TRIPODLB.png,,,,,,,,,,,,,,,,,,,,,m,1,0.6833,,,,,,,,0,119,119,54,1
,,,,,,,,,,,,,,,,,5dfa956b247354017ef9e5a5,27,2022-02-12_13h21.20.321,lexical_decision_task_DD_L3,2021.2.3,Win32,60.07088364,,,,,,,,,,,0.6898,1,,,,,,,,,,,,,,,,,,,,,,,,-0.025925857,-0.350925939,0,0,0,,,,,,,STORM,LB,m,m,./images/STORMLB.png,,,,,,,,,,,,,,,,,,,,,m,1,0.6898,,,,,,,,0,120,120,30,1
,,,,,,,,,,,,,,,,,5dfa956b247354017ef9e5a5,27,2022-02-12_13h21.20.321,lexical_decision_task_DD_L3,2021.2.3,Win32,60.07088364,,,,,,,,,,,0.7987,1,,,,,,,,,,,,,,,,,,,,,,,,-0.025925857,-0.350925939,0,0,0,,,,,,,FALCON,C,m,m,./images/FALCON.png,,,,,,,,,,,,,,,,,,,,,m,1,0.7987,,,,,,,,0,121,121,28,1
,,,,,,,,,,,,,,,,,5dfa956b247354017ef9e5a5,27,2022-02-12_13h21.20.321,lexical_decision_task_DD_L3,2021.2.3,Win32,60.07088364,,,,,,,,,,,0.8613,1,,,,,,,,,,,,,,,,,,,,,,,,-0.025925857,-0.350925939,0,0,0,,,,,,,WHEEL,HB,z,m,./images/WHEELHB.png,,,,,,,,,,,,,,,,,,,,,z,1,0.8613,,,,,,,,0,122,122,161,1
,,,,,,,,,,,,,,,,,5dfa956b247354017ef9e5a5,27,2022-02-12_13h21.20.321,lexical_decision_task_DD_L3,2021.2.3,Win32,60.07088364,,,,,,,,,,,0.6779,1,,,,,,,,,,,,,,,,,,,,,,,,-0.025925857,-0.350925939,0,0,0,,,,,,,JELLY,C,m,m,./images/JELLY.png,,,,,,,,,,,,,,,,,,,,,m,1,0.6779,,,,,,,,0,123,123,64,1
,,,,,,,,,,,,,,,,,5dfa956b247354017ef9e5a5,27,2022-02-12_13h21.20.321,lexical_decision_task_DD_L3,2021.2.3,Win32,60.07088364,,,,,,,,,,,0.682,0,,,,,,,,,,,,,,,,,,,,,,,,-0.025925857,-0.350925939,0,0,0,,,,,,,ARROW,LB,z,m,./images/ARROWLB.png,,,,,,,,,,,,,,,,,,,,,m,0,0.682,,,,,,,,0,124,124,153,1
,,,,,,,,,,,,,,,,,5dfa956b247354017ef9e5a5,27,2022-02-12_13h21.20.321,lexical_decision_task_DD_L3,2021.2.3,Win32,60.07088364,,,,,,,,,,,0.7146,1,,,,,,,,,,,,,,,,,,,,,,,,-0.025925857,-0.350925939,0,0,0,space,,,,,,WEASEL,HB,m,m,./images/WEASELHB.png,1.3527,,,,,,,,,,,,,,,,,,,,m,1,0.7146,,,,,,,,0,125,125,80,1
,,,,,,,,,,,,,,,,,5dfa956b247354017ef9e5a5,27,2022-02-12_13h21.20.321,lexical_decision_task_DD_L3,2021.2.3,Win32,60.07088364,,,,,,,,,,,0.7625,0,,,,,,,,,,,,,,,,,,,,,,,,-0.025925857,-0.350925939,0,0,0,,,,,,,BONNET,HB,m,m,./images/BONNETHB.png,,,,,,,,,,,,,,,,,,,,,z,0,0.7625,,,,,,,,0,126,126,11,1
,,,,,,,,,,,,,,,,,5dfa956b247354017ef9e5a5,27,2022-02-12_13h21.20.321,lexical_decision_task_DD_L3,2021.2.3,Win32,60.07088364,,,,,,,,,,,0.6996,0,,,,,,,,,,,,,,,,,,,,,,,,-0.025925857,-0.350925939,0,0,0,,,,,,,SHIELD,LB,z,m,./images/SHIELDLB.png,,,,,,,,,,,,,,,,,,,,,m,0,0.6996,,,,,,,,0,127,127,132,1
,,,,,,,,,,,,,,,,,5dfa956b247354017ef9e5a5,27,2022-02-12_13h21.20.321,lexical_decision_task_DD_L3,2021.2.3,Win32,60.07088364,,,,,,,,,,,1.2005,0,,,,,,,,,,,,,,,,,,,,,,,,-0.025925857,-0.350925939,0,0,0,,,,,,,MEDAL,HB,z,m,./images/MEDALHB.png,,,,,,,,,,,,,,,,,,,,,m,0,1.2005,,,,,,,,0,128,128,95,1
,,,,,,,,,,,,,,,,,5dfa956b247354017ef9e5a5,27,2022-02-12_13h21.20.321,lexical_decision_task_DD_L3,2021.2.3,Win32,60.07088364,,,,,,,,,,,1.0317,1,,,,,,,,,,,,,,,,,,,,,,,,-0.025925857,-0.350925939,0,0,0,,,,,,,BANNER,C,m,m,./images/BANNER.png,,,,,,,,,,,,,,,,,,,,,m,1,1.0317,,,,,,,,0,129,129,52,1
,,,,,,,,,,,,,,,,,5dfa956b247354017ef9e5a5,27,2022-02-12_13h21.20.321,lexical_decision_task_DD_L3,2021.2.3,Win32,60.07088364,,,,,,,,,,,0.8007,1,,,,,,,,,,,,,,,,,,,,,,,,-0.025925857,-0.350925939,0,0,0,,,,,,,POODLE,LB,m,m,./images/POODLELB.png,,,,,,,,,,,,,,,,,,,,,m,1,0.8007,,,,,,,,0,130,130,81,1
,,,,,,,,,,,,,,,,,5dfa956b247354017ef9e5a5,27,2022-02-12_13h21.20.321,lexical_decision_task_DD_L3,2021.2.3,Win32,60.07088364,,,,,,,,,,,0.8485,1,,,,,,,,,,,,,,,,,,,,,,,,-0.025925857,-0.350925939,0,0,0,,,,,,,MAGGOT,LB,m,m,./images/MAGGOTLB.png,,,,,,,,,,,,,,,,,,,,,m,1,0.8485,,,,,,,,0,131,131,33,1
