key_resp.keys,key_resp.rt,instr_done_touch.x,instr_done_touch.y,instr_done_touch.leftButton,instr_done_touch.midButton,instr_done_touch.rightButton,instruction_pages.thisRepN,instruction_pages.thisTrialN,instruction_pages.thisN,instruction_pages.thisIndex,instruction_pages.ran,pageN,phase,instruct_text,has_image,instruct_image,participant,age,date,expName,psychopyVersion,OS,frameRate,response.keys,response.corr,response.rt,touch_resp.x,touch_resp.y,touch_resp.leftButton,touch_resp.midButton,touch_resp.rightButton,touch_resp.time,touch_resp.clicked_name,rt,corr,practrials.thisRepN,practrials.thisTrialN,practrials.thisN,practrials.thisIndex,practrials.ran,TrialID,Target,corrAns,end_of_practice_trials_pages.thisRepN,end_of_practice_trials_pages.thisTrialN,end_of_practice_trials_pages.thisN,end_of_practice_trials_pages.thisIndex,end_of_practice_trials_pages.ran,key_resp_2.keys,key_resp_2.corr,key_resp_2.rt,targ_click.x,targ_click.y,targ_click.leftButton,targ_click.midButton,targ_click.rightButton,targ_click.time,targ_click.clicked_name,break_done_touch.x,break_done_touch.y,break_done_touch.leftButton,break_done_touch.midButton,break_done_touch.rightButton,break_done_keyboard.keys,maintrials.thisRepN,maintrials.thisTrialN,maintrials.thisN,maintrials.thisIndex,maintrials.ran,string,blur,study,lex,stim_path,break_done_keyboard.rt,mouse_2.x,mouse_2.y,mouse_2.leftButton,mouse_2.midButton,mouse_2.rightButton,mouse_2.clicked_name,slider.response,slider.rt,trials.thisRepN,trials.thisTrialN,trials.thisN,trials.thisIndex,trials.ran,test_instructions.thisRepN,test_instructions.thisTrialN,test_instructions.thisN,test_instructions.thisIndex,test_instructions.ran,instr_done_touch.clicked_name,key_resp_3.keys,key_resp_3.corr,key_resp_3.rt,test_click.x,test_click.y,test_click.leftButton,test_click.midButton,test_click.rightButton,test_click.time,test_click.clicked_name,test_phase.thisRepN,test_phase.thisTrialN,test_phase.thisN,test_phase.thisIndex,test_phase.ran
space,20.169,0.218518535,-0.181481492,0,0,0,0,0,0,0,1,1,instructions,"INSTRUCTIONS
At the start of each trial, look at the plus sign  (+) in the center of the screen.  This tells you that a trial is about to begin and where to look. Second, the plus sign will disappear and a string of letters will appear. Your task is to determine if the string of letters is a word or not. If the item is a word press the M key (on keyboard)  or touch the word button (phone/tablet).  If the item is not a word,  press the  Z key (on keyboard)  or touch the nonword button (on phone/tablet). 
Press the space bar or touch  continue.",0,,5f0d6c9bb43cfb0182a9d464,20,2022-02-12_13h40.33.710,lexical_decision_task_DD_L3,2021.2.3,Win32,60.09254252,,,,,,,,,,,,,,,,,,,,,,,,,,,,,,,,,,,,,,,,,,,,,,,,,,,,,,,,,,,,,,,,,,,,,,,,,,,,,,,,,,,,,,
space,4.7389,0.218518535,-0.181481492,0,0,0,0,1,1,1,1,2,instructions,"If your device has a keyboard, press the 'Z' key for nonwords and the 'M' key for words.





Press the space bar or touch the button below to continue.",0,keyboard-example.gif,5f0d6c9bb43cfb0182a9d464,20,2022-02-12_13h40.33.710,lexical_decision_task_DD_L3,2021.2.3,Win32,60.09254252,,,,,,,,,,,,,,,,,,,,,,,,,,,,,,,,,,,,,,,,,,,,,,,,,,,,,,,,,,,,,,,,,,,,,,,,,,,,,,,,,,,,,,
space,3.625,0.218518535,-0.181481492,0,0,0,0,2,2,2,1,3,instructions,"If you are using a touchscreen only device, use the buttons on the screen. Do not use the mouse.





Press the space bar or touch the button below to continue.",0,touchscreen-example.gif,5f0d6c9bb43cfb0182a9d464,20,2022-02-12_13h40.33.710,lexical_decision_task_DD_L3,2021.2.3,Win32,60.09254252,,,,,,,,,,,,,,,,,,,,,,,,,,,,,,,,,,,,,,,,,,,,,,,,,,,,,,,,,,,,,,,,,,,,,,,,,,,,,,,,,,,,,,
space,6.4583,0.218518535,-0.181481492,0,0,0,0,3,3,3,1,4,instructions,"It is very important that you respond as quickly and accurately as possible, as each letter string will only be on the screen for two seconds. If you do not respond within this time, the message 'Too slow!' will be displayed and the experiment will progress to the next letter string. The first 20 trials will be practice trials and you will receive feedback on your answers. 

Press the space bar or touch the button below to start the practice trials.",0,,5f0d6c9bb43cfb0182a9d464,20,2022-02-12_13h40.33.710,lexical_decision_task_DD_L3,2021.2.3,Win32,60.09254252,,,,,,,,,,,,,,,,,,,,,,,,,,,,,,,,,,,,,,,,,,,,,,,,,,,,,,,,,,,,,,,,,,,,,,,,,,,,,,,,,,,,,,
,,,,,,,,,,,,,,,,,5f0d6c9bb43cfb0182a9d464,20,2022-02-12_13h40.33.710,lexical_decision_task_DD_L3,2021.2.3,Win32,60.09254252,m,1,0.9495,,,,,,,,0.9495,1,0,0,0,2,1,1001,ALMOND,m,,,,,,,,,,,,,,,,,,,,,,,,,,,,,,,,,,,,,,,,,,,,,,,,,,,,,,,,,,,,,,,,,,
,,,,,,,,,,,,,,,,,5f0d6c9bb43cfb0182a9d464,20,2022-02-12_13h40.33.710,lexical_decision_task_DD_L3,2021.2.3,Win32,60.09254252,z,1,0.6391,,,,,,,,0.6391,1,0,1,1,15,1,1001,WHAISE,z,,,,,,,,,,,,,,,,,,,,,,,,,,,,,,,,,,,,,,,,,,,,,,,,,,,,,,,,,,,,,,,,,,
,,,,,,,,,,,,,,,,,5f0d6c9bb43cfb0182a9d464,20,2022-02-12_13h40.33.710,lexical_decision_task_DD_L3,2021.2.3,Win32,60.09254252,z,1,0.7736,,,,,,,,0.7736,1,0,2,2,14,1,1001,THRALE,z,,,,,,,,,,,,,,,,,,,,,,,,,,,,,,,,,,,,,,,,,,,,,,,,,,,,,,,,,,,,,,,,,,
,,,,,,,,,,,,,,,,,5f0d6c9bb43cfb0182a9d464,20,2022-02-12_13h40.33.710,lexical_decision_task_DD_L3,2021.2.3,Win32,60.09254252,z,1,1.1671,,,,,,,,1.1671,1,0,3,3,10,1,1001,INLADE,z,,,,,,,,,,,,,,,,,,,,,,,,,,,,,,,,,,,,,,,,,,,,,,,,,,,,,,,,,,,,,,,,,,
,,,,,,,,,,,,,,,,,5f0d6c9bb43cfb0182a9d464,20,2022-02-12_13h40.33.710,lexical_decision_task_DD_L3,2021.2.3,Win32,60.09254252,z,1,0.7039,,,,,,,,0.7039,1,0,4,4,8,1,1001,ASLERT,z,,,,,,,,,,,,,,,,,,,,,,,,,,,,,,,,,,,,,,,,,,,,,,,,,,,,,,,,,,,,,,,,,,
,,,,,,,,,,,,,,,,,5f0d6c9bb43cfb0182a9d464,20,2022-02-12_13h40.33.710,lexical_decision_task_DD_L3,2021.2.3,Win32,60.09254252,m,1,0.648,,,,,,,,0.648,1,0,5,5,4,1,1001,SQUEAK,m,,,,,,,,,,,,,,,,,,,,,,,,,,,,,,,,,,,,,,,,,,,,,,,,,,,,,,,,,,,,,,,,,,
,,,,,,,,,,,,,,,,,5f0d6c9bb43cfb0182a9d464,20,2022-02-12_13h40.33.710,lexical_decision_task_DD_L3,2021.2.3,Win32,60.09254252,z,1,0.6939,,,,,,,,0.6939,1,0,6,6,9,1,1001,FARINY,z,,,,,,,,,,,,,,,,,,,,,,,,,,,,,,,,,,,,,,,,,,,,,,,,,,,,,,,,,,,,,,,,,,
,,,,,,,,,,,,,,,,,5f0d6c9bb43cfb0182a9d464,20,2022-02-12_13h40.33.710,lexical_decision_task_DD_L3,2021.2.3,Win32,60.09254252,m,1,0.6814,,,,,,,,0.6814,1,0,7,7,1,1,1001,ADJUST,m,,,,,,,,,,,,,,,,,,,,,,,,,,,,,,,,,,,,,,,,,,,,,,,,,,,,,,,,,,,,,,,,,,
,,,,,,,,,,,,,,,,,5f0d6c9bb43cfb0182a9d464,20,2022-02-12_13h40.33.710,lexical_decision_task_DD_L3,2021.2.3,Win32,60.09254252,m,1,0.647,,,,,,,,0.647,1,0,8,8,3,1,1001,MATRIX,m,,,,,,,,,,,,,,,,,,,,,,,,,,,,,,,,,,,,,,,,,,,,,,,,,,,,,,,,,,,,,,,,,,
,,,,,,,,,,,,,,,,,5f0d6c9bb43cfb0182a9d464,20,2022-02-12_13h40.33.710,lexical_decision_task_DD_L3,2021.2.3,Win32,60.09254252,z,0,0.5759,,,,,,,,0.5759,0,0,9,9,5,1,1001,OBTAIN,m,,,,,,,,,,,,,,,,,,,,,,,,,,,,,,,,,,,,,,,,,,,,,,,,,,,,,,,,,,,,,,,,,,
,,,,,,,,,,,,,,,,,5f0d6c9bb43cfb0182a9d464,20,2022-02-12_13h40.33.710,lexical_decision_task_DD_L3,2021.2.3,Win32,60.09254252,m,1,0.5791,,,,,,,,0.5791,1,0,10,10,7,1,1001,VOLUME,m,,,,,,,,,,,,,,,,,,,,,,,,,,,,,,,,,,,,,,,,,,,,,,,,,,,,,,,,,,,,,,,,,,
,,,,,,,,,,,,,,,,,5f0d6c9bb43cfb0182a9d464,20,2022-02-12_13h40.33.710,lexical_decision_task_DD_L3,2021.2.3,Win32,60.09254252,z,1,0.7193,,,,,,,,0.7193,1,0,11,11,11,1,1001,RASHET,z,,,,,,,,,,,,,,,,,,,,,,,,,,,,,,,,,,,,,,,,,,,,,,,,,,,,,,,,,,,,,,,,,,
,,,,,,,,,,,,,,,,,5f0d6c9bb43cfb0182a9d464,20,2022-02-12_13h40.33.710,lexical_decision_task_DD_L3,2021.2.3,Win32,60.09254252,z,1,0.7535,,,,,,,,0.7535,1,0,12,12,12,1,1001,SPRINY,z,,,,,,,,,,,,,,,,,,,,,,,,,,,,,,,,,,,,,,,,,,,,,,,,,,,,,,,,,,,,,,,,,,
,,,,,,,,,,,,,,,,,5f0d6c9bb43cfb0182a9d464,20,2022-02-12_13h40.33.710,lexical_decision_task_DD_L3,2021.2.3,Win32,60.09254252,z,1,0.7468,,,,,,,,0.7468,1,0,13,13,13,1,1001,ROUPET,z,,,,,,,,,,,,,,,,,,,,,,,,,,,,,,,,,,,,,,,,,,,,,,,,,,,,,,,,,,,,,,,,,,
,,,,,,,,,,,,,,,,,5f0d6c9bb43cfb0182a9d464,20,2022-02-12_13h40.33.710,lexical_decision_task_DD_L3,2021.2.3,Win32,60.09254252,m,1,0.625,,,,,,,,0.625,1,0,14,14,6,1,1001,ZOMBIE,m,,,,,,,,,,,,,,,,,,,,,,,,,,,,,,,,,,,,,,,,,,,,,,,,,,,,,,,,,,,,,,,,,,
,,,,,,,,,,,,,,,,,5f0d6c9bb43cfb0182a9d464,20,2022-02-12_13h40.33.710,lexical_decision_task_DD_L3,2021.2.3,Win32,60.09254252,m,1,0.69,,,,,,,,0.69,1,0,15,15,0,1,1001,UTOPIA,m,,,,,,,,,,,,,,,,,,,,,,,,,,,,,,,,,,,,,,,,,,,,,,,,,,,,,,,,,,,,,,,,,,
space,6.4668,0.218518535,-0.181481492,0,0,0,,,,,,1,end_of_practice,"You have completed the practice trials. During the experimental trials, you will not receive feedback. 
Before you begin, please ensure that you are in a comfortable and quiet location and will not be disturbed for about 15 minutes, as we cannot use your data if you do not complete all the trials. 
 When you are ready to start the experimental trials, please press space or touch the button below.",,,5f0d6c9bb43cfb0182a9d464,20,2022-02-12_13h40.33.710,lexical_decision_task_DD_L3,2021.2.3,Win32,60.09254252,,,,,,,,,,,,,,,,,,,,,0,0,0,0,1,,,,,,,,,,,,,,,,,,,,,,,,,,,,,,,,,,,,,,,,,,,,,,,,,,,,,,,,,,,,,
,,,,,,,,,,,,,,,,,5f0d6c9bb43cfb0182a9d464,20,2022-02-12_13h40.33.710,lexical_decision_task_DD_L3,2021.2.3,Win32,60.09254252,,,,,,,,,,,0.6249,1,,,,,,,,,,,,,,z,1,0.6249,,,,,,,,0.218518535,-0.181481492,0,0,0,,0,0,0,135,1,JOODY,C,old,z,./images/JOODY.png,,,,,,,,,,,,,,,,,,,,,,,,,,,,,,,,,,,
,,,,,,,,,,,,,,,,,5f0d6c9bb43cfb0182a9d464,20,2022-02-12_13h40.33.710,lexical_decision_task_DD_L3,2021.2.3,Win32,60.09254252,,,,,,,,,,,0.6109,1,,,,,,,,,,,,,,m,1,0.6109,,,,,,,,0.218518535,-0.181481492,0,0,0,,0,1,1,73,1,SNACK,C,old,m,./images/SNACK.png,,,,,,,,,,,,,,,,,,,,,,,,,,,,,,,,,,,
,,,,,,,,,,,,,,,,,5f0d6c9bb43cfb0182a9d464,20,2022-02-12_13h40.33.710,lexical_decision_task_DD_L3,2021.2.3,Win32,60.09254252,,,,,,,,,,,0.6528,1,,,,,,,,,,,,,,z,1,0.6528,,,,,,,,0.218518535,-0.181481492,0,0,0,,0,2,2,123,1,SEDGE,C,old,z,./images/SEDGE.png,,,,,,,,,,,,,,,,,,,,,,,,,,,,,,,,,,,
,,,,,,,,,,,,,,,,,5f0d6c9bb43cfb0182a9d464,20,2022-02-12_13h40.33.710,lexical_decision_task_DD_L3,2021.2.3,Win32,60.09254252,,,,,,,,,,,1.6878,0,,,,,,,,,,,,,,z,0,1.6878,,,,,,,,0.218518535,-0.181481492,0,0,0,,0,3,3,50,1,MALLET,HB,old,m,./images/MALLETHB.png,,,,,,,,,,,,,,,,,,,,,,,,,,,,,,,,,,,
,,,,,,,,,,,,,,,,,5f0d6c9bb43cfb0182a9d464,20,2022-02-12_13h40.33.710,lexical_decision_task_DD_L3,2021.2.3,Win32,60.09254252,,,,,,,,,,,0.8131,1,,,,,,,,,,,,,,z,1,0.8131,,,,,,,,0.218518535,-0.181481492,0,0,0,,0,4,4,132,1,SCIFF,C,old,z,./images/SCIFF.png,,,,,,,,,,,,,,,,,,,,,,,,,,,,,,,,,,,
,,,,,,,,,,,,,,,,,5f0d6c9bb43cfb0182a9d464,20,2022-02-12_13h40.33.710,lexical_decision_task_DD_L3,2021.2.3,Win32,60.09254252,,,,,,,,,,,0.7526,1,,,,,,,,,,,,,,m,1,0.7526,,,,,,,,0.218518535,-0.181481492,0,0,0,,0,5,5,1,1,PLANK,C,old,m,./images/PLANK.png,,,,,,,,,,,,,,,,,,,,,,,,,,,,,,,,,,,
,,,,,,,,,,,,,,,,,5f0d6c9bb43cfb0182a9d464,20,2022-02-12_13h40.33.710,lexical_decision_task_DD_L3,2021.2.3,Win32,60.09254252,,,,,,,,,,,0.5649,1,,,,,,,,,,,,,,m,1,0.5649,,,,,,,,0.218518535,-0.181481492,0,0,0,,0,6,6,61,1,CANDLE,C,old,m,./images/CANDLE.png,,,,,,,,,,,,,,,,,,,,,,,,,,,,,,,,,,,
,,,,,,,,,,,,,,,,,5f0d6c9bb43cfb0182a9d464,20,2022-02-12_13h40.33.710,lexical_decision_task_DD_L3,2021.2.3,Win32,60.09254252,,,,,,,,,,,1.1006,1,,,,,,,,,,,,,,z,1,1.1006,,,,,,,,0.218518535,-0.181481492,0,0,0,,0,7,7,97,1,CHIDS,HB,old,z,./images/CHIDSHB.png,,,,,,,,,,,,,,,,,,,,,,,,,,,,,,,,,,,
,,,,,,,,,,,,,,,,,5f0d6c9bb43cfb0182a9d464,20,2022-02-12_13h40.33.710,lexical_decision_task_DD_L3,2021.2.3,Win32,60.09254252,,,,,,,,,,,1.073,0,,,,,,,,,,,,,,z,0,1.073,,,,,,,,0.218518535,-0.181481492,0,0,0,,0,8,8,71,1,PIMPLE,HB,old,m,./images/PIMPLEHB.png,,,,,,,,,,,,,,,,,,,,,,,,,,,,,,,,,,,
,,,,,,,,,,,,,,,,,5f0d6c9bb43cfb0182a9d464,20,2022-02-12_13h40.33.710,lexical_decision_task_DD_L3,2021.2.3,Win32,60.09254252,,,,,,,,,,,1.259,1,,,,,,,,,,,,,,m,1,1.259,,,,,,,,0.218518535,-0.181481492,0,0,0,,0,9,9,54,1,TRIPOD,LB,old,m,./images/TRIPODLB.png,,,,,,,,,,,,,,,,,,,,,,,,,,,,,,,,,,,
,,,,,,,,,,,,,,,,,5f0d6c9bb43cfb0182a9d464,20,2022-02-12_13h40.33.710,lexical_decision_task_DD_L3,2021.2.3,Win32,60.09254252,,,,,,,,,,,1.6628,1,,,,,,,,,,,,,,z,1,1.6628,,,,,,,,0.218518535,-0.181481492,0,0,0,,0,10,10,139,1,BLEAR,HB,old,z,./images/BLEARHB.png,,,,,,,,,,,,,,,,,,,,,,,,,,,,,,,,,,,
,,,,,,,,,,,,,,,,,5f0d6c9bb43cfb0182a9d464,20,2022-02-12_13h40.33.710,lexical_decision_task_DD_L3,2021.2.3,Win32,60.09254252,,,,,,,,,,,0.7258,1,,,,,,,,,,,,,,m,1,0.7258,,,,,,,,0.218518535,-0.181481492,0,0,0,,0,11,11,69,1,COOKER,LB,old,m,./images/COOKERLB.png,,,,,,,,,,,,,,,,,,,,,,,,,,,,,,,,,,,
,,,,,,,,,,,,,,,,,5f0d6c9bb43cfb0182a9d464,20,2022-02-12_13h40.33.710,lexical_decision_task_DD_L3,2021.2.3,Win32,60.09254252,,,,,,,,,,,0.9339,1,,,,,,,,,,,,,,z,1,0.9339,,,,,,,,0.218518535,-0.181481492,0,0,0,,0,12,12,104,1,GITTY,LB,old,z,./images/GITTYLB.png,,,,,,,,,,,,,,,,,,,,,,,,,,,,,,,,,,,
,,,,,,,,,,,,,,,,,5f0d6c9bb43cfb0182a9d464,20,2022-02-12_13h40.33.710,lexical_decision_task_DD_L3,2021.2.3,Win32,60.09254252,,,,,,,,,,,1.1545,1,,,,,,,,,,,,,,z,1,1.1545,,,,,,,,0.218518535,-0.181481492,0,0,0,,0,13,13,154,1,THINT,HB,old,z,./images/THINTHB.png,,,,,,,,,,,,,,,,,,,,,,,,,,,,,,,,,,,
,,,,,,,,,,,,,,,,,5f0d6c9bb43cfb0182a9d464,20,2022-02-12_13h40.33.710,lexical_decision_task_DD_L3,2021.2.3,Win32,60.09254252,,,,,,,,,,,0.8183,1,,,,,,,,,,,,,,m,1,0.8183,,,,,,,,0.218518535,-0.181481492,0,0,0,,0,14,14,16,1,PENCE,C,old,m,./images/PENCE.png,,,,,,,,,,,,,,,,,,,,,,,,,,,,,,,,,,,
,,,,,,,,,,,,,,,,,5f0d6c9bb43cfb0182a9d464,20,2022-02-12_13h40.33.710,lexical_decision_task_DD_L3,2021.2.3,Win32,60.09254252,,,,,,,,,,,1.2198,1,,,,,,,,,,,,,,m,1,1.2198,,,,,,,,0.218518535,-0.181481492,0,0,0,,0,15,15,2,1,BEARD,HB,old,m,./images/BEARDHB.png,,,,,,,,,,,,,,,,,,,,,,,,,,,,,,,,,,,
,,,,,,,,,,,,,,,,,5f0d6c9bb43cfb0182a9d464,20,2022-02-12_13h40.33.710,lexical_decision_task_DD_L3,2021.2.3,Win32,60.09254252,,,,,,,,,,,1.0943,1,,,,,,,,,,,,,,m,1,1.0943,,,,,,,,0.218518535,-0.181481492,0,0,0,,0,16,16,11,1,BONNET,HB,old,m,./images/BONNETHB.png,,,,,,,,,,,,,,,,,,,,,,,,,,,,,,,,,,,
,,,,,,,,,,,,,,,,,5f0d6c9bb43cfb0182a9d464,20,2022-02-12_13h40.33.710,lexical_decision_task_DD_L3,2021.2.3,Win32,60.09254252,,,,,,,,,,,1.3238,1,,,,,,,,,,,,,,z,1,1.3238,,,,,,,,0.218518535,-0.181481492,0,0,0,,0,17,17,162,1,LEICH,C,old,z,./images/LEICH.png,,,,,,,,,,,,,,,,,,,,,,,,,,,,,,,,,,,
,,,,,,,,,,,,,,,,,5f0d6c9bb43cfb0182a9d464,20,2022-02-12_13h40.33.710,lexical_decision_task_DD_L3,2021.2.3,Win32,60.09254252,,,,,,,,,,,0.8593,1,,,,,,,,,,,,,,z,1,0.8593,,,,,,,,0.218518535,-0.181481492,0,0,0,,0,18,18,134,1,TROSS,LB,old,z,./images/TROSSLB.png,,,,,,,,,,,,,,,,,,,,,,,,,,,,,,,,,,,
,,,,,,,,,,,,,,,,,5f0d6c9bb43cfb0182a9d464,20,2022-02-12_13h40.33.710,lexical_decision_task_DD_L3,2021.2.3,Win32,60.09254252,,,,,,,,,,,0.8749,1,,,,,,,,,,,,,,m,1,0.8749,,,,,,,,0.218518535,-0.181481492,0,0,0,,0,19,19,38,1,LADDER,HB,old,m,./images/LADDERHB.png,,,,,,,,,,,,,,,,,,,,,,,,,,,,,,,,,,,
,,,,,,,,,,,,,,,,,5f0d6c9bb43cfb0182a9d464,20,2022-02-12_13h40.33.710,lexical_decision_task_DD_L3,2021.2.3,Win32,60.09254252,,,,,,,,,,,1.0899,0,,,,,,,,,,,,,,m,0,1.0899,,,,,,,,0.218518535,-0.181481492,0,0,0,,0,20,20,142,1,PLASK,HB,old,z,./images/PLASKHB.png,,,,,,,,,,,,,,,,,,,,,,,,,,,,,,,,,,,
,,,,,,,,,,,,,,,,,5f0d6c9bb43cfb0182a9d464,20,2022-02-12_13h40.33.710,lexical_decision_task_DD_L3,2021.2.3,Win32,60.09254252,,,,,,,,,,,0.6371,1,,,,,,,,,,,,,,m,1,0.6371,,,,,,,,0.218518535,-0.181481492,0,0,0,,0,21,21,51,1,ONION,LB,old,m,./images/ONIONLB.png,,,,,,,,,,,,,,,,,,,,,,,,,,,,,,,,,,,
,,,,,,,,,,,,,,,,,5f0d6c9bb43cfb0182a9d464,20,2022-02-12_13h40.33.710,lexical_decision_task_DD_L3,2021.2.3,Win32,60.09254252,,,,,,,,,,,0.6562,1,,,,,,,,,,,,,,m,1,0.6562,,,,,,,,0.218518535,-0.181481492,0,0,0,,0,22,22,70,1,URINE,C,old,m,./images/URINE.png,,,,,,,,,,,,,,,,,,,,,,,,,,,,,,,,,,,
,,,,,,,,,,,,,,,,,5f0d6c9bb43cfb0182a9d464,20,2022-02-12_13h40.33.710,lexical_decision_task_DD_L3,2021.2.3,Win32,60.09254252,,,,,,,,,,,0.6219,1,,,,,,,,,,,,,,m,1,0.6219,,,,,,,,0.218518535,-0.181481492,0,0,0,,0,23,23,33,1,MAGGOT,LB,old,m,./images/MAGGOTLB.png,,,,,,,,,,,,,,,,,,,,,,,,,,,,,,,,,,,
,,,,,,,,,,,,,,,,,5f0d6c9bb43cfb0182a9d464,20,2022-02-12_13h40.33.710,lexical_decision_task_DD_L3,2021.2.3,Win32,60.09254252,,,,,,,,,,,1.9874,1,,,,,,,,,,,,,,z,1,1.9874,,,,,,,,0.218518535,-0.181481492,0,0,0,,0,24,24,130,1,CRILL,HB,old,z,./images/CRILLHB.png,,,,,,,,,,,,,,,,,,,,,,,,,,,,,,,,,,,
,,,,,,,,,,,,,,,,,5f0d6c9bb43cfb0182a9d464,20,2022-02-12_13h40.33.710,lexical_decision_task_DD_L3,2021.2.3,Win32,60.09254252,,,,,,,,,,,1.0674,0,,,,,,,,,,,,,,z,0,1.0674,,,,,,,,0.218518535,-0.181481492,0,0,0,,0,25,25,59,1,BURIAL,HB,old,m,./images/BURIALHB.png,,,,,,,,,,,,,,,,,,,,,,,,,,,,,,,,,,,
,,,,,,,,,,,,,,,,,5f0d6c9bb43cfb0182a9d464,20,2022-02-12_13h40.33.710,lexical_decision_task_DD_L3,2021.2.3,Win32,60.09254252,,,,,,,,,,,0.9668,1,,,,,,,,,,,,,,m,1,0.9668,,,,,,,,0.218518535,-0.181481492,0,0,0,,0,26,26,32,1,BARREL,HB,old,m,./images/BARRELHB.png,,,,,,,,,,,,,,,,,,,,,,,,,,,,,,,,,,,
,,,,,,,,,,,,,,,,,5f0d6c9bb43cfb0182a9d464,20,2022-02-12_13h40.33.710,lexical_decision_task_DD_L3,2021.2.3,Win32,60.09254252,,,,,,,,,,,0.7126,1,,,,,,,,,,,,,,z,1,0.7126,,,,,,,,0.218518535,-0.181481492,0,0,0,,0,27,27,143,1,MONGS,LB,old,z,./images/MONGSLB.png,,,,,,,,,,,,,,,,,,,,,,,,,,,,,,,,,,,
,,,,,,,,,,,,,,,,,5f0d6c9bb43cfb0182a9d464,20,2022-02-12_13h40.33.710,lexical_decision_task_DD_L3,2021.2.3,Win32,60.09254252,,,,,,,,,,,0.7567,1,,,,,,,,,,,,,,m,1,0.7567,,,,,,,,0.218518535,-0.181481492,0,0,0,,0,28,28,12,1,SHORE,LB,old,m,./images/SHORELB.png,,,,,,,,,,,,,,,,,,,,,,,,,,,,,,,,,,,
,,,,,,,,,,,,,,,,,5f0d6c9bb43cfb0182a9d464,20,2022-02-12_13h40.33.710,lexical_decision_task_DD_L3,2021.2.3,Win32,60.09254252,,,,,,,,,,,1.4147,1,,,,,,,,,,,,,,m,1,1.4147,,,,,,,,0.218518535,-0.181481492,0,0,0,,0,29,29,56,1,PACKET,HB,old,m,./images/PACKETHB.png,,,,,,,,,,,,,,,,,,,,,,,,,,,,,,,,,,,
,,,,,,,,,,,,,,,,,5f0d6c9bb43cfb0182a9d464,20,2022-02-12_13h40.33.710,lexical_decision_task_DD_L3,2021.2.3,Win32,60.09254252,,,,,,,,,,,0.7449,1,,,,,,,,,,,,,,z,1,0.7449,,,,,,,,0.218518535,-0.181481492,0,0,0,,0,30,30,152,1,FRAIN,LB,old,z,./images/FRAINLB.png,,,,,,,,,,,,,,,,,,,,,,,,,,,,,,,,,,,
,,,,,,,,,,,,,,,,,5f0d6c9bb43cfb0182a9d464,20,2022-02-12_13h40.33.710,lexical_decision_task_DD_L3,2021.2.3,Win32,60.09254252,,,,,,,,,,,0.7987,1,,,,,,,,,,,,,,m,1,0.7987,,,,,,,,0.218518535,-0.181481492,0,0,0,,0,31,31,35,1,PEACH,HB,old,m,./images/PEACHHB.png,,,,,,,,,,,,,,,,,,,,,,,,,,,,,,,,,,,
,,,,,,,,,,,,,,,,,5f0d6c9bb43cfb0182a9d464,20,2022-02-12_13h40.33.710,lexical_decision_task_DD_L3,2021.2.3,Win32,60.09254252,,,,,,,,,,,0.6918,1,,,,,,,,,,,,,,m,1,0.6918,,,,,,,,0.218518535,-0.181481492,0,0,0,,0,32,32,78,1,LITTER,LB,old,m,./images/LITTERLB.png,,,,,,,,,,,,,,,,,,,,,,,,,,,,,,,,,,,
,,,,,,,,,,,,,,,,,5f0d6c9bb43cfb0182a9d464,20,2022-02-12_13h40.33.710,lexical_decision_task_DD_L3,2021.2.3,Win32,60.09254252,,,,,,,,,,,0.8868,1,,,,,,,,,,,,,,z,1,0.8868,,,,,,,,0.218518535,-0.181481492,0,0,0,,0,33,33,153,1,CLUPS,C,old,z,./images/CLUPS.png,,,,,,,,,,,,,,,,,,,,,,,,,,,,,,,,,,,
,,,,,,,,,,,,,,,,,5f0d6c9bb43cfb0182a9d464,20,2022-02-12_13h40.33.710,lexical_decision_task_DD_L3,2021.2.3,Win32,60.09254252,,,,,,,,,,,0.959,1,,,,,,,,,,,,,,z,1,0.959,,,,,,,,0.218518535,-0.181481492,0,0,0,,0,34,34,111,1,HOSSE,C,old,z,./images/HOSSE.png,,,,,,,,,,,,,,,,,,,,,,,,,,,,,,,,,,,
,,,,,,,,,,,,,,,,,5f0d6c9bb43cfb0182a9d464,20,2022-02-12_13h40.33.710,lexical_decision_task_DD_L3,2021.2.3,Win32,60.09254252,,,,,,,,,,,0.7093,1,,,,,,,,,,,,,,z,1,0.7093,,,,,,,,0.218518535,-0.181481492,0,0,0,,0,35,35,159,1,CUDDY,C,old,z,./images/CUDDY.png,,,,,,,,,,,,,,,,,,,,,,,,,,,,,,,,,,,
,,,,,,,,,,,,,,,,,5f0d6c9bb43cfb0182a9d464,20,2022-02-12_13h40.33.710,lexical_decision_task_DD_L3,2021.2.3,Win32,60.09254252,,,,,,,,,,,0.907,1,,,,,,,,,,,,,,z,1,0.907,,,,,,,,0.218518535,-0.181481492,0,0,0,,0,36,36,164,1,SGREW,LB,old,z,./images/SGREWLB.png,,,,,,,,,,,,,,,,,,,,,,,,,,,,,,,,,,,
,,,,,,,,,,,,,,,,,5f0d6c9bb43cfb0182a9d464,20,2022-02-12_13h40.33.710,lexical_decision_task_DD_L3,2021.2.3,Win32,60.09254252,,,,,,,,,,,0.6271,1,,,,,,,,,,,,,,m,1,0.6271,,,,,,,,0.218518535,-0.181481492,0,0,0,,0,37,37,67,1,SAILOR,C,old,m,./images/SAILOR.png,,,,,,,,,,,,,,,,,,,,,,,,,,,,,,,,,,,
,,,,,,,,,,,,,,,,,5f0d6c9bb43cfb0182a9d464,20,2022-02-12_13h40.33.710,lexical_decision_task_DD_L3,2021.2.3,Win32,60.09254252,,,,,,,,,,,0.7735,1,,,,,,,,,,,,,,z,1,0.7735,,,,,,,,0.218518535,-0.181481492,0,0,0,,0,38,38,119,1,PAFER,LB,old,z,./images/PAFERLB.png,,,,,,,,,,,,,,,,,,,,,,,,,,,,,,,,,,,
,,,,,,,,,,,,,,,,,5f0d6c9bb43cfb0182a9d464,20,2022-02-12_13h40.33.710,lexical_decision_task_DD_L3,2021.2.3,Win32,60.09254252,,,,,,,,,,,0.6581,1,,,,,,,,,,,,,,m,1,0.6581,,,,,,,,0.218518535,-0.181481492,0,0,0,,0,39,39,27,1,ATTIC,LB,old,m,./images/ATTICLB.png,,,,,,,,,,,,,,,,,,,,,,,,,,,,,,,,,,,
,,,,,,,,,,,,,,,,,5f0d6c9bb43cfb0182a9d464,20,2022-02-12_13h40.33.710,lexical_decision_task_DD_L3,2021.2.3,Win32,60.09254252,,,,,,,,,,,1.4446,1,,,,,,,,,,,,,,z,1,1.4446,,,,,,,,0.218518535,-0.181481492,0,0,0,,0,40,40,163,1,GAMBA,HB,old,z,./images/GAMBAHB.png,,,,,,,,,,,,,,,,,,,,,,,,,,,,,,,,,,,
,,,,,,,,,,,,,,,,,5f0d6c9bb43cfb0182a9d464,20,2022-02-12_13h40.33.710,lexical_decision_task_DD_L3,2021.2.3,Win32,60.09254252,,,,,,,,,,,0.6943,1,,,,,,,,,,,,,,z,1,0.6943,,,,,,,,0.218518535,-0.181481492,0,0,0,space,0,41,41,101,1,GLEET,LB,old,z,./images/GLEETLB.png,39.8156,,,,,,,,,,,,,,,,,,,,,,,,,,,,,,,,,,
,,,,,,,,,,,,,,,,,5f0d6c9bb43cfb0182a9d464,20,2022-02-12_13h40.33.710,lexical_decision_task_DD_L3,2021.2.3,Win32,60.09254252,,,,,,,,,,,0.8582,1,,,,,,,,,,,,,,m,1,0.8582,,,,,,,,0.218518535,-0.181481492,0,0,0,,0,42,42,47,1,BERRY,HB,old,m,./images/BERRYHB.png,,,,,,,,,,,,,,,,,,,,,,,,,,,,,,,,,,,
,,,,,,,,,,,,,,,,,5f0d6c9bb43cfb0182a9d464,20,2022-02-12_13h40.33.710,lexical_decision_task_DD_L3,2021.2.3,Win32,60.09254252,,,,,,,,,,,0.6275,1,,,,,,,,,,,,,,m,1,0.6275,,,,,,,,0.218518535,-0.181481492,0,0,0,,0,43,43,6,1,SQUARE,LB,old,m,./images/SQUARELB.png,,,,,,,,,,,,,,,,,,,,,,,,,,,,,,,,,,,
,,,,,,,,,,,,,,,,,5f0d6c9bb43cfb0182a9d464,20,2022-02-12_13h40.33.710,lexical_decision_task_DD_L3,2021.2.3,Win32,60.09254252,,,,,,,,,,,0.6876,1,,,,,,,,,,,,,,z,1,0.6876,,,,,,,,0.218518535,-0.181481492,0,0,0,,0,44,44,86,1,AIFED,LB,old,z,./images/AIFEDLB.png,,,,,,,,,,,,,,,,,,,,,,,,,,,,,,,,,,,
,,,,,,,,,,,,,,,,,5f0d6c9bb43cfb0182a9d464,20,2022-02-12_13h40.33.710,lexical_decision_task_DD_L3,2021.2.3,Win32,60.09254252,,,,,,,,,,,0.5897,0,,,,,,,,,,,,,,z,0,0.5897,,,,,,,,0.218518535,-0.181481492,0,0,0,,0,45,45,4,1,MUSCLE,C,old,m,./images/MUSCLE.png,,,,,,,,,,,,,,,,,,,,,,,,,,,,,,,,,,,
,,,,,,,,,,,,,,,,,5f0d6c9bb43cfb0182a9d464,20,2022-02-12_13h40.33.710,lexical_decision_task_DD_L3,2021.2.3,Win32,60.09254252,,,,,,,,,,,0.8007,1,,,,,,,,,,,,,,z,1,0.8007,,,,,,,,0.218518535,-0.181481492,0,0,0,,0,46,46,108,1,GRUET,C,old,z,./images/GRUET.png,,,,,,,,,,,,,,,,,,,,,,,,,,,,,,,,,,,
,,,,,,,,,,,,,,,,,5f0d6c9bb43cfb0182a9d464,20,2022-02-12_13h40.33.710,lexical_decision_task_DD_L3,2021.2.3,Win32,60.09254252,,,,,,,,,,,0.8894,1,,,,,,,,,,,,,,z,1,0.8894,,,,,,,,0.218518535,-0.181481492,0,0,0,,0,47,47,99,1,BACKY,C,old,z,./images/BACKY.png,,,,,,,,,,,,,,,,,,,,,,,,,,,,,,,,,,,
,,,,,,,,,,,,,,,,,5f0d6c9bb43cfb0182a9d464,20,2022-02-12_13h40.33.710,lexical_decision_task_DD_L3,2021.2.3,Win32,60.09254252,,,,,,,,,,,0.6461,1,,,,,,,,,,,,,,z,1,0.6461,,,,,,,,0.218518535,-0.181481492,0,0,0,,0,48,48,87,1,TRING,C,old,z,./images/TRING.png,,,,,,,,,,,,,,,,,,,,,,,,,,,,,,,,,,,
,,,,,,,,,,,,,,,,,5f0d6c9bb43cfb0182a9d464,20,2022-02-12_13h40.33.710,lexical_decision_task_DD_L3,2021.2.3,Win32,60.09254252,,,,,,,,,,,0.5799,1,,,,,,,,,,,,,,m,1,0.5799,,,,,,,,0.218518535,-0.181481492,0,0,0,,0,49,49,60,1,TWINS,LB,old,m,./images/TWINSLB.png,,,,,,,,,,,,,,,,,,,,,,,,,,,,,,,,,,,
,,,,,,,,,,,,,,,,,5f0d6c9bb43cfb0182a9d464,20,2022-02-12_13h40.33.710,lexical_decision_task_DD_L3,2021.2.3,Win32,60.09254252,,,,,,,,,,,0.6728,1,,,,,,,,,,,,,,z,1,0.6728,,,,,,,,0.218518535,-0.181481492,0,0,0,,0,50,50,105,1,MOKER,C,old,z,./images/MOKER.png,,,,,,,,,,,,,,,,,,,,,,,,,,,,,,,,,,,
,,,,,,,,,,,,,,,,,5f0d6c9bb43cfb0182a9d464,20,2022-02-12_13h40.33.710,lexical_decision_task_DD_L3,2021.2.3,Win32,60.09254252,,,,,,,,,,,0.5874,1,,,,,,,,,,,,,,m,1,0.5874,,,,,,,,0.218518535,-0.181481492,0,0,0,,0,51,51,30,1,STORM,LB,old,m,./images/STORMLB.png,,,,,,,,,,,,,,,,,,,,,,,,,,,,,,,,,,,
,,,,,,,,,,,,,,,,,5f0d6c9bb43cfb0182a9d464,20,2022-02-12_13h40.33.710,lexical_decision_task_DD_L3,2021.2.3,Win32,60.09254252,,,,,,,,,,,1.0314,1,,,,,,,,,,,,,,z,1,1.0314,,,,,,,,0.218518535,-0.181481492,0,0,0,,0,52,52,85,1,CHULK,HB,old,z,./images/CHULKHB.png,,,,,,,,,,,,,,,,,,,,,,,,,,,,,,,,,,,
,,,,,,,,,,,,,,,,,5f0d6c9bb43cfb0182a9d464,20,2022-02-12_13h40.33.710,lexical_decision_task_DD_L3,2021.2.3,Win32,60.09254252,,,,,,,,,,,1.2424,1,,,,,,,,,,,,,,z,1,1.2424,,,,,,,,0.218518535,-0.181481492,0,0,0,,0,53,53,160,1,VEETS,HB,old,z,./images/VEETSHB.png,,,,,,,,,,,,,,,,,,,,,,,,,,,,,,,,,,,
,,,,,,,,,,,,,,,,,5f0d6c9bb43cfb0182a9d464,20,2022-02-12_13h40.33.710,lexical_decision_task_DD_L3,2021.2.3,Win32,60.09254252,,,,,,,,,,,0.6006,1,,,,,,,,,,,,,,m,1,0.6006,,,,,,,,0.218518535,-0.181481492,0,0,0,,0,54,54,76,1,INFANT,C,old,m,./images/INFANT.png,,,,,,,,,,,,,,,,,,,,,,,,,,,,,,,,,,,
,,,,,,,,,,,,,,,,,5f0d6c9bb43cfb0182a9d464,20,2022-02-12_13h40.33.710,lexical_decision_task_DD_L3,2021.2.3,Win32,60.09254252,,,,,,,,,,,1.5669,1,,,,,,,,,,,,,,z,1,1.5669,,,,,,,,0.218518535,-0.181481492,0,0,0,,0,55,55,121,1,CEERS,HB,old,z,./images/CEERSHB.png,,,,,,,,,,,,,,,,,,,,,,,,,,,,,,,,,,,
,,,,,,,,,,,,,,,,,5f0d6c9bb43cfb0182a9d464,20,2022-02-12_13h40.33.710,lexical_decision_task_DD_L3,2021.2.3,Win32,60.09254252,,,,,,,,,,,1.0856,1,,,,,,,,,,,,,,z,1,1.0856,,,,,,,,0.218518535,-0.181481492,0,0,0,,0,56,56,106,1,CLUMS,HB,old,z,./images/CLUMSHB.png,,,,,,,,,,,,,,,,,,,,,,,,,,,,,,,,,,,
,,,,,,,,,,,,,,,,,5f0d6c9bb43cfb0182a9d464,20,2022-02-12_13h40.33.710,lexical_decision_task_DD_L3,2021.2.3,Win32,60.09254252,,,,,,,,,,,0.6011,1,,,,,,,,,,,,,,m,1,0.6011,,,,,,,,0.218518535,-0.181481492,0,0,0,,0,57,57,37,1,BIRTH,C,old,m,./images/BIRTH.png,,,,,,,,,,,,,,,,,,,,,,,,,,,,,,,,,,,
,,,,,,,,,,,,,,,,,5f0d6c9bb43cfb0182a9d464,20,2022-02-12_13h40.33.710,lexical_decision_task_DD_L3,2021.2.3,Win32,60.09254252,,,,,,,,,,,0.5944,1,,,,,,,,,,,,,,m,1,0.5944,,,,,,,,0.218518535,-0.181481492,0,0,0,,0,58,58,13,1,MOTOR,C,old,m,./images/MOTOR.png,,,,,,,,,,,,,,,,,,,,,,,,,,,,,,,,,,,
,,,,,,,,,,,,,,,,,5f0d6c9bb43cfb0182a9d464,20,2022-02-12_13h40.33.710,lexical_decision_task_DD_L3,2021.2.3,Win32,60.09254252,,,,,,,,,,,1.0413,1,,,,,,,,,,,,,,z,1,1.0413,,,,,,,,0.218518535,-0.181481492,0,0,0,,0,59,59,127,1,NINDY,HB,old,z,./images/NINDYHB.png,,,,,,,,,,,,,,,,,,,,,,,,,,,,,,,,,,,
,,,,,,,,,,,,,,,,,5f0d6c9bb43cfb0182a9d464,20,2022-02-12_13h40.33.710,lexical_decision_task_DD_L3,2021.2.3,Win32,60.09254252,,,,,,,,,,,0.6121,1,,,,,,,,,,,,,,m,1,0.6121,,,,,,,,0.218518535,-0.181481492,0,0,0,,0,60,60,49,1,DRUMS,C,old,m,./images/DRUMS.png,,,,,,,,,,,,,,,,,,,,,,,,,,,,,,,,,,,
,,,,,,,,,,,,,,,,,5f0d6c9bb43cfb0182a9d464,20,2022-02-12_13h40.33.710,lexical_decision_task_DD_L3,2021.2.3,Win32,60.09254252,,,,,,,,,,,0.6882,1,,,,,,,,,,,,,,m,1,0.6882,,,,,,,,0.218518535,-0.181481492,0,0,0,,0,61,61,58,1,BABOON,C,old,m,./images/BABOON.png,,,,,,,,,,,,,,,,,,,,,,,,,,,,,,,,,,,
,,,,,,,,,,,,,,,,,5f0d6c9bb43cfb0182a9d464,20,2022-02-12_13h40.33.710,lexical_decision_task_DD_L3,2021.2.3,Win32,60.09254252,,,,,,,,,,,0.531,1,,,,,,,,,,,,,,m,1,0.531,,,,,,,,0.218518535,-0.181481492,0,0,0,,0,62,62,55,1,MUFFIN,C,old,m,./images/MUFFIN.png,,,,,,,,,,,,,,,,,,,,,,,,,,,,,,,,,,,
,,,,,,,,,,,,,,,,,5f0d6c9bb43cfb0182a9d464,20,2022-02-12_13h40.33.710,lexical_decision_task_DD_L3,2021.2.3,Win32,60.09254252,,,,,,,,,,,0.454,1,,,,,,,,,,,,,,m,1,0.454,,,,,,,,0.218518535,-0.181481492,0,0,0,,0,63,63,10,1,BELLY,C,old,m,./images/BELLY.png,,,,,,,,,,,,,,,,,,,,,,,,,,,,,,,,,,,
,,,,,,,,,,,,,,,,,5f0d6c9bb43cfb0182a9d464,20,2022-02-12_13h40.33.710,lexical_decision_task_DD_L3,2021.2.3,Win32,60.09254252,,,,,,,,,,,0.6419,1,,,,,,,,,,,,,,z,1,0.6419,,,,,,,,0.218518535,-0.181481492,0,0,0,,0,64,64,129,1,PRANS,C,old,z,./images/PRANS.png,,,,,,,,,,,,,,,,,,,,,,,,,,,,,,,,,,,
,,,,,,,,,,,,,,,,,5f0d6c9bb43cfb0182a9d464,20,2022-02-12_13h40.33.710,lexical_decision_task_DD_L3,2021.2.3,Win32,60.09254252,,,,,,,,,,,0.7443,1,,,,,,,,,,,,,,z,1,0.7443,,,,,,,,0.218518535,-0.181481492,0,0,0,,0,65,65,116,1,BALGY,LB,old,z,./images/BALGYLB.png,,,,,,,,,,,,,,,,,,,,,,,,,,,,,,,,,,,
,,,,,,,,,,,,,,,,,5f0d6c9bb43cfb0182a9d464,20,2022-02-12_13h40.33.710,lexical_decision_task_DD_L3,2021.2.3,Win32,60.09254252,,,,,,,,,,,0.6667,1,,,,,,,,,,,,,,z,1,0.6667,,,,,,,,0.218518535,-0.181481492,0,0,0,,0,66,66,155,1,CANGY,LB,old,z,./images/CANGYLB.png,,,,,,,,,,,,,,,,,,,,,,,,,,,,,,,,,,,
,,,,,,,,,,,,,,,,,5f0d6c9bb43cfb0182a9d464,20,2022-02-12_13h40.33.710,lexical_decision_task_DD_L3,2021.2.3,Win32,60.09254252,,,,,,,,,,,0.662,1,,,,,,,,,,,,,,z,1,0.662,,,,,,,,0.218518535,-0.181481492,0,0,0,,0,67,67,156,1,HIXES,C,old,z,./images/HIXES.png,,,,,,,,,,,,,,,,,,,,,,,,,,,,,,,,,,,
,,,,,,,,,,,,,,,,,5f0d6c9bb43cfb0182a9d464,20,2022-02-12_13h40.33.710,lexical_decision_task_DD_L3,2021.2.3,Win32,60.09254252,,,,,,,,,,,0.5985,1,,,,,,,,,,,,,,m,1,0.5985,,,,,,,,0.218518535,-0.181481492,0,0,0,,0,68,68,7,1,PAINT,C,old,m,./images/PAINT.png,,,,,,,,,,,,,,,,,,,,,,,,,,,,,,,,,,,
,,,,,,,,,,,,,,,,,5f0d6c9bb43cfb0182a9d464,20,2022-02-12_13h40.33.710,lexical_decision_task_DD_L3,2021.2.3,Win32,60.09254252,,,,,,,,,,,0.6523,1,,,,,,,,,,,,,,m,1,0.6523,,,,,,,,0.218518535,-0.181481492,0,0,0,,0,69,69,79,1,CRUST,C,old,m,./images/CRUST.png,,,,,,,,,,,,,,,,,,,,,,,,,,,,,,,,,,,
,,,,,,,,,,,,,,,,,5f0d6c9bb43cfb0182a9d464,20,2022-02-12_13h40.33.710,lexical_decision_task_DD_L3,2021.2.3,Win32,60.09254252,,,,,,,,,,,1.0722,1,,,,,,,,,,,,,,m,1,1.0722,,,,,,,,0.218518535,-0.181481492,0,0,0,,0,70,70,53,1,CARPET,HB,old,m,./images/CARPETHB.png,,,,,,,,,,,,,,,,,,,,,,,,,,,,,,,,,,,
,,,,,,,,,,,,,,,,,5f0d6c9bb43cfb0182a9d464,20,2022-02-12_13h40.33.710,lexical_decision_task_DD_L3,2021.2.3,Win32,60.09254252,,,,,,,,,,,0.5632,1,,,,,,,,,,,,,,m,1,0.5632,,,,,,,,0.218518535,-0.181481492,0,0,0,,0,71,71,15,1,GREASE,LB,old,m,./images/GREASELB.png,,,,,,,,,,,,,,,,,,,,,,,,,,,,,,,,,,,
,,,,,,,,,,,,,,,,,5f0d6c9bb43cfb0182a9d464,20,2022-02-12_13h40.33.710,lexical_decision_task_DD_L3,2021.2.3,Win32,60.09254252,,,,,,,,,,,0.8647,1,,,,,,,,,,,,,,z,1,0.8647,,,,,,,,0.218518535,-0.181481492,0,0,0,,0,72,72,118,1,BAVEL,HB,old,z,./images/BAVELHB.png,,,,,,,,,,,,,,,,,,,,,,,,,,,,,,,,,,,
,,,,,,,,,,,,,,,,,5f0d6c9bb43cfb0182a9d464,20,2022-02-12_13h40.33.710,lexical_decision_task_DD_L3,2021.2.3,Win32,60.09254252,,,,,,,,,,,0.7688,0,,,,,,,,,,,,,,z,0,0.7688,,,,,,,,0.218518535,-0.181481492,0,0,0,,0,73,73,14,1,PICKLE,HB,old,m,./images/PICKLEHB.png,,,,,,,,,,,,,,,,,,,,,,,,,,,,,,,,,,,
,,,,,,,,,,,,,,,,,5f0d6c9bb43cfb0182a9d464,20,2022-02-12_13h40.33.710,lexical_decision_task_DD_L3,2021.2.3,Win32,60.09254252,,,,,,,,,,,0.8084,1,,,,,,,,,,,,,,z,1,0.8084,,,,,,,,0.218518535,-0.181481492,0,0,0,,0,74,74,137,1,JOOST,LB,old,z,./images/JOOSTLB.png,,,,,,,,,,,,,,,,,,,,,,,,,,,,,,,,,,,
,,,,,,,,,,,,,,,,,5f0d6c9bb43cfb0182a9d464,20,2022-02-12_13h40.33.710,lexical_decision_task_DD_L3,2021.2.3,Win32,60.09254252,,,,,,,,,,,0.5476,1,,,,,,,,,,,,,,m,1,0.5476,,,,,,,,0.218518535,-0.181481492,0,0,0,,0,75,75,0,1,TOMATO,LB,old,m,./images/TOMATOLB.png,,,,,,,,,,,,,,,,,,,,,,,,,,,,,,,,,,,
,,,,,,,,,,,,,,,,,5f0d6c9bb43cfb0182a9d464,20,2022-02-12_13h40.33.710,lexical_decision_task_DD_L3,2021.2.3,Win32,60.09254252,,,,,,,,,,,0.5925,1,,,,,,,,,,,,,,m,1,0.5925,,,,,,,,0.218518535,-0.181481492,0,0,0,,0,76,76,72,1,NOOSE,LB,old,m,./images/NOOSELB.png,,,,,,,,,,,,,,,,,,,,,,,,,,,,,,,,,,,
,,,,,,,,,,,,,,,,,5f0d6c9bb43cfb0182a9d464,20,2022-02-12_13h40.33.710,lexical_decision_task_DD_L3,2021.2.3,Win32,60.09254252,,,,,,,,,,,1.0629,1,,,,,,,,,,,,,,m,1,1.0629,,,,,,,,0.218518535,-0.181481492,0,0,0,,0,77,77,41,1,STRING,HB,old,m,./images/STRINGHB.png,,,,,,,,,,,,,,,,,,,,,,,,,,,,,,,,,,,
,,,,,,,,,,,,,,,,,5f0d6c9bb43cfb0182a9d464,20,2022-02-12_13h40.33.710,lexical_decision_task_DD_L3,2021.2.3,Win32,60.09254252,,,,,,,,,,,0.7592,1,,,,,,,,,,,,,,m,1,0.7592,,,,,,,,0.218518535,-0.181481492,0,0,0,,0,78,78,20,1,CRADLE,HB,old,m,./images/CRADLEHB.png,,,,,,,,,,,,,,,,,,,,,,,,,,,,,,,,,,,
,,,,,,,,,,,,,,,,,5f0d6c9bb43cfb0182a9d464,20,2022-02-12_13h40.33.710,lexical_decision_task_DD_L3,2021.2.3,Win32,60.09254252,,,,,,,,,,,0.5088,1,,,,,,,,,,,,,,m,1,0.5088,,,,,,,,0.218518535,-0.181481492,0,0,0,,0,79,79,48,1,SPORT,LB,old,m,./images/SPORTLB.png,,,,,,,,,,,,,,,,,,,,,,,,,,,,,,,,,,,
,,,,,,,,,,,,,,,,,5f0d6c9bb43cfb0182a9d464,20,2022-02-12_13h40.33.710,lexical_decision_task_DD_L3,2021.2.3,Win32,60.09254252,,,,,,,,,,,0.6291,1,,,,,,,,,,,,,,z,1,0.6291,,,,,,,,0.218518535,-0.181481492,0,0,0,,0,80,80,120,1,RINED,C,old,z,./images/RINED.png,,,,,,,,,,,,,,,,,,,,,,,,,,,,,,,,,,,
,,,,,,,,,,,,,,,,,5f0d6c9bb43cfb0182a9d464,20,2022-02-12_13h40.33.710,lexical_decision_task_DD_L3,2021.2.3,Win32,60.09254252,,,,,,,,,,,0.7324,1,,,,,,,,,,,,,,m,1,0.7324,,,,,,,,0.218518535,-0.181481492,0,0,0,,0,81,81,81,1,POODLE,LB,old,m,./images/POODLELB.png,,,,,,,,,,,,,,,,,,,,,,,,,,,,,,,,,,,
,,,,,,,,,,,,,,,,,5f0d6c9bb43cfb0182a9d464,20,2022-02-12_13h40.33.710,lexical_decision_task_DD_L3,2021.2.3,Win32,60.09254252,,,,,,,,,,,0.675,1,,,,,,,,,,,,,,m,1,0.675,,,,,,,,0.218518535,-0.181481492,0,0,0,,0,82,82,52,1,BANNER,C,old,m,./images/BANNER.png,,,,,,,,,,,,,,,,,,,,,,,,,,,,,,,,,,,
,,,,,,,,,,,,,,,,,5f0d6c9bb43cfb0182a9d464,20,2022-02-12_13h40.33.710,lexical_decision_task_DD_L3,2021.2.3,Win32,60.09254252,,,,,,,,,,,0.7181,1,,,,,,,,,,,,,,m,1,0.7181,,,,,,,,0.218518535,-0.181481492,0,0,0,space,0,83,83,23,1,WALRUS,HB,old,m,./images/WALRUSHB.png,70.277,,,,,,,,,,,,,,,,,,,,,,,,,,,,,,,,,,
,,,,,,,,,,,,,,,,,5f0d6c9bb43cfb0182a9d464,20,2022-02-12_13h40.33.710,lexical_decision_task_DD_L3,2021.2.3,Win32,60.09254252,,,,,,,,,,,0.5495,1,,,,,,,,,,,,,,m,1,0.5495,,,,,,,,0.218518535,-0.181481492,0,0,0,,0,84,84,40,1,SWING,C,old,m,./images/SWING.png,,,,,,,,,,,,,,,,,,,,,,,,,,,,,,,,,,,
,,,,,,,,,,,,,,,,,5f0d6c9bb43cfb0182a9d464,20,2022-02-12_13h40.33.710,lexical_decision_task_DD_L3,2021.2.3,Win32,60.09254252,,,,,,,,,,,0.8402,0,,,,,,,,,,,,,,z,0,0.8402,,,,,,,,0.218518535,-0.181481492,0,0,0,,0,85,85,57,1,MOOSE,LB,old,m,./images/MOOSELB.png,,,,,,,,,,,,,,,,,,,,,,,,,,,,,,,,,,,
,,,,,,,,,,,,,,,,,5f0d6c9bb43cfb0182a9d464,20,2022-02-12_13h40.33.710,lexical_decision_task_DD_L3,2021.2.3,Win32,60.09254252,,,,,,,,,,,1.2246,1,,,,,,,,,,,,,,m,1,1.2246,,,,,,,,0.218518535,-0.181481492,0,0,0,,0,86,86,68,1,TORCH,HB,old,m,./images/TORCHHB.png,,,,,,,,,,,,,,,,,,,,,,,,,,,,,,,,,,,
,,,,,,,,,,,,,,,,,5f0d6c9bb43cfb0182a9d464,20,2022-02-12_13h40.33.710,lexical_decision_task_DD_L3,2021.2.3,Win32,60.09254252,,,,,,,,,,,0.5434,1,,,,,,,,,,,,,,m,1,0.5434,,,,,,,,0.218518535,-0.181481492,0,0,0,,0,87,87,75,1,GRAIN,LB,old,m,./images/GRAINLB.png,,,,,,,,,,,,,,,,,,,,,,,,,,,,,,,,,,,
,,,,,,,,,,,,,,,,,5f0d6c9bb43cfb0182a9d464,20,2022-02-12_13h40.33.710,lexical_decision_task_DD_L3,2021.2.3,Win32,60.09254252,,,,,,,,,,,0.7509,1,,,,,,,,,,,,,,z,1,0.7509,,,,,,,,0.218518535,-0.181481492,0,0,0,,0,88,88,107,1,FASKS,LB,old,z,./images/FASKSLB.png,,,,,,,,,,,,,,,,,,,,,,,,,,,,,,,,,,,
,,,,,,,,,,,,,,,,,5f0d6c9bb43cfb0182a9d464,20,2022-02-12_13h40.33.710,lexical_decision_task_DD_L3,2021.2.3,Win32,60.09254252,,,,,,,,,,,0.7665,1,,,,,,,,,,,,,,z,1,0.7665,,,,,,,,0.218518535,-0.181481492,0,0,0,,0,89,89,146,1,MOOST,LB,old,z,./images/MOOSTLB.png,,,,,,,,,,,,,,,,,,,,,,,,,,,,,,,,,,,
,,,,,,,,,,,,,,,,,5f0d6c9bb43cfb0182a9d464,20,2022-02-12_13h40.33.710,lexical_decision_task_DD_L3,2021.2.3,Win32,60.09254252,,,,,,,,,,,0.668,1,,,,,,,,,,,,,,m,1,0.668,,,,,,,,0.218518535,-0.181481492,0,0,0,,0,90,90,22,1,MELON,C,old,m,./images/MELON.png,,,,,,,,,,,,,,,,,,,,,,,,,,,,,,,,,,,
,,,,,,,,,,,,,,,,,5f0d6c9bb43cfb0182a9d464,20,2022-02-12_13h40.33.710,lexical_decision_task_DD_L3,2021.2.3,Win32,60.09254252,,,,,,,,,,,0.5108,1,,,,,,,,,,,,,,m,1,0.5108,,,,,,,,0.218518535,-0.181481492,0,0,0,,0,91,91,46,1,PEARL,C,old,m,./images/PEARL.png,,,,,,,,,,,,,,,,,,,,,,,,,,,,,,,,,,,
,,,,,,,,,,,,,,,,,5f0d6c9bb43cfb0182a9d464,20,2022-02-12_13h40.33.710,lexical_decision_task_DD_L3,2021.2.3,Win32,60.09254252,,,,,,,,,,,1.2067,1,,,,,,,,,,,,,,z,1,1.2067,,,,,,,,0.218518535,-0.181481492,0,0,0,,0,92,92,151,1,TINKY,HB,old,z,./images/TINKYHB.png,,,,,,,,,,,,,,,,,,,,,,,,,,,,,,,,,,,
,,,,,,,,,,,,,,,,,5f0d6c9bb43cfb0182a9d464,20,2022-02-12_13h40.33.710,lexical_decision_task_DD_L3,2021.2.3,Win32,60.09254252,,,,,,,,,,,0.7938,1,,,,,,,,,,,,,,z,1,0.7938,,,,,,,,0.218518535,-0.181481492,0,0,0,,0,93,93,149,1,VEASE,LB,old,z,./images/VEASELB.png,,,,,,,,,,,,,,,,,,,,,,,,,,,,,,,,,,,
,,,,,,,,,,,,,,,,,5f0d6c9bb43cfb0182a9d464,20,2022-02-12_13h40.33.710,lexical_decision_task_DD_L3,2021.2.3,Win32,60.09254252,,,,,,,,,,,0.7694,1,,,,,,,,,,,,,,m,1,0.7694,,,,,,,,0.218518535,-0.181481492,0,0,0,,0,94,94,74,1,CEMENT,HB,old,m,./images/CEMENTHB.png,,,,,,,,,,,,,,,,,,,,,,,,,,,,,,,,,,,
,,,,,,,,,,,,,,,,,5f0d6c9bb43cfb0182a9d464,20,2022-02-12_13h40.33.710,lexical_decision_task_DD_L3,2021.2.3,Win32,60.09254252,,,,,,,,,,,0.5838,1,,,,,,,,,,,,,,m,1,0.5838,,,,,,,,0.218518535,-0.181481492,0,0,0,,0,95,95,28,1,FALCON,C,old,m,./images/FALCON.png,,,,,,,,,,,,,,,,,,,,,,,,,,,,,,,,,,,
,,,,,,,,,,,,,,,,,5f0d6c9bb43cfb0182a9d464,20,2022-02-12_13h40.33.710,lexical_decision_task_DD_L3,2021.2.3,Win32,60.09254252,,,,,,,,,,,0.7797,1,,,,,,,,,,,,,,z,1,0.7797,,,,,,,,0.218518535,-0.181481492,0,0,0,,0,96,96,100,1,DRIBS,HB,old,z,./images/DRIBSHB.png,,,,,,,,,,,,,,,,,,,,,,,,,,,,,,,,,,,
,,,,,,,,,,,,,,,,,5f0d6c9bb43cfb0182a9d464,20,2022-02-12_13h40.33.710,lexical_decision_task_DD_L3,2021.2.3,Win32,60.09254252,,,,,,,,,,,0.9752,1,,,,,,,,,,,,,,z,1,0.9752,,,,,,,,0.218518535,-0.181481492,0,0,0,,0,97,97,88,1,GLUSH,HB,old,z,./images/GLUSHHB.png,,,,,,,,,,,,,,,,,,,,,,,,,,,,,,,,,,,
,,,,,,,,,,,,,,,,,5f0d6c9bb43cfb0182a9d464,20,2022-02-12_13h40.33.710,lexical_decision_task_DD_L3,2021.2.3,Win32,60.09254252,,,,,,,,,,,0.9119,1,,,,,,,,,,,,,,z,1,0.9119,,,,,,,,0.218518535,-0.181481492,0,0,0,,0,98,98,103,1,FLORT,HB,old,z,./images/FLORTHB.png,,,,,,,,,,,,,,,,,,,,,,,,,,,,,,,,,,,
,,,,,,,,,,,,,,,,,5f0d6c9bb43cfb0182a9d464,20,2022-02-12_13h40.33.710,lexical_decision_task_DD_L3,2021.2.3,Win32,60.09254252,,,,,,,,,,,0.6953,1,,,,,,,,,,,,,,z,1,0.6953,,,,,,,,0.218518535,-0.181481492,0,0,0,,0,99,99,89,1,DRIEK,LB,old,z,./images/DRIEKLB.png,,,,,,,,,,,,,,,,,,,,,,,,,,,,,,,,,,,
,,,,,,,,,,,,,,,,,5f0d6c9bb43cfb0182a9d464,20,2022-02-12_13h40.33.710,lexical_decision_task_DD_L3,2021.2.3,Win32,60.09254252,,,,,,,,,,,1.292,1,,,,,,,,,,,,,,z,1,1.292,,,,,,,,0.218518535,-0.181481492,0,0,0,,0,100,100,136,1,WERVE,HB,old,z,./images/WERVEHB.png,,,,,,,,,,,,,,,,,,,,,,,,,,,,,,,,,,,
,,,,,,,,,,,,,,,,,5f0d6c9bb43cfb0182a9d464,20,2022-02-12_13h40.33.710,lexical_decision_task_DD_L3,2021.2.3,Win32,60.09254252,,,,,,,,,,,0.6758,1,,,,,,,,,,,,,,z,1,0.6758,,,,,,,,0.218518535,-0.181481492,0,0,0,,0,101,101,161,1,BLAPS,LB,old,z,./images/BLAPSLB.png,,,,,,,,,,,,,,,,,,,,,,,,,,,,,,,,,,,
,,,,,,,,,,,,,,,,,5f0d6c9bb43cfb0182a9d464,20,2022-02-12_13h40.33.710,lexical_decision_task_DD_L3,2021.2.3,Win32,60.09254252,,,,,,,,,,,0.6327,1,,,,,,,,,,,,,,z,1,0.6327,,,,,,,,0.218518535,-0.181481492,0,0,0,,0,102,102,96,1,KEAMS,C,old,z,./images/KEAMS.png,,,,,,,,,,,,,,,,,,,,,,,,,,,,,,,,,,,
,,,,,,,,,,,,,,,,,5f0d6c9bb43cfb0182a9d464,20,2022-02-12_13h40.33.710,lexical_decision_task_DD_L3,2021.2.3,Win32,60.09254252,,,,,,,,,,,1.0393,1,,,,,,,,,,,,,,z,1,1.0393,,,,,,,,0.218518535,-0.181481492,0,0,0,,0,103,103,144,1,NAIRY,C,old,z,./images/NAIRY.png,,,,,,,,,,,,,,,,,,,,,,,,,,,,,,,,,,,
,,,,,,,,,,,,,,,,,5f0d6c9bb43cfb0182a9d464,20,2022-02-12_13h40.33.710,lexical_decision_task_DD_L3,2021.2.3,Win32,60.09254252,,,,,,,,,,,0.6196,1,,,,,,,,,,,,,,m,1,0.6196,,,,,,,,0.218518535,-0.181481492,0,0,0,,0,104,104,34,1,CANYON,C,old,m,./images/CANYON.png,,,,,,,,,,,,,,,,,,,,,,,,,,,,,,,,,,,
,,,,,,,,,,,,,,,,,5f0d6c9bb43cfb0182a9d464,20,2022-02-12_13h40.33.710,lexical_decision_task_DD_L3,2021.2.3,Win32,60.09254252,,,,,,,,,,,0.6038,1,,,,,,,,,,,,,,m,1,0.6038,,,,,,,,0.218518535,-0.181481492,0,0,0,,0,105,105,42,1,FOLDER,LB,old,m,./images/FOLDERLB.png,,,,,,,,,,,,,,,,,,,,,,,,,,,,,,,,,,,
,,,,,,,,,,,,,,,,,5f0d6c9bb43cfb0182a9d464,20,2022-02-12_13h40.33.710,lexical_decision_task_DD_L3,2021.2.3,Win32,60.09254252,,,,,,,,,,,0.6118,1,,,,,,,,,,,,,,z,1,0.6118,,,,,,,,0.218518535,-0.181481492,0,0,0,,0,106,106,131,1,NACES,LB,old,z,./images/NACESLB.png,,,,,,,,,,,,,,,,,,,,,,,,,,,,,,,,,,,
,,,,,,,,,,,,,,,,,5f0d6c9bb43cfb0182a9d464,20,2022-02-12_13h40.33.710,lexical_decision_task_DD_L3,2021.2.3,Win32,60.09254252,,,,,,,,,,,0.5498,1,,,,,,,,,,,,,,z,1,0.5498,,,,,,,,0.218518535,-0.181481492,0,0,0,,0,107,107,147,1,ZOLES,C,old,z,./images/ZOLES.png,,,,,,,,,,,,,,,,,,,,,,,,,,,,,,,,,,,
,,,,,,,,,,,,,,,,,5f0d6c9bb43cfb0182a9d464,20,2022-02-12_13h40.33.710,lexical_decision_task_DD_L3,2021.2.3,Win32,60.09254252,,,,,,,,,,,0.7169,1,,,,,,,,,,,,,,z,1,0.7169,,,,,,,,0.218518535,-0.181481492,0,0,0,,0,108,108,115,1,MAWNS,HB,old,z,./images/MAWNSHB.png,,,,,,,,,,,,,,,,,,,,,,,,,,,,,,,,,,,
,,,,,,,,,,,,,,,,,5f0d6c9bb43cfb0182a9d464,20,2022-02-12_13h40.33.710,lexical_decision_task_DD_L3,2021.2.3,Win32,60.09254252,,,,,,,,,,,0.6921,1,,,,,,,,,,,,,,m,1,0.6921,,,,,,,,0.218518535,-0.181481492,0,0,0,,0,109,109,5,1,PASTA,HB,old,m,./images/PASTAHB.png,,,,,,,,,,,,,,,,,,,,,,,,,,,,,,,,,,,
,,,,,,,,,,,,,,,,,5f0d6c9bb43cfb0182a9d464,20,2022-02-12_13h40.33.710,lexical_decision_task_DD_L3,2021.2.3,Win32,60.09254252,,,,,,,,,,,0.5624,0,,,,,,,,,,,,,,z,0,0.5624,,,,,,,,0.218518535,-0.181481492,0,0,0,,0,110,110,9,1,RHINO,LB,old,m,./images/RHINOLB.png,,,,,,,,,,,,,,,,,,,,,,,,,,,,,,,,,,,
,,,,,,,,,,,,,,,,,5f0d6c9bb43cfb0182a9d464,20,2022-02-12_13h40.33.710,lexical_decision_task_DD_L3,2021.2.3,Win32,60.09254252,,,,,,,,,,,0.7133,1,,,,,,,,,,,,,,z,1,0.7133,,,,,,,,0.218518535,-0.181481492,0,0,0,,0,111,111,113,1,LINEW,LB,old,z,./images/LINEWLB.png,,,,,,,,,,,,,,,,,,,,,,,,,,,,,,,,,,,
,,,,,,,,,,,,,,,,,5f0d6c9bb43cfb0182a9d464,20,2022-02-12_13h40.33.710,lexical_decision_task_DD_L3,2021.2.3,Win32,60.09254252,,,,,,,,,,,0.5816,1,,,,,,,,,,,,,,m,1,0.5816,,,,,,,,0.218518535,-0.181481492,0,0,0,,0,112,112,66,1,SWEAT,LB,old,m,./images/SWEATLB.png,,,,,,,,,,,,,,,,,,,,,,,,,,,,,,,,,,,
,,,,,,,,,,,,,,,,,5f0d6c9bb43cfb0182a9d464,20,2022-02-12_13h40.33.710,lexical_decision_task_DD_L3,2021.2.3,Win32,60.09254252,,,,,,,,,,,0.6293,1,,,,,,,,,,,,,,z,1,0.6293,,,,,,,,0.218518535,-0.181481492,0,0,0,,0,113,113,95,1,HANTY,LB,old,z,./images/HANTYLB.png,,,,,,,,,,,,,,,,,,,,,,,,,,,,,,,,,,,
,,,,,,,,,,,,,,,,,5f0d6c9bb43cfb0182a9d464,20,2022-02-12_13h40.33.710,lexical_decision_task_DD_L3,2021.2.3,Win32,60.09254252,,,,,,,,,,,0.6663,1,,,,,,,,,,,,,,m,1,0.6663,,,,,,,,0.218518535,-0.181481492,0,0,0,,0,114,114,8,1,TULIP,HB,old,m,./images/TULIPHB.png,,,,,,,,,,,,,,,,,,,,,,,,,,,,,,,,,,,
,,,,,,,,,,,,,,,,,5f0d6c9bb43cfb0182a9d464,20,2022-02-12_13h40.33.710,lexical_decision_task_DD_L3,2021.2.3,Win32,60.09254252,,,,,,,,,,,0.7339,1,,,,,,,,,,,,,,z,1,0.7339,,,,,,,,0.218518535,-0.181481492,0,0,0,,0,115,115,114,1,RIKES,C,old,z,./images/RIKES.png,,,,,,,,,,,,,,,,,,,,,,,,,,,,,,,,,,,
,,,,,,,,,,,,,,,,,5f0d6c9bb43cfb0182a9d464,20,2022-02-12_13h40.33.710,lexical_decision_task_DD_L3,2021.2.3,Win32,60.09254252,,,,,,,,,,,0.6975,1,,,,,,,,,,,,,,z,1,0.6975,,,,,,,,0.218518535,-0.181481492,0,0,0,,0,116,116,93,1,SMONE,C,old,z,./images/SMONE.png,,,,,,,,,,,,,,,,,,,,,,,,,,,,,,,,,,,
,,,,,,,,,,,,,,,,,5f0d6c9bb43cfb0182a9d464,20,2022-02-12_13h40.33.710,lexical_decision_task_DD_L3,2021.2.3,Win32,60.09254252,,,,,,,,,,,1.7778,0,,,,,,,,,,,,,,z,0,1.7778,,,,,,,,0.218518535,-0.181481492,0,0,0,,0,117,117,17,1,SKIING,HB,old,m,./images/SKIINGHB.png,,,,,,,,,,,,,,,,,,,,,,,,,,,,,,,,,,,
,,,,,,,,,,,,,,,,,5f0d6c9bb43cfb0182a9d464,20,2022-02-12_13h40.33.710,lexical_decision_task_DD_L3,2021.2.3,Win32,60.09254252,,,,,,,,,,,0.6163,0,,,,,,,,,,,,,,z,0,0.6163,,,,,,,,0.218518535,-0.181481492,0,0,0,,0,118,118,31,1,QUILL,C,old,m,./images/QUILL.png,,,,,,,,,,,,,,,,,,,,,,,,,,,,,,,,,,,
,,,,,,,,,,,,,,,,,5f0d6c9bb43cfb0182a9d464,20,2022-02-12_13h40.33.710,lexical_decision_task_DD_L3,2021.2.3,Win32,60.09254252,,,,,,,,,,,1.2121,1,,,,,,,,,,,,,,z,1,1.2121,,,,,,,,0.218518535,-0.181481492,0,0,0,,0,119,119,145,1,LAMEL,HB,old,z,./images/LAMELHB.png,,,,,,,,,,,,,,,,,,,,,,,,,,,,,,,,,,,
,,,,,,,,,,,,,,,,,5f0d6c9bb43cfb0182a9d464,20,2022-02-12_13h40.33.710,lexical_decision_task_DD_L3,2021.2.3,Win32,60.09254252,,,,,,,,,,,0.6198,1,,,,,,,,,,,,,,m,1,0.6198,,,,,,,,0.218518535,-0.181481492,0,0,0,,0,120,120,45,1,KITTEN,LB,old,m,./images/KITTENLB.png,,,,,,,,,,,,,,,,,,,,,,,,,,,,,,,,,,,
,,,,,,,,,,,,,,,,,5f0d6c9bb43cfb0182a9d464,20,2022-02-12_13h40.33.710,lexical_decision_task_DD_L3,2021.2.3,Win32,60.09254252,,,,,,,,,,,0.8135,1,,,,,,,,,,,,,,z,1,0.8135,,,,,,,,0.218518535,-0.181481492,0,0,0,,0,121,121,128,1,GRIFT,LB,old,z,./images/GRIFTLB.png,,,,,,,,,,,,,,,,,,,,,,,,,,,,,,,,,,,
,,,,,,,,,,,,,,,,,5f0d6c9bb43cfb0182a9d464,20,2022-02-12_13h40.33.710,lexical_decision_task_DD_L3,2021.2.3,Win32,60.09254252,,,,,,,,,,,0.6743,1,,,,,,,,,,,,,,z,1,0.6743,,,,,,,,0.218518535,-0.181481492,0,0,0,,0,122,122,167,1,ZONET,LB,old,z,./images/ZONETLB.png,,,,,,,,,,,,,,,,,,,,,,,,,,,,,,,,,,,
,,,,,,,,,,,,,,,,,5f0d6c9bb43cfb0182a9d464,20,2022-02-12_13h40.33.710,lexical_decision_task_DD_L3,2021.2.3,Win32,60.09254252,,,,,,,,,,,0.5613,1,,,,,,,,,,,,,,m,1,0.5613,,,,,,,,0.218518535,-0.181481492,0,0,0,,0,123,123,64,1,JELLY,C,old,m,./images/JELLY.png,,,,,,,,,,,,,,,,,,,,,,,,,,,,,,,,,,,
,,,,,,,,,,,,,,,,,5f0d6c9bb43cfb0182a9d464,20,2022-02-12_13h40.33.710,lexical_decision_task_DD_L3,2021.2.3,Win32,60.09254252,,,,,,,,,,,1.3655,1,,,,,,,,,,,,,,z,1,1.3655,,,,,,,,0.218518535,-0.181481492,0,0,0,,0,124,124,94,1,BLANS,HB,old,z,./images/BLANSHB.png,,,,,,,,,,,,,,,,,,,,,,,,,,,,,,,,,,,
,,,,,,,,,,,,,,,,,5f0d6c9bb43cfb0182a9d464,20,2022-02-12_13h40.33.710,lexical_decision_task_DD_L3,2021.2.3,Win32,60.09254252,,,,,,,,,,,0.962,1,,,,,,,,,,,,,,z,1,0.962,,,,,,,,0.218518535,-0.181481492,0,0,0,space,0,125,125,133,1,POWDY,HB,old,z,./images/POWDYHB.png,1.2911,,,,,,,,,,,,,,,,,,,,,,,,,,,,,,,,,,
,,,,,,,,,,,,,,,,,5f0d6c9bb43cfb0182a9d464,20,2022-02-12_13h40.33.710,lexical_decision_task_DD_L3,2021.2.3,Win32,60.09254252,,,,,,,,,,,1.4434,1,,,,,,,,,,,,,,z,1,1.4434,,,,,,,,0.218518535,-0.181481492,0,0,0,,0,126,126,109,1,BURGE,HB,old,z,./images/BURGEHB.png,,,,,,,,,,,,,,,,,,,,,,,,,,,,,,,,,,,
,,,,,,,,,,,,,,,,,5f0d6c9bb43cfb0182a9d464,20,2022-02-12_13h40.33.710,lexical_decision_task_DD_L3,2021.2.3,Win32,60.09254252,,,,,,,,,,,0.5976,1,,,,,,,,,,,,,,m,1,0.5976,,,,,,,,0.218518535,-0.181481492,0,0,0,,0,127,127,24,1,SCREW,LB,old,m,./images/SCREWLB.png,,,,,,,,,,,,,,,,,,,,,,,,,,,,,,,,,,,
,,,,,,,,,,,,,,,,,5f0d6c9bb43cfb0182a9d464,20,2022-02-12_13h40.33.710,lexical_decision_task_DD_L3,2021.2.3,Win32,60.09254252,,,,,,,,,,,1.283,1,,,,,,,,,,,,,,m,1,1.283,,,,,,,,0.218518535,-0.181481492,0,0,0,,0,128,128,65,1,FARMER,HB,old,m,./images/FARMERHB.png,,,,,,,,,,,,,,,,,,,,,,,,,,,,,,,,,,,
,,,,,,,,,,,,,,,,,5f0d6c9bb43cfb0182a9d464,20,2022-02-12_13h40.33.710,lexical_decision_task_DD_L3,2021.2.3,Win32,60.09254252,,,,,,,,,,,0.6165,1,,,,,,,,,,,,,,z,1,0.6165,,,,,,,,0.218518535,-0.181481492,0,0,0,,0,129,129,126,1,GUELS,C,old,z,./images/GUELS.png,,,,,,,,,,,,,,,,,,,,,,,,,,,,,,,,,,,
,,,,,,,,,,,,,,,,,5f0d6c9bb43cfb0182a9d464,20,2022-02-12_13h40.33.710,lexical_decision_task_DD_L3,2021.2.3,Win32,60.09254252,,,,,,,,,,,0.7283,1,,,,,,,,,,,,,,m,1,0.7283,,,,,,,,0.218518535,-0.181481492,0,0,0,,0,130,130,29,1,CRUMB,HB,old,m,./images/CRUMBHB.png,,,,,,,,,,,,,,,,,,,,,,,,,,,,,,,,,,,
,,,,,,,,,,,,,,,,,5f0d6c9bb43cfb0182a9d464,20,2022-02-12_13h40.33.710,lexical_decision_task_DD_L3,2021.2.3,Win32,60.09254252,,,,,,,,,,,0.6044,1,,,,,,,,,,,,,,m,1,0.6044,,,,,,,,0.218518535,-0.181481492,0,0,0,,0,131,131,36,1,THROAT,LB,old,m,./images/THROATLB.png,,,,,,,,,,,,,,,,,,,,,,,,,,,,,,,,,,,
,,,,,,,,,,,,,,,,,5f0d6c9bb43cfb0182a9d464,20,2022-02-12_13h40.33.710,lexical_decision_task_DD_L3,2021.2.3,Win32,60.09254252,,,,,,,,,,,0.793,1,,,,,,,,,,,,,,z,1,0.793,,,,,,,,0.218518535,-0.181481492,0,0,0,,0,132,132,148,1,JOMS,HB,old,z,./images/JOMSHB.png,,,,,,,,,,,,,,,,,,,,,,,,,,,,,,,,,,,
,,,,,,,,,,,,,,,,,5f0d6c9bb43cfb0182a9d464,20,2022-02-12_13h40.33.710,lexical_decision_task_DD_L3,2021.2.3,Win32,60.09254252,,,,,,,,,,,0.6842,1,,,,,,,,,,,,,,z,1,0.6842,,,,,,,,0.218518535,-0.181481492,0,0,0,,0,133,133,98,1,BAMPS,LB,old,z,./images/BAMPSLB.png,,,,,,,,,,,,,,,,,,,,,,,,,,,,,,,,,,,
,,,,,,,,,,,,,,,,,5f0d6c9bb43cfb0182a9d464,20,2022-02-12_13h40.33.710,lexical_decision_task_DD_L3,2021.2.3,Win32,60.09254252,,,,,,,,,,,0.7045,1,,,,,,,,,,,,,,m,1,0.7045,,,,,,,,0.218518535,-0.181481492,0,0,0,,0,134,134,62,1,PURSE,HB,old,m,./images/PURSEHB.png,,,,,,,,,,,,,,,,,,,,,,,,,,,,,,,,,,,
,,,,,,,,,,,,,,,,,5f0d6c9bb43cfb0182a9d464,20,2022-02-12_13h40.33.710,lexical_decision_task_DD_L3,2021.2.3,Win32,60.09254252,,,,,,,,,,,0.6095,1,,,,,,,,,,,,,,z,1,0.6095,,,,,,,,0.218518535,-0.181481492,0,0,0,,0,135,135,125,1,MOOKY,LB,old,z,./images/MOOKYLB.png,,,,,,,,,,,,,,,,,,,,,,,,,,,,,,,,,,,
,,,,,,,,,,,,,,,,,5f0d6c9bb43cfb0182a9d464,20,2022-02-12_13h40.33.710,lexical_decision_task_DD_L3,2021.2.3,Win32,60.09254252,,,,,,,,,,,0.8087,1,,,,,,,,,,,,,,m,1,0.8087,,,,,,,,0.218518535,-0.181481492,0,0,0,,0,136,136,83,1,JUNGLE,HB,old,m,./images/JUNGLEHB.png,,,,,,,,,,,,,,,,,,,,,,,,,,,,,,,,,,,
,,,,,,,,,,,,,,,,,5f0d6c9bb43cfb0182a9d464,20,2022-02-12_13h40.33.710,lexical_decision_task_DD_L3,2021.2.3,Win32,60.09254252,,,,,,,,,,,0.8098,1,,,,,,,,,,,,,,m,1,0.8098,,,,,,,,0.218518535,-0.181481492,0,0,0,,0,137,137,44,1,LIZARD,HB,old,m,./images/LIZARDHB.png,,,,,,,,,,,,,,,,,,,,,,,,,,,,,,,,,,,
,,,,,,,,,,,,,,,,,5f0d6c9bb43cfb0182a9d464,20,2022-02-12_13h40.33.710,lexical_decision_task_DD_L3,2021.2.3,Win32,60.09254252,,,,,,,,,,,0.6452,1,,,,,,,,,,,,,,z,1,0.6452,,,,,,,,0.218518535,-0.181481492,0,0,0,,0,138,138,90,1,NEAST,C,old,z,./images/NEAST.png,,,,,,,,,,,,,,,,,,,,,,,,,,,,,,,,,,,
,,,,,,,,,,,,,,,,,5f0d6c9bb43cfb0182a9d464,20,2022-02-12_13h40.33.710,lexical_decision_task_DD_L3,2021.2.3,Win32,60.09254252,,,,,,,,,,,0.6939,1,,,,,,,,,,,,,,m,1,0.6939,,,,,,,,0.218518535,-0.181481492,0,0,0,,0,139,139,39,1,SHELF,LB,old,m,./images/SHELFLB.png,,,,,,,,,,,,,,,,,,,,,,,,,,,,,,,,,,,
,,,,,,,,,,,,,,,,,5f0d6c9bb43cfb0182a9d464,20,2022-02-12_13h40.33.710,lexical_decision_task_DD_L3,2021.2.3,Win32,60.09254252,,,,,,,,,,,0.624,1,,,,,,,,,,,,,,z,1,0.624,,,,,,,,0.218518535,-0.181481492,0,0,0,,0,140,140,110,1,CRUNK,LB,old,z,./images/CRUNKLB.png,,,,,,,,,,,,,,,,,,,,,,,,,,,,,,,,,,,
,,,,,,,,,,,,,,,,,5f0d6c9bb43cfb0182a9d464,20,2022-02-12_13h40.33.710,lexical_decision_task_DD_L3,2021.2.3,Win32,60.09254252,,,,,,,,,,,0.8214,1,,,,,,,,,,,,,,z,1,0.8214,,,,,,,,0.218518535,-0.181481492,0,0,0,,0,141,141,112,1,MYING,HB,old,z,./images/MYINGHB.png,,,,,,,,,,,,,,,,,,,,,,,,,,,,,,,,,,,
,,,,,,,,,,,,,,,,,5f0d6c9bb43cfb0182a9d464,20,2022-02-12_13h40.33.710,lexical_decision_task_DD_L3,2021.2.3,Win32,60.09254252,,,,,,,,,,,0.6813,1,,,,,,,,,,,,,,z,1,0.6813,,,,,,,,0.218518535,-0.181481492,0,0,0,,0,142,142,84,1,HAXES,C,old,z,./images/HAXES.png,,,,,,,,,,,,,,,,,,,,,,,,,,,,,,,,,,,
,,,,,,,,,,,,,,,,,5f0d6c9bb43cfb0182a9d464,20,2022-02-12_13h40.33.710,lexical_decision_task_DD_L3,2021.2.3,Win32,60.09254252,,,,,,,,,,,0.6356,1,,,,,,,,,,,,,,m,1,0.6356,,,,,,,,0.218518535,-0.181481492,0,0,0,,0,143,143,18,1,JAGUAR,LB,old,m,./images/JAGUARLB.png,,,,,,,,,,,,,,,,,,,,,,,,,,,,,,,,,,,
,,,,,,,,,,,,,,,,,5f0d6c9bb43cfb0182a9d464,20,2022-02-12_13h40.33.710,lexical_decision_task_DD_L3,2021.2.3,Win32,60.09254252,,,,,,,,,,,1.137,0,,,,,,,,,,,,,,m,0,1.137,,,,,,,,0.218518535,-0.181481492,0,0,0,,0,144,144,166,1,SHORY,HB,old,z,./images/SHORYHB.png,,,,,,,,,,,,,,,,,,,,,,,,,,,,,,,,,,,
,,,,,,,,,,,,,,,,,5f0d6c9bb43cfb0182a9d464,20,2022-02-12_13h40.33.710,lexical_decision_task_DD_L3,2021.2.3,Win32,60.09254252,,,,,,,,,,,0.7079,1,,,,,,,,,,,,,,z,1,0.7079,,,,,,,,0.218518535,-0.181481492,0,0,0,,0,145,145,158,1,EGECT,LB,old,z,./images/EGECTLB.png,,,,,,,,,,,,,,,,,,,,,,,,,,,,,,,,,,,
,,,,,,,,,,,,,,,,,5f0d6c9bb43cfb0182a9d464,20,2022-02-12_13h40.33.710,lexical_decision_task_DD_L3,2021.2.3,Win32,60.09254252,,,,,,,,,,,0.6234,1,,,,,,,,,,,,,,z,1,0.6234,,,,,,,,0.218518535,-0.181481492,0,0,0,,0,146,146,141,1,PLEET,C,old,z,./images/PLEET.png,,,,,,,,,,,,,,,,,,,,,,,,,,,,,,,,,,,
,,,,,,,,,,,,,,,,,5f0d6c9bb43cfb0182a9d464,20,2022-02-12_13h40.33.710,lexical_decision_task_DD_L3,2021.2.3,Win32,60.09254252,,,,,,,,,,,0.668,1,,,,,,,,,,,,,,z,1,0.668,,,,,,,,0.218518535,-0.181481492,0,0,0,,0,147,147,165,1,TROWN,C,old,z,./images/TROWN.png,,,,,,,,,,,,,,,,,,,,,,,,,,,,,,,,,,,
,,,,,,,,,,,,,,,,,5f0d6c9bb43cfb0182a9d464,20,2022-02-12_13h40.33.710,lexical_decision_task_DD_L3,2021.2.3,Win32,60.09254252,,,,,,,,,,,0.5859,1,,,,,,,,,,,,,,m,1,0.5859,,,,,,,,0.218518535,-0.181481492,0,0,0,,0,148,148,82,1,SUNSET,C,old,m,./images/SUNSET.png,,,,,,,,,,,,,,,,,,,,,,,,,,,,,,,,,,,
,,,,,,,,,,,,,,,,,5f0d6c9bb43cfb0182a9d464,20,2022-02-12_13h40.33.710,lexical_decision_task_DD_L3,2021.2.3,Win32,60.09254252,,,,,,,,,,,0.6048,1,,,,,,,,,,,,,,m,1,0.6048,,,,,,,,0.218518535,-0.181481492,0,0,0,,0,149,149,21,1,KIDNEY,LB,old,m,./images/KIDNEYLB.png,,,,,,,,,,,,,,,,,,,,,,,,,,,,,,,,,,,
,,,,,,,,,,,,,,,,,5f0d6c9bb43cfb0182a9d464,20,2022-02-12_13h40.33.710,lexical_decision_task_DD_L3,2021.2.3,Win32,60.09254252,,,,,,,,,,,0.7294,1,,,,,,,,,,,,,,z,1,0.7294,,,,,,,,0.218518535,-0.181481492,0,0,0,,0,150,150,122,1,BLOOT,LB,old,z,./images/BLOOTLB.png,,,,,,,,,,,,,,,,,,,,,,,,,,,,,,,,,,,
,,,,,,,,,,,,,,,,,5f0d6c9bb43cfb0182a9d464,20,2022-02-12_13h40.33.710,lexical_decision_task_DD_L3,2021.2.3,Win32,60.09254252,,,,,,,,,,,0.6018,1,,,,,,,,,,,,,,z,1,0.6018,,,,,,,,0.218518535,-0.181481492,0,0,0,,0,151,151,150,1,NOOLS,C,old,z,./images/NOOLS.png,,,,,,,,,,,,,,,,,,,,,,,,,,,,,,,,,,,
,,,,,,,,,,,,,,,,,5f0d6c9bb43cfb0182a9d464,20,2022-02-12_13h40.33.710,lexical_decision_task_DD_L3,2021.2.3,Win32,60.09254252,,,,,,,,,,,1.2958,1,,,,,,,,,,,,,,m,1,1.2958,,,,,,,,0.218518535,-0.181481492,0,0,0,,0,152,152,26,1,SMOKER,HB,old,m,./images/SMOKERHB.png,,,,,,,,,,,,,,,,,,,,,,,,,,,,,,,,,,,
,,,,,,,,,,,,,,,,,5f0d6c9bb43cfb0182a9d464,20,2022-02-12_13h40.33.710,lexical_decision_task_DD_L3,2021.2.3,Win32,60.09254252,,,,,,,,,,,0.6699,1,,,,,,,,,,,,,,z,1,0.6699,,,,,,,,0.218518535,-0.181481492,0,0,0,,0,153,153,92,1,PAIMS,LB,old,z,./images/PAIMSLB.png,,,,,,,,,,,,,,,,,,,,,,,,,,,,,,,,,,,
,,,,,,,,,,,,,,,,,5f0d6c9bb43cfb0182a9d464,20,2022-02-12_13h40.33.710,lexical_decision_task_DD_L3,2021.2.3,Win32,60.09254252,,,,,,,,,,,0.6141,1,,,,,,,,,,,,,,m,1,0.6141,,,,,,,,0.218518535,-0.181481492,0,0,0,,0,154,154,25,1,WRIST,C,old,m,./images/WRIST.png,,,,,,,,,,,,,,,,,,,,,,,,,,,,,,,,,,,
,,,,,,,,,,,,,,,,,5f0d6c9bb43cfb0182a9d464,20,2022-02-12_13h40.33.710,lexical_decision_task_DD_L3,2021.2.3,Win32,60.09254252,,,,,,,,,,,1.0755,1,,,,,,,,,,,,,,z,1,1.0755,,,,,,,,0.218518535,-0.181481492,0,0,0,,0,155,155,124,1,TUNCH,HB,old,z,./images/TUNCHHB.png,,,,,,,,,,,,,,,,,,,,,,,,,,,,,,,,,,,
,,,,,,,,,,,,,,,,,5f0d6c9bb43cfb0182a9d464,20,2022-02-12_13h40.33.710,lexical_decision_task_DD_L3,2021.2.3,Win32,60.09254252,,,,,,,,,,,0.5534,1,,,,,,,,,,,,,,z,1,0.5534,,,,,,,,0.218518535,-0.181481492,0,0,0,,0,156,156,117,1,STEEG,C,old,z,./images/STEEG.png,,,,,,,,,,,,,,,,,,,,,,,,,,,,,,,,,,,
,,,,,,,,,,,,,,,,,5f0d6c9bb43cfb0182a9d464,20,2022-02-12_13h40.33.710,lexical_decision_task_DD_L3,2021.2.3,Win32,60.09254252,,,,,,,,,,,0.6123,1,,,,,,,,,,,,,,m,1,0.6123,,,,,,,,0.218518535,-0.181481492,0,0,0,,0,157,157,3,1,FINGER,LB,old,m,./images/FINGERLB.png,,,,,,,,,,,,,,,,,,,,,,,,,,,,,,,,,,,
,,,,,,,,,,,,,,,,,5f0d6c9bb43cfb0182a9d464,20,2022-02-12_13h40.33.710,lexical_decision_task_DD_L3,2021.2.3,Win32,60.09254252,,,,,,,,,,,0.5794,1,,,,,,,,,,,,,,m,1,0.5794,,,,,,,,0.218518535,-0.181481492,0,0,0,,0,158,158,19,1,DOUGH,C,old,m,./images/DOUGH.png,,,,,,,,,,,,,,,,,,,,,,,,,,,,,,,,,,,
,,,,,,,,,,,,,,,,,5f0d6c9bb43cfb0182a9d464,20,2022-02-12_13h40.33.710,lexical_decision_task_DD_L3,2021.2.3,Win32,60.09254252,,,,,,,,,,,0.5157,1,,,,,,,,,,,,,,z,1,0.5157,,,,,,,,0.218518535,-0.181481492,0,0,0,,0,159,159,138,1,PLICE,C,old,z,./images/PLICE.png,,,,,,,,,,,,,,,,,,,,,,,,,,,,,,,,,,,
,,,,,,,,,,,,,,,,,5f0d6c9bb43cfb0182a9d464,20,2022-02-12_13h40.33.710,lexical_decision_task_DD_L3,2021.2.3,Win32,60.09254252,,,,,,,,,,,0.6759,1,,,,,,,,,,,,,,z,1,0.6759,,,,,,,,0.218518535,-0.181481492,0,0,0,,0,160,160,157,1,INLER,HB,old,z,./images/INLERHB.png,,,,,,,,,,,,,,,,,,,,,,,,,,,,,,,,,,,
,,,,,,,,,,,,,,,,,5f0d6c9bb43cfb0182a9d464,20,2022-02-12_13h40.33.710,lexical_decision_task_DD_L3,2021.2.3,Win32,60.09254252,,,,,,,,,,,1.4042,1,,,,,,,,,,,,,,z,1,1.4042,,,,,,,,0.218518535,-0.181481492,0,0,0,,0,161,161,91,1,SHENS,HB,old,z,./images/SHENSHB.png,,,,,,,,,,,,,,,,,,,,,,,,,,,,,,,,,,,
,,,,,,,,,,,,,,,,,5f0d6c9bb43cfb0182a9d464,20,2022-02-12_13h40.33.710,lexical_decision_task_DD_L3,2021.2.3,Win32,60.09254252,,,,,,,,,,,0.6404,1,,,,,,,,,,,,,,z,1,0.6404,,,,,,,,0.218518535,-0.181481492,0,0,0,,0,162,162,140,1,DOVET,LB,old,z,./images/DOVETLB.png,,,,,,,,,,,,,,,,,,,,,,,,,,,,,,,,,,,
,,,,,,,,,,,,,,,,,5f0d6c9bb43cfb0182a9d464,20,2022-02-12_13h40.33.710,lexical_decision_task_DD_L3,2021.2.3,Win32,60.09254252,,,,,,,,,,,0.7074,1,,,,,,,,,,,,,,m,1,0.7074,,,,,,,,0.218518535,-0.181481492,0,0,0,,0,163,163,43,1,MOSQUE,C,old,m,./images/MOSQUE.png,,,,,,,,,,,,,,,,,,,,,,,,,,,,,,,,,,,
,,,,,,,,,,,,,,,,,5f0d6c9bb43cfb0182a9d464,20,2022-02-12_13h40.33.710,lexical_decision_task_DD_L3,2021.2.3,Win32,60.09254252,,,,,,,,,,,1.2391,1,,,,,,,,,,,,,,m,1,1.2391,,,,,,,,0.218518535,-0.181481492,0,0,0,,0,164,164,80,1,WEASEL,HB,old,m,./images/WEASELHB.png,,,,,,,,,,,,,,,,,,,,,,,,,,,,,,,,,,,
,,,,,,,,,,,,,,,,,5f0d6c9bb43cfb0182a9d464,20,2022-02-12_13h40.33.710,lexical_decision_task_DD_L3,2021.2.3,Win32,60.09254252,,,,,,,,,,,0.5333,1,,,,,,,,,,,,,,m,1,0.5333,,,,,,,,0.218518535,-0.181481492,0,0,0,,0,165,165,77,1,COUCH,HB,old,m,./images/COUCHHB.png,,,,,,,,,,,,,,,,,,,,,,,,,,,,,,,,,,,
,,,,,,,,,,,,,,,,,5f0d6c9bb43cfb0182a9d464,20,2022-02-12_13h40.33.710,lexical_decision_task_DD_L3,2021.2.3,Win32,60.09254252,,,,,,,,,,,0.5536,1,,,,,,,,,,,,,,m,1,0.5536,,,,,,,,0.218518535,-0.181481492,0,0,0,,0,166,166,63,1,MIRROR,LB,old,m,./images/MIRRORLB.png,,,,,,,,,,,,,,,,,,,,,,,,,,,,,,,,,,,
,,,,,,,,,,,,,,,,,5f0d6c9bb43cfb0182a9d464,20,2022-02-12_13h40.33.710,lexical_decision_task_DD_L3,2021.2.3,Win32,60.09254252,,,,,,,,,,,0.7426,1,,,,,,,,,,,,,,z,1,0.7426,,,,,,,,0.218518535,-0.181481492,0,0,0,,0,167,167,102,1,DULLE,C,old,z,./images/DULLE.png,,,,,,,,,,,,,,,,,,,,,,,,,,,,,,,,,,,
,,,,,,,,,,,,,,,,,5f0d6c9bb43cfb0182a9d464,20,2022-02-12_13h40.33.710,lexical_decision_task_DD_L3,2021.2.3,Win32,60.09254252,,,,,,,,,,,,,,,,,,,,,,,,,,,,,,,,,,,,,,,,,,,,,,,,How likely will it be that you will recognize the words presented slighly blurred on a scale of 0 (not likely) to 100 (most likely)?,,,,,-0.011111098,-0.40000007,1,0,0,jol_adv,6,7.9705,0,0,0,1,1,,,,,,,,,,,,,,,,,,,,,
,,,,,,,,,,,,,,,,,5f0d6c9bb43cfb0182a9d464,20,2022-02-12_13h40.33.710,lexical_decision_task_DD_L3,2021.2.3,Win32,60.09254252,,,,,,,,,,,,,,,,,,,,,,,,,,,,,,,,,,,,,,,,,,,,,,,,How likely will it be that you will recognize the words presented very blurred on a scale of 0 (not likely) to 100 (most likely)?,,,,,,,,,,,6,6.0606,0,1,1,2,1,,,,,,,,,,,,,,,,,,,,,
,,,,,,,,,,,,,,,,,5f0d6c9bb43cfb0182a9d464,20,2022-02-12_13h40.33.710,lexical_decision_task_DD_L3,2021.2.3,Win32,60.09254252,,,,,,,,,,,,,,,,,,,,,,,,,,,,,,,,,,,,,,,,,,,,,,,,How likely will it be that you will recognize the words presented clearly on a scale of 0 (not likely) to 100 (most likely)?,,,,,,,,,,,6,5.6406,0,2,2,0,1,,,,,,,,,,,,,,,,,,,,,
space,8.9548,0.043518589,-0.383333346,0,0,0,,,,,,1,test,"In the next phase you will be presented with the words from the the first phase. Your job is to decide whether you remember seeing the word or not. If you remember seeing the word press ""old"" or type ""m"". If you do not remember seeing the word press ""new"" or type ""z"". Please press the space bar or click on continue to begin. ",,,5f0d6c9bb43cfb0182a9d464,20,2022-02-12_13h40.33.710,lexical_decision_task_DD_L3,2021.2.3,Win32,60.09254252,,,,,,,,,,,,,,,,,,,,,,,,,,,,,,,,,,,,,,,,,,,,,,,,,,,,,,,,,,,,,,,,,,0,0,0,0,1,,,,,,,,,,,,,,,,
,,0.043518589,-0.383333346,1,0,0,,,,,,1,test,"In the next phase you will be presented with the words from the the first phase. Your job is to decide whether you remember seeing the word or not. If you remember seeing the word press ""old"" or type ""m"". If you do not remember seeing the word press ""new"" or type ""z"". Please press the space bar or click on continue to begin. ",,,5f0d6c9bb43cfb0182a9d464,20,2022-02-12_13h40.33.710,lexical_decision_task_DD_L3,2021.2.3,Win32,60.09254252,,,,,,,,,,,,,,,,,,,,,,,,,,,,,,,,,,,,,,,,,,,,,,,,,,,,,,,,,,,,,,,,,,1,0,1,0,1,instr_done_button,,,,,,,,,,,,,,,
,,-0.005555542,-0.4046297,1,0,0,,,,,,1,test,"In the next phase you will be presented with the words from the the first phase. Your job is to decide whether you remember seeing the word or not. If you remember seeing the word press ""old"" or type ""m"". If you do not remember seeing the word press ""new"" or type ""z"". Please press the space bar or click on continue to begin. ",,,5f0d6c9bb43cfb0182a9d464,20,2022-02-12_13h40.33.710,lexical_decision_task_DD_L3,2021.2.3,Win32,60.09254252,,,,,,,,,,,,,,,,,,,,,,,,,,,,,,,,,,,,,,,,,,,,,,,,,,,,,,,,,,,,,,,,,,2,0,2,0,1,instr_done_button,,,,,,,,,,,,,,,
,,-0.005555542,-0.4046297,1,0,0,,,,,,1,test,"In the next phase you will be presented with the words from the the first phase. Your job is to decide whether you remember seeing the word or not. If you remember seeing the word press ""old"" or type ""m"". If you do not remember seeing the word press ""new"" or type ""z"". Please press the space bar or click on continue to begin. ",,,5f0d6c9bb43cfb0182a9d464,20,2022-02-12_13h40.33.710,lexical_decision_task_DD_L3,2021.2.3,Win32,60.09254252,,,,,,,,,,,,,,,,,,,,,,,,,,,,,,,,,,,,,,,,,,,,,,,,,,,,,,,,,,,,,,,,,,3,0,3,0,1,instr_done_button,,,,,,,,,,,,,,,
space,1.86,0.057407478,-0.254629641,0,0,0,,,,,,1,test,"In the next phase you will be presented with the words from the the first phase. Your job is to decide whether you remember seeing the word or not. If you remember seeing the word press ""old"" or type ""m"". If you do not remember seeing the word press ""new"" or type ""z"". Please press the space bar or click on continue to begin. ",,,5f0d6c9bb43cfb0182a9d464,20,2022-02-12_13h40.33.710,lexical_decision_task_DD_L3,2021.2.3,Win32,60.09254252,,,,,,,,,,,,,,,,,,,,,,,,,,,,,,,,,,,,,,,,,,,,,,,,,,,,,,,,,,,,,,,,,,4,0,4,0,1,,,,,,,,,,,,,,,,
,,,,,,,,,,,,,,,,,5f0d6c9bb43cfb0182a9d464,20,2022-02-12_13h40.33.710,lexical_decision_task_DD_L3,2021.2.3,Win32,60.09254252,,,,,,,,,,,2.1699,0,,,,,,,,,,,,,,,,,,,,,,,,0.057407478,-0.254629641,0,0,0,,,,,,,CLOUD,HB,z,m,./images/CLOUDHB.png,,,,,,,,,,,,,,,,,,,,,m,0,2.1699,,,,,,,,0,0,0,110,1
,,,,,,,,,,,,,,,,,5f0d6c9bb43cfb0182a9d464,20,2022-02-12_13h40.33.710,lexical_decision_task_DD_L3,2021.2.3,Win32,60.09254252,,,,,,,,,,,1.128,0,,,,,,,,,,,,,,,,,,,,,,,,0.057407478,-0.254629641,0,0,0,,,,,,,CLOWN,C,z,m,./images/CLOWN.png,,,,,,,,,,,,,,,,,,,,,m,0,1.128,,,,,,,,0,1,1,106,1
,,,,,,,,,,,,,,,,,5f0d6c9bb43cfb0182a9d464,20,2022-02-12_13h40.33.710,lexical_decision_task_DD_L3,2021.2.3,Win32,60.09254252,,,,,,,,,,,1.4838,0,,,,,,,,,,,,,,,,,,,,,,,,0.057407478,-0.254629641,0,0,0,,,,,,,TOMATO,LB,m,m,./images/TOMATOLB.png,,,,,,,,,,,,,,,,,,,,,z,0,1.4838,,,,,,,,0,2,2,0,1
,,,,,,,,,,,,,,,,,5f0d6c9bb43cfb0182a9d464,20,2022-02-12_13h40.33.710,lexical_decision_task_DD_L3,2021.2.3,Win32,60.09254252,,,,,,,,,,,1.0784,1,,,,,,,,,,,,,,,,,,,,,,,,0.057407478,-0.254629641,0,0,0,,,,,,,JUMPER,HB,z,m,./images/JUMPERHB.png,,,,,,,,,,,,,,,,,,,,,z,1,1.0784,,,,,,,,0,3,3,158,1
,,,,,,,,,,,,,,,,,5f0d6c9bb43cfb0182a9d464,20,2022-02-12_13h40.33.710,lexical_decision_task_DD_L3,2021.2.3,Win32,60.09254252,,,,,,,,,,,0.7027,1,,,,,,,,,,,,,,,,,,,,,,,,0.057407478,-0.254629641,0,0,0,,,,,,,WEASEL,HB,m,m,./images/WEASELHB.png,,,,,,,,,,,,,,,,,,,,,m,1,0.7027,,,,,,,,0,4,4,80,1
,,,,,,,,,,,,,,,,,5f0d6c9bb43cfb0182a9d464,20,2022-02-12_13h40.33.710,lexical_decision_task_DD_L3,2021.2.3,Win32,60.09254252,,,,,,,,,,,0.665,1,,,,,,,,,,,,,,,,,,,,,,,,0.057407478,-0.254629641,0,0,0,,,,,,,JUNGLE,HB,m,m,./images/JUNGLEHB.png,,,,,,,,,,,,,,,,,,,,,m,1,0.665,,,,,,,,0,5,5,83,1
,,,,,,,,,,,,,,,,,5f0d6c9bb43cfb0182a9d464,20,2022-02-12_13h40.33.710,lexical_decision_task_DD_L3,2021.2.3,Win32,60.09254252,,,,,,,,,,,1.4056,1,,,,,,,,,,,,,,,,,,,,,,,,0.057407478,-0.254629641,0,0,0,,,,,,,BANANA,C,z,m,./images/BANANA.png,,,,,,,,,,,,,,,,,,,,,z,1,1.4056,,,,,,,,0,6,6,154,1
,,,,,,,,,,,,,,,,,5f0d6c9bb43cfb0182a9d464,20,2022-02-12_13h40.33.710,lexical_decision_task_DD_L3,2021.2.3,Win32,60.09254252,,,,,,,,,,,1.4176,1,,,,,,,,,,,,,,,,,,,,,,,,0.057407478,-0.254629641,0,0,0,,,,,,,FLASK,LB,z,m,./images/FLASKLB.png,,,,,,,,,,,,,,,,,,,,,z,1,1.4176,,,,,,,,0,7,7,156,1
,,,,,,,,,,,,,,,,,5f0d6c9bb43cfb0182a9d464,20,2022-02-12_13h40.33.710,lexical_decision_task_DD_L3,2021.2.3,Win32,60.09254252,,,,,,,,,,,1.0782,1,,,,,,,,,,,,,,,,,,,,,,,,0.057407478,-0.254629641,0,0,0,,,,,,,MEDAL,HB,z,m,./images/MEDALHB.png,,,,,,,,,,,,,,,,,,,,,z,1,1.0782,,,,,,,,0,8,8,95,1
,,,,,,,,,,,,,,,,,5f0d6c9bb43cfb0182a9d464,20,2022-02-12_13h40.33.710,lexical_decision_task_DD_L3,2021.2.3,Win32,60.09254252,,,,,,,,,,,0.6792,1,,,,,,,,,,,,,,,,,,,,,,,,0.057407478,-0.254629641,0,0,0,,,,,,,WRIST,C,m,m,./images/WRIST.png,,,,,,,,,,,,,,,,,,,,,m,1,0.6792,,,,,,,,0,9,9,25,1
,,,,,,,,,,,,,,,,,5f0d6c9bb43cfb0182a9d464,20,2022-02-12_13h40.33.710,lexical_decision_task_DD_L3,2021.2.3,Win32,60.09254252,,,,,,,,,,,0.7984,1,,,,,,,,,,,,,,,,,,,,,,,,0.057407478,-0.254629641,0,0,0,,,,,,,CHALK,C,z,m,./images/CHALK.png,,,,,,,,,,,,,,,,,,,,,z,1,0.7984,,,,,,,,0,10,10,109,1
,,,,,,,,,,,,,,,,,5f0d6c9bb43cfb0182a9d464,20,2022-02-12_13h40.33.710,lexical_decision_task_DD_L3,2021.2.3,Win32,60.09254252,,,,,,,,,,,0.8248,1,,,,,,,,,,,,,,,,,,,,,,,,0.057407478,-0.254629641,0,0,0,,,,,,,CEMENT,HB,m,m,./images/CEMENTHB.png,,,,,,,,,,,,,,,,,,,,,m,1,0.8248,,,,,,,,0,11,11,74,1
,,,,,,,,,,,,,,,,,5f0d6c9bb43cfb0182a9d464,20,2022-02-12_13h40.33.710,lexical_decision_task_DD_L3,2021.2.3,Win32,60.09254252,,,,,,,,,,,1.1718,0,,,,,,,,,,,,,,,,,,,,,,,,0.057407478,-0.254629641,0,0,0,,,,,,,CARPET,HB,m,m,./images/CARPETHB.png,,,,,,,,,,,,,,,,,,,,,z,0,1.1718,,,,,,,,0,12,12,53,1
,,,,,,,,,,,,,,,,,5f0d6c9bb43cfb0182a9d464,20,2022-02-12_13h40.33.710,lexical_decision_task_DD_L3,2021.2.3,Win32,60.09254252,,,,,,,,,,,0.6426,1,,,,,,,,,,,,,,,,,,,,,,,,0.057407478,-0.254629641,0,0,0,,,,,,,STRING,HB,m,m,./images/STRINGHB.png,,,,,,,,,,,,,,,,,,,,,m,1,0.6426,,,,,,,,0,13,13,41,1
,,,,,,,,,,,,,,,,,5f0d6c9bb43cfb0182a9d464,20,2022-02-12_13h40.33.710,lexical_decision_task_DD_L3,2021.2.3,Win32,60.09254252,,,,,,,,,,,1.2944,1,,,,,,,,,,,,,,,,,,,,,,,,0.057407478,-0.254629641,0,0,0,,,,,,,CANDLE,C,m,m,./images/CANDLE.png,,,,,,,,,,,,,,,,,,,,,m,1,1.2944,,,,,,,,0,14,14,61,1
,,,,,,,,,,,,,,,,,5f0d6c9bb43cfb0182a9d464,20,2022-02-12_13h40.33.710,lexical_decision_task_DD_L3,2021.2.3,Win32,60.09254252,,,,,,,,,,,0.9902,1,,,,,,,,,,,,,,,,,,,,,,,,0.057407478,-0.254629641,0,0,0,,,,,,,MAMMAL,HB,z,m,./images/MAMMALHB.png,,,,,,,,,,,,,,,,,,,,,z,1,0.9902,,,,,,,,0,15,15,146,1
,,,,,,,,,,,,,,,,,5f0d6c9bb43cfb0182a9d464,20,2022-02-12_13h40.33.710,lexical_decision_task_DD_L3,2021.2.3,Win32,60.09254252,,,,,,,,,,,0.6618,1,,,,,,,,,,,,,,,,,,,,,,,,0.057407478,-0.254629641,0,0,0,,,,,,,RHINO,LB,m,m,./images/RHINOLB.png,,,,,,,,,,,,,,,,,,,,,m,1,0.6618,,,,,,,,0,16,16,9,1
,,,,,,,,,,,,,,,,,5f0d6c9bb43cfb0182a9d464,20,2022-02-12_13h40.33.710,lexical_decision_task_DD_L3,2021.2.3,Win32,60.09254252,,,,,,,,,,,1.3701,1,,,,,,,,,,,,,,,,,,,,,,,,0.057407478,-0.254629641,0,0,0,,,,,,,WHEEL,HB,z,m,./images/WHEELHB.png,,,,,,,,,,,,,,,,,,,,,z,1,1.3701,,,,,,,,0,17,17,161,1
,,,,,,,,,,,,,,,,,5f0d6c9bb43cfb0182a9d464,20,2022-02-12_13h40.33.710,lexical_decision_task_DD_L3,2021.2.3,Win32,60.09254252,,,,,,,,,,,1.6525,1,,,,,,,,,,,,,,,,,,,,,,,,0.057407478,-0.254629641,0,0,0,,,,,,,HEATER,HB,z,m,./images/HEATERHB.png,,,,,,,,,,,,,,,,,,,,,z,1,1.6525,,,,,,,,0,18,18,140,1
,,,,,,,,,,,,,,,,,5f0d6c9bb43cfb0182a9d464,20,2022-02-12_13h40.33.710,lexical_decision_task_DD_L3,2021.2.3,Win32,60.09254252,,,,,,,,,,,0.7419,1,,,,,,,,,,,,,,,,,,,,,,,,0.057407478,-0.254629641,0,0,0,,,,,,,STORM,LB,m,m,./images/STORMLB.png,,,,,,,,,,,,,,,,,,,,,m,1,0.7419,,,,,,,,0,19,19,30,1
,,,,,,,,,,,,,,,,,5f0d6c9bb43cfb0182a9d464,20,2022-02-12_13h40.33.710,lexical_decision_task_DD_L3,2021.2.3,Win32,60.09254252,,,,,,,,,,,0.6563,1,,,,,,,,,,,,,,,,,,,,,,,,0.057407478,-0.254629641,0,0,0,,,,,,,DANCER,LB,z,m,./images/DANCERLB.png,,,,,,,,,,,,,,,,,,,,,z,1,0.6563,,,,,,,,0,20,20,105,1
,,,,,,,,,,,,,,,,,5f0d6c9bb43cfb0182a9d464,20,2022-02-12_13h40.33.710,lexical_decision_task_DD_L3,2021.2.3,Win32,60.09254252,,,,,,,,,,,0.7107,0,,,,,,,,,,,,,,,,,,,,,,,,0.057407478,-0.254629641,0,0,0,,,,,,,CANDY,LB,z,m,./images/CANDYLB.png,,,,,,,,,,,,,,,,,,,,,m,0,0.7107,,,,,,,,0,21,21,123,1
,,,,,,,,,,,,,,,,,5f0d6c9bb43cfb0182a9d464,20,2022-02-12_13h40.33.710,lexical_decision_task_DD_L3,2021.2.3,Win32,60.09254252,,,,,,,,,,,0.7386,1,,,,,,,,,,,,,,,,,,,,,,,,0.057407478,-0.254629641,0,0,0,,,,,,,CASINO,C,z,m,./images/CASINO.png,,,,,,,,,,,,,,,,,,,,,z,1,0.7386,,,,,,,,0,22,22,112,1
,,,,,,,,,,,,,,,,,5f0d6c9bb43cfb0182a9d464,20,2022-02-12_13h40.33.710,lexical_decision_task_DD_L3,2021.2.3,Win32,60.09254252,,,,,,,,,,,0.8255,0,,,,,,,,,,,,,,,,,,,,,,,,0.057407478,-0.254629641,0,0,0,,,,,,,HAMMER,LB,z,m,./images/HAMMERLB.png,,,,,,,,,,,,,,,,,,,,,m,0,0.8255,,,,,,,,0,23,23,159,1
,,,,,,,,,,,,,,,,,5f0d6c9bb43cfb0182a9d464,20,2022-02-12_13h40.33.710,lexical_decision_task_DD_L3,2021.2.3,Win32,60.09254252,,,,,,,,,,,0.6785,1,,,,,,,,,,,,,,,,,,,,,,,,0.057407478,-0.254629641,0,0,0,,,,,,,BOILER,LB,z,m,./images/BOILERLB.png,,,,,,,,,,,,,,,,,,,,,z,1,0.6785,,,,,,,,0,24,24,120,1
,,,,,,,,,,,,,,,,,5f0d6c9bb43cfb0182a9d464,20,2022-02-12_13h40.33.710,lexical_decision_task_DD_L3,2021.2.3,Win32,60.09254252,,,,,,,,,,,0.7702,0,,,,,,,,,,,,,,,,,,,,,,,,0.057407478,-0.254629641,0,0,0,,,,,,,DESERT,C,z,m,./images/DESERT.png,,,,,,,,,,,,,,,,,,,,,m,0,0.7702,,,,,,,,0,25,25,136,1
,,,,,,,,,,,,,,,,,5f0d6c9bb43cfb0182a9d464,20,2022-02-12_13h40.33.710,lexical_decision_task_DD_L3,2021.2.3,Win32,60.09254252,,,,,,,,,,,1.0807,0,,,,,,,,,,,,,,,,,,,,,,,,0.057407478,-0.254629641,0,0,0,,,,,,,SNAKE,C,z,m,./images/SNAKE.png,,,,,,,,,,,,,,,,,,,,,m,0,1.0807,,,,,,,,0,26,26,124,1
,,,,,,,,,,,,,,,,,5f0d6c9bb43cfb0182a9d464,20,2022-02-12_13h40.33.710,lexical_decision_task_DD_L3,2021.2.3,Win32,60.09254252,,,,,,,,,,,0.7224,1,,,,,,,,,,,,,,,,,,,,,,,,0.057407478,-0.254629641,0,0,0,,,,,,,POSTER,HB,z,m,./images/POSTERHB.png,,,,,,,,,,,,,,,,,,,,,z,1,0.7224,,,,,,,,0,27,27,137,1
,,,,,,,,,,,,,,,,,5f0d6c9bb43cfb0182a9d464,20,2022-02-12_13h40.33.710,lexical_decision_task_DD_L3,2021.2.3,Win32,60.09254252,,,,,,,,,,,0.8218,1,,,,,,,,,,,,,,,,,,,,,,,,0.057407478,-0.254629641,0,0,0,,,,,,,BEARD,HB,m,m,./images/BEARDHB.png,,,,,,,,,,,,,,,,,,,,,m,1,0.8218,,,,,,,,0,28,28,2,1
,,,,,,,,,,,,,,,,,5f0d6c9bb43cfb0182a9d464,20,2022-02-12_13h40.33.710,lexical_decision_task_DD_L3,2021.2.3,Win32,60.09254252,,,,,,,,,,,0.8914,1,,,,,,,,,,,,,,,,,,,,,,,,0.057407478,-0.254629641,0,0,0,,,,,,,PARADE,HB,z,m,./images/PARADEHB.png,,,,,,,,,,,,,,,,,,,,,z,1,0.8914,,,,,,,,0,29,29,101,1
,,,,,,,,,,,,,,,,,5f0d6c9bb43cfb0182a9d464,20,2022-02-12_13h40.33.710,lexical_decision_task_DD_L3,2021.2.3,Win32,60.09254252,,,,,,,,,,,0.7265,1,,,,,,,,,,,,,,,,,,,,,,,,0.057407478,-0.254629641,0,0,0,,,,,,,STATUE,LB,z,m,./images/STATUELB.png,,,,,,,,,,,,,,,,,,,,,z,1,0.7265,,,,,,,,0,30,30,150,1
,,,,,,,,,,,,,,,,,5f0d6c9bb43cfb0182a9d464,20,2022-02-12_13h40.33.710,lexical_decision_task_DD_L3,2021.2.3,Win32,60.09254252,,,,,,,,,,,0.7252,1,,,,,,,,,,,,,,,,,,,,,,,,0.057407478,-0.254629641,0,0,0,,,,,,,PISTOL,HB,z,m,./images/PISTOLHB.png,,,,,,,,,,,,,,,,,,,,,z,1,0.7252,,,,,,,,0,31,31,113,1
,,,,,,,,,,,,,,,,,5f0d6c9bb43cfb0182a9d464,20,2022-02-12_13h40.33.710,lexical_decision_task_DD_L3,2021.2.3,Win32,60.09254252,,,,,,,,,,,0.67,1,,,,,,,,,,,,,,,,,,,,,,,,0.057407478,-0.254629641,0,0,0,,,,,,,CLOTH,HB,z,m,./images/CLOTHHB.png,,,,,,,,,,,,,,,,,,,,,z,1,0.67,,,,,,,,0,32,32,107,1
,,,,,,,,,,,,,,,,,5f0d6c9bb43cfb0182a9d464,20,2022-02-12_13h40.33.710,lexical_decision_task_DD_L3,2021.2.3,Win32,60.09254252,,,,,,,,,,,0.6898,1,,,,,,,,,,,,,,,,,,,,,,,,0.057407478,-0.254629641,0,0,0,,,,,,,BIRTH,C,m,m,./images/BIRTH.png,,,,,,,,,,,,,,,,,,,,,m,1,0.6898,,,,,,,,0,33,33,37,1
,,,,,,,,,,,,,,,,,5f0d6c9bb43cfb0182a9d464,20,2022-02-12_13h40.33.710,lexical_decision_task_DD_L3,2021.2.3,Win32,60.09254252,,,,,,,,,,,0.689,1,,,,,,,,,,,,,,,,,,,,,,,,0.057407478,-0.254629641,0,0,0,,,,,,,SNACK,C,m,m,./images/SNACK.png,,,,,,,,,,,,,,,,,,,,,m,1,0.689,,,,,,,,0,34,34,73,1
,,,,,,,,,,,,,,,,,5f0d6c9bb43cfb0182a9d464,20,2022-02-12_13h40.33.710,lexical_decision_task_DD_L3,2021.2.3,Win32,60.09254252,,,,,,,,,,,0.7772,1,,,,,,,,,,,,,,,,,,,,,,,,0.057407478,-0.254629641,0,0,0,,,,,,,FERRY,LB,z,m,./images/FERRYLB.png,,,,,,,,,,,,,,,,,,,,,z,1,0.7772,,,,,,,,0,35,35,141,1
,,,,,,,,,,,,,,,,,5f0d6c9bb43cfb0182a9d464,20,2022-02-12_13h40.33.710,lexical_decision_task_DD_L3,2021.2.3,Win32,60.09254252,,,,,,,,,,,0.6818,1,,,,,,,,,,,,,,,,,,,,,,,,0.057407478,-0.254629641,0,0,0,,,,,,,BISHOP,C,z,m,./images/BISHOP.png,,,,,,,,,,,,,,,,,,,,,z,1,0.6818,,,,,,,,0,36,36,133,1
,,,,,,,,,,,,,,,,,5f0d6c9bb43cfb0182a9d464,20,2022-02-12_13h40.33.710,lexical_decision_task_DD_L3,2021.2.3,Win32,60.09254252,,,,,,,,,,,0.7883,1,,,,,,,,,,,,,,,,,,,,,,,,0.057407478,-0.254629641,0,0,0,,,,,,,FENCE,HB,z,m,./images/FENCEHB.png,,,,,,,,,,,,,,,,,,,,,z,1,0.7883,,,,,,,,0,37,37,98,1
,,,,,,,,,,,,,,,,,5f0d6c9bb43cfb0182a9d464,20,2022-02-12_13h40.33.710,lexical_decision_task_DD_L3,2021.2.3,Win32,60.09254252,,,,,,,,,,,0.6822,0,,,,,,,,,,,,,,,,,,,,,,,,0.057407478,-0.254629641,0,0,0,,,,,,,LITTER,LB,m,m,./images/LITTERLB.png,,,,,,,,,,,,,,,,,,,,,z,0,0.6822,,,,,,,,0,38,38,78,1
,,,,,,,,,,,,,,,,,5f0d6c9bb43cfb0182a9d464,20,2022-02-12_13h40.33.710,lexical_decision_task_DD_L3,2021.2.3,Win32,60.09254252,,,,,,,,,,,0.685,1,,,,,,,,,,,,,,,,,,,,,,,,0.057407478,-0.254629641,0,0,0,,,,,,,ARTIST,C,z,m,./images/ARTIST.png,,,,,,,,,,,,,,,,,,,,,z,1,0.685,,,,,,,,0,39,39,145,1
,,,,,,,,,,,,,,,,,5f0d6c9bb43cfb0182a9d464,20,2022-02-12_13h40.33.710,lexical_decision_task_DD_L3,2021.2.3,Win32,60.09254252,,,,,,,,,,,0.7087,1,,,,,,,,,,,,,,,,,,,,,,,,0.057407478,-0.254629641,0,0,0,,,,,,,SHIELD,LB,z,m,./images/SHIELDLB.png,,,,,,,,,,,,,,,,,,,,,z,1,0.7087,,,,,,,,0,40,40,132,1
,,,,,,,,,,,,,,,,,5f0d6c9bb43cfb0182a9d464,20,2022-02-12_13h40.33.710,lexical_decision_task_DD_L3,2021.2.3,Win32,60.09254252,,,,,,,,,,,0.7113,1,,,,,,,,,,,,,,,,,,,,,,,,0.057407478,-0.254629641,0,0,0,space,,,,,,TOWEL,C,z,m,./images/TOWEL.png,1.1705,,,,,,,,,,,,,,,,,,,,z,1,0.7113,,,,,,,,0,41,41,85,1
,,,,,,,,,,,,,,,,,5f0d6c9bb43cfb0182a9d464,20,2022-02-12_13h40.33.710,lexical_decision_task_DD_L3,2021.2.3,Win32,60.09254252,,,,,,,,,,,1.0063,1,,,,,,,,,,,,,,,,,,,,,,,,0.057407478,-0.254629641,0,0,0,,,,,,,CRADLE,HB,m,m,./images/CRADLEHB.png,,,,,,,,,,,,,,,,,,,,,m,1,1.0063,,,,,,,,0,42,42,20,1
,,,,,,,,,,,,,,,,,5f0d6c9bb43cfb0182a9d464,20,2022-02-12_13h40.33.710,lexical_decision_task_DD_L3,2021.2.3,Win32,60.09254252,,,,,,,,,,,0.6614,0,,,,,,,,,,,,,,,,,,,,,,,,0.057407478,-0.254629641,0,0,0,,,,,,,CRUST,C,m,m,./images/CRUST.png,,,,,,,,,,,,,,,,,,,,,z,0,0.6614,,,,,,,,0,43,43,79,1
,,,,,,,,,,,,,,,,,5f0d6c9bb43cfb0182a9d464,20,2022-02-12_13h40.33.710,lexical_decision_task_DD_L3,2021.2.3,Win32,60.09254252,,,,,,,,,,,0.6065,1,,,,,,,,,,,,,,,,,,,,,,,,0.057407478,-0.254629641,0,0,0,,,,,,,SCREW,LB,m,m,./images/SCREWLB.png,,,,,,,,,,,,,,,,,,,,,m,1,0.6065,,,,,,,,0,44,44,24,1
,,,,,,,,,,,,,,,,,5f0d6c9bb43cfb0182a9d464,20,2022-02-12_13h40.33.710,lexical_decision_task_DD_L3,2021.2.3,Win32,60.09254252,,,,,,,,,,,0.6414,1,,,,,,,,,,,,,,,,,,,,,,,,0.057407478,-0.254629641,0,0,0,,,,,,,PURSE,HB,m,m,./images/PURSEHB.png,,,,,,,,,,,,,,,,,,,,,m,1,0.6414,,,,,,,,0,45,45,62,1
,,,,,,,,,,,,,,,,,5f0d6c9bb43cfb0182a9d464,20,2022-02-12_13h40.33.710,lexical_decision_task_DD_L3,2021.2.3,Win32,60.09254252,,,,,,,,,,,0.6599,1,,,,,,,,,,,,,,,,,,,,,,,,0.057407478,-0.254629641,0,0,0,,,,,,,TULIP,HB,m,m,./images/TULIPHB.png,,,,,,,,,,,,,,,,,,,,,m,1,0.6599,,,,,,,,0,46,46,8,1
,,,,,,,,,,,,,,,,,5f0d6c9bb43cfb0182a9d464,20,2022-02-12_13h40.33.710,lexical_decision_task_DD_L3,2021.2.3,Win32,60.09254252,,,,,,,,,,,0.765,1,,,,,,,,,,,,,,,,,,,,,,,,0.057407478,-0.254629641,0,0,0,,,,,,,BRIDE,C,z,m,./images/BRIDE.png,,,,,,,,,,,,,,,,,,,,,z,1,0.765,,,,,,,,0,47,47,148,1
,,,,,,,,,,,,,,,,,5f0d6c9bb43cfb0182a9d464,20,2022-02-12_13h40.33.710,lexical_decision_task_DD_L3,2021.2.3,Win32,60.09254252,,,,,,,,,,,0.7932,0,,,,,,,,,,,,,,,,,,,,,,,,0.057407478,-0.254629641,0,0,0,,,,,,,MUSCLE,C,m,m,./images/MUSCLE.png,,,,,,,,,,,,,,,,,,,,,z,0,0.7932,,,,,,,,0,48,48,4,1
,,,,,,,,,,,,,,,,,5f0d6c9bb43cfb0182a9d464,20,2022-02-12_13h40.33.710,lexical_decision_task_DD_L3,2021.2.3,Win32,60.09254252,,,,,,,,,,,0.8281,1,,,,,,,,,,,,,,,,,,,,,,,,0.057407478,-0.254629641,0,0,0,,,,,,,RAZOR,C,z,m,./images/RAZOR.png,,,,,,,,,,,,,,,,,,,,,z,1,0.8281,,,,,,,,0,49,49,118,1
,,,,,,,,,,,,,,,,,5f0d6c9bb43cfb0182a9d464,20,2022-02-12_13h40.33.710,lexical_decision_task_DD_L3,2021.2.3,Win32,60.09254252,,,,,,,,,,,0.7871,1,,,,,,,,,,,,,,,,,,,,,,,,0.057407478,-0.254629641,0,0,0,,,,,,,BUNNY,C,z,m,./images/BUNNY.png,,,,,,,,,,,,,,,,,,,,,z,1,0.7871,,,,,,,,0,50,50,97,1
,,,,,,,,,,,,,,,,,5f0d6c9bb43cfb0182a9d464,20,2022-02-12_13h40.33.710,lexical_decision_task_DD_L3,2021.2.3,Win32,60.09254252,,,,,,,,,,,0.853,1,,,,,,,,,,,,,,,,,,,,,,,,0.057407478,-0.254629641,0,0,0,,,,,,,FARMER,HB,m,m,./images/FARMERHB.png,,,,,,,,,,,,,,,,,,,,,m,1,0.853,,,,,,,,0,51,51,65,1
,,,,,,,,,,,,,,,,,5f0d6c9bb43cfb0182a9d464,20,2022-02-12_13h40.33.710,lexical_decision_task_DD_L3,2021.2.3,Win32,60.09254252,,,,,,,,,,,0.8934,0,,,,,,,,,,,,,,,,,,,,,,,,0.057407478,-0.254629641,0,0,0,,,,,,,PARCEL,LB,z,m,./images/PARCELLB.png,,,,,,,,,,,,,,,,,,,,,m,0,0.8934,,,,,,,,0,52,52,102,1
,,,,,,,,,,,,,,,,,5f0d6c9bb43cfb0182a9d464,20,2022-02-12_13h40.33.710,lexical_decision_task_DD_L3,2021.2.3,Win32,60.09254252,,,,,,,,,,,0.7268,0,,,,,,,,,,,,,,,,,,,,,,,,0.057407478,-0.254629641,0,0,0,,,,,,,POKER,C,z,m,./images/POKER.png,,,,,,,,,,,,,,,,,,,,,m,0,0.7268,,,,,,,,0,53,53,151,1
,,,,,,,,,,,,,,,,,5f0d6c9bb43cfb0182a9d464,20,2022-02-12_13h40.33.710,lexical_decision_task_DD_L3,2021.2.3,Win32,60.09254252,,,,,,,,,,,0.8181,1,,,,,,,,,,,,,,,,,,,,,,,,0.057407478,-0.254629641,0,0,0,,,,,,,CHAIN,LB,z,m,./images/CHAINLB.png,,,,,,,,,,,,,,,,,,,,,z,1,0.8181,,,,,,,,0,54,54,126,1
,,,,,,,,,,,,,,,,,5f0d6c9bb43cfb0182a9d464,20,2022-02-12_13h40.33.710,lexical_decision_task_DD_L3,2021.2.3,Win32,60.09254252,,,,,,,,,,,1.0879,1,,,,,,,,,,,,,,,,,,,,,,,,0.057407478,-0.254629641,0,0,0,,,,,,,STREAM,HB,z,m,./images/STREAMHB.png,,,,,,,,,,,,,,,,,,,,,z,1,1.0879,,,,,,,,0,55,55,125,1
,,,,,,,,,,,,,,,,,5f0d6c9bb43cfb0182a9d464,20,2022-02-12_13h40.33.710,lexical_decision_task_DD_L3,2021.2.3,Win32,60.09254252,,,,,,,,,,,0.843,1,,,,,,,,,,,,,,,,,,,,,,,,0.057407478,-0.254629641,0,0,0,,,,,,,PLANK,C,m,m,./images/PLANK.png,,,,,,,,,,,,,,,,,,,,,m,1,0.843,,,,,,,,0,56,56,1,1
,,,,,,,,,,,,,,,,,5f0d6c9bb43cfb0182a9d464,20,2022-02-12_13h40.33.710,lexical_decision_task_DD_L3,2021.2.3,Win32,60.09254252,,,,,,,,,,,0.7873,0,,,,,,,,,,,,,,,,,,,,,,,,0.057407478,-0.254629641,0,0,0,,,,,,,PACKET,HB,m,m,./images/PACKETHB.png,,,,,,,,,,,,,,,,,,,,,z,0,0.7873,,,,,,,,0,57,57,56,1
,,,,,,,,,,,,,,,,,5f0d6c9bb43cfb0182a9d464,20,2022-02-12_13h40.33.710,lexical_decision_task_DD_L3,2021.2.3,Win32,60.09254252,,,,,,,,,,,0.8078,1,,,,,,,,,,,,,,,,,,,,,,,,0.057407478,-0.254629641,0,0,0,,,,,,,ARROW,LB,z,m,./images/ARROWLB.png,,,,,,,,,,,,,,,,,,,,,z,1,0.8078,,,,,,,,0,58,58,153,1
,,,,,,,,,,,,,,,,,5f0d6c9bb43cfb0182a9d464,20,2022-02-12_13h40.33.710,lexical_decision_task_DD_L3,2021.2.3,Win32,60.09254252,,,,,,,,,,,1.1803,1,,,,,,,,,,,,,,,,,,,,,,,,0.057407478,-0.254629641,0,0,0,,,,,,,WHISKY,HB,z,m,./images/WHISKYHB.png,,,,,,,,,,,,,,,,,,,,,z,1,1.1803,,,,,,,,0,59,59,167,1
,,,,,,,,,,,,,,,,,5f0d6c9bb43cfb0182a9d464,20,2022-02-12_13h40.33.710,lexical_decision_task_DD_L3,2021.2.3,Win32,60.09254252,,,,,,,,,,,0.7954,1,,,,,,,,,,,,,,,,,,,,,,,,0.057407478,-0.254629641,0,0,0,,,,,,,PEACH,HB,m,m,./images/PEACHHB.png,,,,,,,,,,,,,,,,,,,,,m,1,0.7954,,,,,,,,0,60,60,35,1
,,,,,,,,,,,,,,,,,5f0d6c9bb43cfb0182a9d464,20,2022-02-12_13h40.33.710,lexical_decision_task_DD_L3,2021.2.3,Win32,60.09254252,,,,,,,,,,,0.8331,0,,,,,,,,,,,,,,,,,,,,,,,,0.057407478,-0.254629641,0,0,0,,,,,,,MOTOR,C,m,m,./images/MOTOR.png,,,,,,,,,,,,,,,,,,,,,z,0,0.8331,,,,,,,,0,61,61,13,1
,,,,,,,,,,,,,,,,,5f0d6c9bb43cfb0182a9d464,20,2022-02-12_13h40.33.710,lexical_decision_task_DD_L3,2021.2.3,Win32,60.09254252,,,,,,,,,,,0.6262,1,,,,,,,,,,,,,,,,,,,,,,,,0.057407478,-0.254629641,0,0,0,,,,,,,BOXER,C,z,m,./images/BOXER.png,,,,,,,,,,,,,,,,,,,,,z,1,0.6262,,,,,,,,0,62,62,88,1
,,,,,,,,,,,,,,,,,5f0d6c9bb43cfb0182a9d464,20,2022-02-12_13h40.33.710,lexical_decision_task_DD_L3,2021.2.3,Win32,60.09254252,,,,,,,,,,,0.8243,0,,,,,,,,,,,,,,,,,,,,,,,,0.057407478,-0.254629641,0,0,0,,,,,,,PLANET,HB,z,m,./images/PLANETHB.png,,,,,,,,,,,,,,,,,,,,,m,0,0.8243,,,,,,,,0,63,63,164,1
,,,,,,,,,,,,,,,,,5f0d6c9bb43cfb0182a9d464,20,2022-02-12_13h40.33.710,lexical_decision_task_DD_L3,2021.2.3,Win32,60.09254252,,,,,,,,,,,0.8092,1,,,,,,,,,,,,,,,,,,,,,,,,0.057407478,-0.254629641,0,0,0,,,,,,,BROOM,LB,z,m,./images/BROOMLB.png,,,,,,,,,,,,,,,,,,,,,z,1,0.8092,,,,,,,,0,64,64,162,1
,,,,,,,,,,,,,,,,,5f0d6c9bb43cfb0182a9d464,20,2022-02-12_13h40.33.710,lexical_decision_task_DD_L3,2021.2.3,Win32,60.09254252,,,,,,,,,,,0.8677,0,,,,,,,,,,,,,,,,,,,,,,,,0.057407478,-0.254629641,0,0,0,,,,,,,CRATER,LB,z,m,./images/CRATERLB.png,,,,,,,,,,,,,,,,,,,,,m,0,0.8677,,,,,,,,0,65,65,87,1
,,,,,,,,,,,,,,,,,5f0d6c9bb43cfb0182a9d464,20,2022-02-12_13h40.33.710,lexical_decision_task_DD_L3,2021.2.3,Win32,60.09254252,,,,,,,,,,,0.6557,1,,,,,,,,,,,,,,,,,,,,,,,,0.057407478,-0.254629641,0,0,0,,,,,,,BABOON,C,m,m,./images/BABOON.png,,,,,,,,,,,,,,,,,,,,,m,1,0.6557,,,,,,,,0,66,66,58,1
,,,,,,,,,,,,,,,,,5f0d6c9bb43cfb0182a9d464,20,2022-02-12_13h40.33.710,lexical_decision_task_DD_L3,2021.2.3,Win32,60.09254252,,,,,,,,,,,0.6031,0,,,,,,,,,,,,,,,,,,,,,,,,0.057407478,-0.254629641,0,0,0,,,,,,,COLLAR,LB,z,m,./images/COLLARLB.png,,,,,,,,,,,,,,,,,,,,,m,0,0.6031,,,,,,,,0,67,67,99,1
,,,,,,,,,,,,,,,,,5f0d6c9bb43cfb0182a9d464,20,2022-02-12_13h40.33.710,lexical_decision_task_DD_L3,2021.2.3,Win32,60.09254252,,,,,,,,,,,0.7877,1,,,,,,,,,,,,,,,,,,,,,,,,0.057407478,-0.254629641,0,0,0,,,,,,,BUBBLE,HB,z,m,./images/BUBBLEHB.png,,,,,,,,,,,,,,,,,,,,,z,1,0.7877,,,,,,,,0,68,68,155,1
,,,,,,,,,,,,,,,,,5f0d6c9bb43cfb0182a9d464,20,2022-02-12_13h40.33.710,lexical_decision_task_DD_L3,2021.2.3,Win32,60.09254252,,,,,,,,,,,0.7461,0,,,,,,,,,,,,,,,,,,,,,,,,0.057407478,-0.254629641,0,0,0,,,,,,,MUFFIN,C,m,m,./images/MUFFIN.png,,,,,,,,,,,,,,,,,,,,,z,0,0.7461,,,,,,,,0,69,69,55,1
,,,,,,,,,,,,,,,,,5f0d6c9bb43cfb0182a9d464,20,2022-02-12_13h40.33.710,lexical_decision_task_DD_L3,2021.2.3,Win32,60.09254252,,,,,,,,,,,0.7528,1,,,,,,,,,,,,,,,,,,,,,,,,0.057407478,-0.254629641,0,0,0,,,,,,,SWING,C,m,m,./images/SWING.png,,,,,,,,,,,,,,,,,,,,,m,1,0.7528,,,,,,,,0,70,70,40,1
,,,,,,,,,,,,,,,,,5f0d6c9bb43cfb0182a9d464,20,2022-02-12_13h40.33.710,lexical_decision_task_DD_L3,2021.2.3,Win32,60.09254252,,,,,,,,,,,0.6197,1,,,,,,,,,,,,,,,,,,,,,,,,0.057407478,-0.254629641,0,0,0,,,,,,,DRUMS,C,m,m,./images/DRUMS.png,,,,,,,,,,,,,,,,,,,,,m,1,0.6197,,,,,,,,0,71,71,49,1
,,,,,,,,,,,,,,,,,5f0d6c9bb43cfb0182a9d464,20,2022-02-12_13h40.33.710,lexical_decision_task_DD_L3,2021.2.3,Win32,60.09254252,,,,,,,,,,,0.6241,1,,,,,,,,,,,,,,,,,,,,,,,,0.057407478,-0.254629641,0,0,0,,,,,,,MOOSE,LB,m,m,./images/MOOSELB.png,,,,,,,,,,,,,,,,,,,,,m,1,0.6241,,,,,,,,0,72,72,57,1
,,,,,,,,,,,,,,,,,5f0d6c9bb43cfb0182a9d464,20,2022-02-12_13h40.33.710,lexical_decision_task_DD_L3,2021.2.3,Win32,60.09254252,,,,,,,,,,,0.6055,1,,,,,,,,,,,,,,,,,,,,,,,,0.057407478,-0.254629641,0,0,0,,,,,,,PAINT,C,m,m,./images/PAINT.png,,,,,,,,,,,,,,,,,,,,,m,1,0.6055,,,,,,,,0,73,73,7,1
,,,,,,,,,,,,,,,,,5f0d6c9bb43cfb0182a9d464,20,2022-02-12_13h40.33.710,lexical_decision_task_DD_L3,2021.2.3,Win32,60.09254252,,,,,,,,,,,0.6485,0,,,,,,,,,,,,,,,,,,,,,,,,0.057407478,-0.254629641,0,0,0,,,,,,,MONKEY,LB,z,m,./images/MONKEYLB.png,,,,,,,,,,,,,,,,,,,,,m,0,0.6485,,,,,,,,0,74,74,129,1
,,,,,,,,,,,,,,,,,5f0d6c9bb43cfb0182a9d464,20,2022-02-12_13h40.33.710,lexical_decision_task_DD_L3,2021.2.3,Win32,60.09254252,,,,,,,,,,,0.6835,0,,,,,,,,,,,,,,,,,,,,,,,,0.057407478,-0.254629641,0,0,0,,,,,,,GLOVE,C,z,m,./images/GLOVE.png,,,,,,,,,,,,,,,,,,,,,m,0,0.6835,,,,,,,,0,75,75,157,1
,,,,,,,,,,,,,,,,,5f0d6c9bb43cfb0182a9d464,20,2022-02-12_13h40.33.710,lexical_decision_task_DD_L3,2021.2.3,Win32,60.09254252,,,,,,,,,,,0.7285,0,,,,,,,,,,,,,,,,,,,,,,,,0.057407478,-0.254629641,0,0,0,,,,,,,STOOL,C,z,m,./images/STOOL.png,,,,,,,,,,,,,,,,,,,,,m,0,0.7285,,,,,,,,0,76,76,127,1
,,,,,,,,,,,,,,,,,5f0d6c9bb43cfb0182a9d464,20,2022-02-12_13h40.33.710,lexical_decision_task_DD_L3,2021.2.3,Win32,60.09254252,,,,,,,,,,,0.631,0,,,,,,,,,,,,,,,,,,,,,,,,0.057407478,-0.254629641,0,0,0,,,,,,,POODLE,LB,m,m,./images/POODLELB.png,,,,,,,,,,,,,,,,,,,,,z,0,0.631,,,,,,,,0,77,77,81,1
,,,,,,,,,,,,,,,,,5f0d6c9bb43cfb0182a9d464,20,2022-02-12_13h40.33.710,lexical_decision_task_DD_L3,2021.2.3,Win32,60.09254252,,,,,,,,,,,0.7294,1,,,,,,,,,,,,,,,,,,,,,,,,0.057407478,-0.254629641,0,0,0,,,,,,,CHERRY,LB,z,m,./images/CHERRYLB.png,,,,,,,,,,,,,,,,,,,,,z,1,0.7294,,,,,,,,0,78,78,138,1
,,,,,,,,,,,,,,,,,5f0d6c9bb43cfb0182a9d464,20,2022-02-12_13h40.33.710,lexical_decision_task_DD_L3,2021.2.3,Win32,60.09254252,,,,,,,,,,,0.6114,1,,,,,,,,,,,,,,,,,,,,,,,,0.057407478,-0.254629641,0,0,0,,,,,,,BARREL,HB,m,m,./images/BARRELHB.png,,,,,,,,,,,,,,,,,,,,,m,1,0.6114,,,,,,,,0,79,79,32,1
,,,,,,,,,,,,,,,,,5f0d6c9bb43cfb0182a9d464,20,2022-02-12_13h40.33.710,lexical_decision_task_DD_L3,2021.2.3,Win32,60.09254252,,,,,,,,,,,0.8143,1,,,,,,,,,,,,,,,,,,,,,,,,0.057407478,-0.254629641,0,0,0,,,,,,,URINE,C,m,m,./images/URINE.png,,,,,,,,,,,,,,,,,,,,,m,1,0.8143,,,,,,,,0,80,80,70,1
,,,,,,,,,,,,,,,,,5f0d6c9bb43cfb0182a9d464,20,2022-02-12_13h40.33.710,lexical_decision_task_DD_L3,2021.2.3,Win32,60.09254252,,,,,,,,,,,0.7244,0,,,,,,,,,,,,,,,,,,,,,,,,0.057407478,-0.254629641,0,0,0,,,,,,,FALCON,C,m,m,./images/FALCON.png,,,,,,,,,,,,,,,,,,,,,z,0,0.7244,,,,,,,,0,81,81,28,1
,,,,,,,,,,,,,,,,,5f0d6c9bb43cfb0182a9d464,20,2022-02-12_13h40.33.710,lexical_decision_task_DD_L3,2021.2.3,Win32,60.09254252,,,,,,,,,,,0.7933,1,,,,,,,,,,,,,,,,,,,,,,,,0.057407478,-0.254629641,0,0,0,,,,,,,LLAMA,HB,z,m,./images/LLAMAHB.png,,,,,,,,,,,,,,,,,,,,,z,1,0.7933,,,,,,,,0,82,82,119,1
,,,,,,,,,,,,,,,,,5f0d6c9bb43cfb0182a9d464,20,2022-02-12_13h40.33.710,lexical_decision_task_DD_L3,2021.2.3,Win32,60.09254252,,,,,,,,,,,0.8518,0,,,,,,,,,,,,,,,,,,,,,,,,0.057407478,-0.254629641,0,0,0,space,,,,,,DOUGH,C,m,m,./images/DOUGH.png,1.1899,,,,,,,,,,,,,,,,,,,,z,0,0.8518,,,,,,,,0,83,83,19,1
,,,,,,,,,,,,,,,,,5f0d6c9bb43cfb0182a9d464,20,2022-02-12_13h40.33.710,lexical_decision_task_DD_L3,2021.2.3,Win32,60.09254252,,,,,,,,,,,0.8771,1,,,,,,,,,,,,,,,,,,,,,,,,0.057407478,-0.254629641,0,0,0,,,,,,,ENGINE,HB,z,m,./images/ENGINEHB.png,,,,,,,,,,,,,,,,,,,,,z,1,0.8771,,,,,,,,0,84,84,122,1
,,,,,,,,,,,,,,,,,5f0d6c9bb43cfb0182a9d464,20,2022-02-12_13h40.33.710,lexical_decision_task_DD_L3,2021.2.3,Win32,60.09254252,,,,,,,,,,,0.735,1,,,,,,,,,,,,,,,,,,,,,,,,0.057407478,-0.254629641,0,0,0,,,,,,,FOLDER,LB,m,m,./images/FOLDERLB.png,,,,,,,,,,,,,,,,,,,,,m,1,0.735,,,,,,,,0,85,85,42,1
,,,,,,,,,,,,,,,,,5f0d6c9bb43cfb0182a9d464,20,2022-02-12_13h40.33.710,lexical_decision_task_DD_L3,2021.2.3,Win32,60.09254252,,,,,,,,,,,0.8836,0,,,,,,,,,,,,,,,,,,,,,,,,0.057407478,-0.254629641,0,0,0,,,,,,,NOOSE,LB,m,m,./images/NOOSELB.png,,,,,,,,,,,,,,,,,,,,,z,0,0.8836,,,,,,,,0,86,86,72,1
,,,,,,,,,,,,,,,,,5f0d6c9bb43cfb0182a9d464,20,2022-02-12_13h40.33.710,lexical_decision_task_DD_L3,2021.2.3,Win32,60.09254252,,,,,,,,,,,0.7443,0,,,,,,,,,,,,,,,,,,,,,,,,0.057407478,-0.254629641,0,0,0,,,,,,,BRUSH,HB,z,m,./images/BRUSHHB.png,,,,,,,,,,,,,,,,,,,,,m,0,0.7443,,,,,,,,0,87,87,143,1
,,,,,,,,,,,,,,,,,5f0d6c9bb43cfb0182a9d464,20,2022-02-12_13h40.33.710,lexical_decision_task_DD_L3,2021.2.3,Win32,60.09254252,,,,,,,,,,,0.7899,0,,,,,,,,,,,,,,,,,,,,,,,,0.057407478,-0.254629641,0,0,0,,,,,,,BANNER,C,m,m,./images/BANNER.png,,,,,,,,,,,,,,,,,,,,,z,0,0.7899,,,,,,,,0,88,88,52,1
,,,,,,,,,,,,,,,,,5f0d6c9bb43cfb0182a9d464,20,2022-02-12_13h40.33.710,lexical_decision_task_DD_L3,2021.2.3,Win32,60.09254252,,,,,,,,,,,0.6465,1,,,,,,,,,,,,,,,,,,,,,,,,0.057407478,-0.254629641,0,0,0,,,,,,,SAUCE,LB,z,m,./images/SAUCELB.png,,,,,,,,,,,,,,,,,,,,,z,1,0.6465,,,,,,,,0,89,89,135,1
,,,,,,,,,,,,,,,,,5f0d6c9bb43cfb0182a9d464,20,2022-02-12_13h40.33.710,lexical_decision_task_DD_L3,2021.2.3,Win32,60.09254252,,,,,,,,,,,0.8445,0,,,,,,,,,,,,,,,,,,,,,,,,0.057407478,-0.254629641,0,0,0,,,,,,,RULER,C,z,m,./images/RULER.png,,,,,,,,,,,,,,,,,,,,,m,0,0.8445,,,,,,,,0,90,90,163,1
,,,,,,,,,,,,,,,,,5f0d6c9bb43cfb0182a9d464,20,2022-02-12_13h40.33.710,lexical_decision_task_DD_L3,2021.2.3,Win32,60.09254252,,,,,,,,,,,0.9701,1,,,,,,,,,,,,,,,,,,,,,,,,0.057407478,-0.254629641,0,0,0,,,,,,,STAIN,LB,z,m,./images/STAINLB.png,,,,,,,,,,,,,,,,,,,,,z,1,0.9701,,,,,,,,0,91,91,90,1
,,,,,,,,,,,,,,,,,5f0d6c9bb43cfb0182a9d464,20,2022-02-12_13h40.33.710,lexical_decision_task_DD_L3,2021.2.3,Win32,60.09254252,,,,,,,,,,,0.646,0,,,,,,,,,,,,,,,,,,,,,,,,0.057407478,-0.254629641,0,0,0,,,,,,,FLESH,LB,z,m,./images/FLESHLB.png,,,,,,,,,,,,,,,,,,,,,m,0,0.646,,,,,,,,0,92,92,108,1
,,,,,,,,,,,,,,,,,5f0d6c9bb43cfb0182a9d464,20,2022-02-12_13h40.33.710,lexical_decision_task_DD_L3,2021.2.3,Win32,60.09254252,,,,,,,,,,,0.6902,0,,,,,,,,,,,,,,,,,,,,,,,,0.057407478,-0.254629641,0,0,0,,,,,,,ONION,LB,m,m,./images/ONIONLB.png,,,,,,,,,,,,,,,,,,,,,z,0,0.6902,,,,,,,,0,93,93,51,1
,,,,,,,,,,,,,,,,,5f0d6c9bb43cfb0182a9d464,20,2022-02-12_13h40.33.710,lexical_decision_task_DD_L3,2021.2.3,Win32,60.09254252,,,,,,,,,,,0.7759,0,,,,,,,,,,,,,,,,,,,,,,,,0.057407478,-0.254629641,0,0,0,,,,,,,FINGER,LB,m,m,./images/FINGERLB.png,,,,,,,,,,,,,,,,,,,,,z,0,0.7759,,,,,,,,0,94,94,3,1
,,,,,,,,,,,,,,,,,5f0d6c9bb43cfb0182a9d464,20,2022-02-12_13h40.33.710,lexical_decision_task_DD_L3,2021.2.3,Win32,60.09254252,,,,,,,,,,,0.7462,0,,,,,,,,,,,,,,,,,,,,,,,,0.057407478,-0.254629641,0,0,0,,,,,,,BERRY,HB,m,m,./images/BERRYHB.png,,,,,,,,,,,,,,,,,,,,,z,0,0.7462,,,,,,,,0,95,95,47,1
,,,,,,,,,,,,,,,,,5f0d6c9bb43cfb0182a9d464,20,2022-02-12_13h40.33.710,lexical_decision_task_DD_L3,2021.2.3,Win32,60.09254252,,,,,,,,,,,0.7698,0,,,,,,,,,,,,,,,,,,,,,,,,0.057407478,-0.254629641,0,0,0,,,,,,,PICKLE,HB,m,m,./images/PICKLEHB.png,,,,,,,,,,,,,,,,,,,,,z,0,0.7698,,,,,,,,0,96,96,14,1
,,,,,,,,,,,,,,,,,5f0d6c9bb43cfb0182a9d464,20,2022-02-12_13h40.33.710,lexical_decision_task_DD_L3,2021.2.3,Win32,60.09254252,,,,,,,,,,,0.6604,1,,,,,,,,,,,,,,,,,,,,,,,,0.057407478,-0.254629641,0,0,0,,,,,,,SAILOR,C,m,m,./images/SAILOR.png,,,,,,,,,,,,,,,,,,,,,m,1,0.6604,,,,,,,,0,97,97,67,1
,,,,,,,,,,,,,,,,,5f0d6c9bb43cfb0182a9d464,20,2022-02-12_13h40.33.710,lexical_decision_task_DD_L3,2021.2.3,Win32,60.09254252,,,,,,,,,,,0.6154,1,,,,,,,,,,,,,,,,,,,,,,,,0.057407478,-0.254629641,0,0,0,,,,,,,JAGUAR,LB,m,m,./images/JAGUARLB.png,,,,,,,,,,,,,,,,,,,,,m,1,0.6154,,,,,,,,0,98,98,18,1
,,,,,,,,,,,,,,,,,5f0d6c9bb43cfb0182a9d464,20,2022-02-12_13h40.33.710,lexical_decision_task_DD_L3,2021.2.3,Win32,60.09254252,,,,,,,,,,,0.8447,1,,,,,,,,,,,,,,,,,,,,,,,,0.057407478,-0.254629641,0,0,0,,,,,,,CANYON,C,m,m,./images/CANYON.png,,,,,,,,,,,,,,,,,,,,,m,1,0.8447,,,,,,,,0,99,99,34,1
,,,,,,,,,,,,,,,,,5f0d6c9bb43cfb0182a9d464,20,2022-02-12_13h40.33.710,lexical_decision_task_DD_L3,2021.2.3,Win32,60.09254252,,,,,,,,,,,0.7134,1,,,,,,,,,,,,,,,,,,,,,,,,0.057407478,-0.254629641,0,0,0,,,,,,,VALLEY,HB,z,m,./images/VALLEYHB.png,,,,,,,,,,,,,,,,,,,,,z,1,0.7134,,,,,,,,0,100,100,152,1
,,,,,,,,,,,,,,,,,5f0d6c9bb43cfb0182a9d464,20,2022-02-12_13h40.33.710,lexical_decision_task_DD_L3,2021.2.3,Win32,60.09254252,,,,,,,,,,,0.6704,1,,,,,,,,,,,,,,,,,,,,,,,,0.057407478,-0.254629641,0,0,0,,,,,,,WALRUS,HB,m,m,./images/WALRUSHB.png,,,,,,,,,,,,,,,,,,,,,m,1,0.6704,,,,,,,,0,101,101,23,1
,,,,,,,,,,,,,,,,,5f0d6c9bb43cfb0182a9d464,20,2022-02-12_13h40.33.710,lexical_decision_task_DD_L3,2021.2.3,Win32,60.09254252,,,,,,,,,,,0.6761,1,,,,,,,,,,,,,,,,,,,,,,,,0.057407478,-0.254629641,0,0,0,,,,,,,THROAT,LB,m,m,./images/THROATLB.png,,,,,,,,,,,,,,,,,,,,,m,1,0.6761,,,,,,,,0,102,102,36,1
,,,,,,,,,,,,,,,,,5f0d6c9bb43cfb0182a9d464,20,2022-02-12_13h40.33.710,lexical_decision_task_DD_L3,2021.2.3,Win32,60.09254252,,,,,,,,,,,0.8712,1,,,,,,,,,,,,,,,,,,,,,,,,0.057407478,-0.254629641,0,0,0,,,,,,,PENCE,C,m,m,./images/PENCE.png,,,,,,,,,,,,,,,,,,,,,m,1,0.8712,,,,,,,,0,103,103,16,1
,,,,,,,,,,,,,,,,,5f0d6c9bb43cfb0182a9d464,20,2022-02-12_13h40.33.710,lexical_decision_task_DD_L3,2021.2.3,Win32,60.09254252,,,,,,,,,,,0.8283,1,,,,,,,,,,,,,,,,,,,,,,,,0.057407478,-0.254629641,0,0,0,,,,,,,GRAPE,C,z,m,./images/GRAPE.png,,,,,,,,,,,,,,,,,,,,,z,1,0.8283,,,,,,,,0,104,104,100,1
,,,,,,,,,,,,,,,,,5f0d6c9bb43cfb0182a9d464,20,2022-02-12_13h40.33.710,lexical_decision_task_DD_L3,2021.2.3,Win32,60.09254252,,,,,,,,,,,0.8922,1,,,,,,,,,,,,,,,,,,,,,,,,0.057407478,-0.254629641,0,0,0,,,,,,,SPORT,LB,m,m,./images/SPORTLB.png,,,,,,,,,,,,,,,,,,,,,m,1,0.8922,,,,,,,,0,105,105,48,1
,,,,,,,,,,,,,,,,,5f0d6c9bb43cfb0182a9d464,20,2022-02-12_13h40.33.710,lexical_decision_task_DD_L3,2021.2.3,Win32,60.09254252,,,,,,,,,,,1.5056,1,,,,,,,,,,,,,,,,,,,,,,,,0.057407478,-0.254629641,0,0,0,,,,,,,DONKEY,C,z,m,./images/DONKEY.png,,,,,,,,,,,,,,,,,,,,,z,1,1.5056,,,,,,,,0,106,106,103,1
,,,,,,,,,,,,,,,,,5f0d6c9bb43cfb0182a9d464,20,2022-02-12_13h40.33.710,lexical_decision_task_DD_L3,2021.2.3,Win32,60.09254252,,,,,,,,,,,1.1143,0,,,,,,,,,,,,,,,,,,,,,,,,0.057407478,-0.254629641,0,0,0,,,,,,,ATTIC,LB,m,m,./images/ATTICLB.png,,,,,,,,,,,,,,,,,,,,,z,0,1.1143,,,,,,,,0,107,107,27,1
,,,,,,,,,,,,,,,,,5f0d6c9bb43cfb0182a9d464,20,2022-02-12_13h40.33.710,lexical_decision_task_DD_L3,2021.2.3,Win32,60.09254252,,,,,,,,,,,0.8159,0,,,,,,,,,,,,,,,,,,,,,,,,0.057407478,-0.254629641,0,0,0,,,,,,,MALLET,HB,m,m,./images/MALLETHB.png,,,,,,,,,,,,,,,,,,,,,z,0,0.8159,,,,,,,,0,108,108,50,1
,,,,,,,,,,,,,,,,,5f0d6c9bb43cfb0182a9d464,20,2022-02-12_13h40.33.710,lexical_decision_task_DD_L3,2021.2.3,Win32,60.09254252,,,,,,,,,,,0.7907,1,,,,,,,,,,,,,,,,,,,,,,,,0.057407478,-0.254629641,0,0,0,,,,,,,BUTTER,LB,z,m,./images/BUTTERLB.png,,,,,,,,,,,,,,,,,,,,,z,1,0.7907,,,,,,,,0,109,109,111,1
,,,,,,,,,,,,,,,,,5f0d6c9bb43cfb0182a9d464,20,2022-02-12_13h40.33.710,lexical_decision_task_DD_L3,2021.2.3,Win32,60.09254252,,,,,,,,,,,0.7221,1,,,,,,,,,,,,,,,,,,,,,,,,0.057407478,-0.254629641,0,0,0,,,,,,,CRUMB,HB,m,m,./images/CRUMBHB.png,,,,,,,,,,,,,,,,,,,,,m,1,0.7221,,,,,,,,0,110,110,29,1
,,,,,,,,,,,,,,,,,5f0d6c9bb43cfb0182a9d464,20,2022-02-12_13h40.33.710,lexical_decision_task_DD_L3,2021.2.3,Win32,60.09254252,,,,,,,,,,,0.7304,1,,,,,,,,,,,,,,,,,,,,,,,,0.057407478,-0.254629641,0,0,0,,,,,,,PEBBLE,C,z,m,./images/PEBBLE.png,,,,,,,,,,,,,,,,,,,,,z,1,0.7304,,,,,,,,0,111,111,166,1
,,,,,,,,,,,,,,,,,5f0d6c9bb43cfb0182a9d464,20,2022-02-12_13h40.33.710,lexical_decision_task_DD_L3,2021.2.3,Win32,60.09254252,,,,,,,,,,,0.5778,1,,,,,,,,,,,,,,,,,,,,,,,,0.057407478,-0.254629641,0,0,0,,,,,,,TORCH,HB,m,m,./images/TORCHHB.png,,,,,,,,,,,,,,,,,,,,,m,1,0.5778,,,,,,,,0,112,112,68,1
,,,,,,,,,,,,,,,,,5f0d6c9bb43cfb0182a9d464,20,2022-02-12_13h40.33.710,lexical_decision_task_DD_L3,2021.2.3,Win32,60.09254252,,,,,,,,,,,0.9517,1,,,,,,,,,,,,,,,,,,,,,,,,0.057407478,-0.254629641,0,0,0,,,,,,,DIVER,LB,z,m,./images/DIVERLB.png,,,,,,,,,,,,,,,,,,,,,z,1,0.9517,,,,,,,,0,113,113,93,1
,,,,,,,,,,,,,,,,,5f0d6c9bb43cfb0182a9d464,20,2022-02-12_13h40.33.710,lexical_decision_task_DD_L3,2021.2.3,Win32,60.09254252,,,,,,,,,,,0.7203,1,,,,,,,,,,,,,,,,,,,,,,,,0.057407478,-0.254629641,0,0,0,,,,,,,CANOE,C,z,m,./images/CANOE.png,,,,,,,,,,,,,,,,,,,,,z,1,0.7203,,,,,,,,0,114,114,142,1
,,,,,,,,,,,,,,,,,5f0d6c9bb43cfb0182a9d464,20,2022-02-12_13h40.33.710,lexical_decision_task_DD_L3,2021.2.3,Win32,60.09254252,,,,,,,,,,,0.7496,1,,,,,,,,,,,,,,,,,,,,,,,,0.057407478,-0.254629641,0,0,0,,,,,,,BLOKE,LB,z,m,./images/BLOKELB.png,,,,,,,,,,,,,,,,,,,,,z,1,0.7496,,,,,,,,0,115,115,96,1
,,,,,,,,,,,,,,,,,5f0d6c9bb43cfb0182a9d464,20,2022-02-12_13h40.33.710,lexical_decision_task_DD_L3,2021.2.3,Win32,60.09254252,,,,,,,,,,,0.6467,1,,,,,,,,,,,,,,,,,,,,,,,,0.057407478,-0.254629641,0,0,0,,,,,,,ALLEY,C,z,m,./images/ALLEY.png,,,,,,,,,,,,,,,,,,,,,z,1,0.6467,,,,,,,,0,116,116,139,1
,,,,,,,,,,,,,,,,,5f0d6c9bb43cfb0182a9d464,20,2022-02-12_13h40.33.710,lexical_decision_task_DD_L3,2021.2.3,Win32,60.09254252,,,,,,,,,,,0.7719,0,,,,,,,,,,,,,,,,,,,,,,,,0.057407478,-0.254629641,0,0,0,,,,,,,CLIFF,HB,z,m,./images/CLIFFHB.png,,,,,,,,,,,,,,,,,,,,,m,0,0.7719,,,,,,,,0,117,117,92,1
,,,,,,,,,,,,,,,,,5f0d6c9bb43cfb0182a9d464,20,2022-02-12_13h40.33.710,lexical_decision_task_DD_L3,2021.2.3,Win32,60.09254252,,,,,,,,,,,0.8066,1,,,,,,,,,,,,,,,,,,,,,,,,0.057407478,-0.254629641,0,0,0,,,,,,,SLOPE,LB,z,m,./images/SLOPELB.png,,,,,,,,,,,,,,,,,,,,,z,1,0.8066,,,,,,,,0,118,118,114,1
,,,,,,,,,,,,,,,,,5f0d6c9bb43cfb0182a9d464,20,2022-02-12_13h40.33.710,lexical_decision_task_DD_L3,2021.2.3,Win32,60.09254252,,,,,,,,,,,0.818,1,,,,,,,,,,,,,,,,,,,,,,,,0.057407478,-0.254629641,0,0,0,,,,,,,SAUNA,LB,z,m,./images/SAUNALB.png,,,,,,,,,,,,,,,,,,,,,z,1,0.818,,,,,,,,0,119,119,117,1
,,,,,,,,,,,,,,,,,5f0d6c9bb43cfb0182a9d464,20,2022-02-12_13h40.33.710,lexical_decision_task_DD_L3,2021.2.3,Win32,60.09254252,,,,,,,,,,,0.8418,1,,,,,,,,,,,,,,,,,,,,,,,,0.057407478,-0.254629641,0,0,0,,,,,,,GRANNY,HB,z,m,./images/GRANNYHB.png,,,,,,,,,,,,,,,,,,,,,z,1,0.8418,,,,,,,,0,120,120,104,1
,,,,,,,,,,,,,,,,,5f0d6c9bb43cfb0182a9d464,20,2022-02-12_13h40.33.710,lexical_decision_task_DD_L3,2021.2.3,Win32,60.09254252,,,,,,,,,,,0.6105,1,,,,,,,,,,,,,,,,,,,,,,,,0.057407478,-0.254629641,0,0,0,,,,,,,PASTA,HB,m,m,./images/PASTAHB.png,,,,,,,,,,,,,,,,,,,,,m,1,0.6105,,,,,,,,0,121,121,5,1
,,,,,,,,,,,,,,,,,5f0d6c9bb43cfb0182a9d464,20,2022-02-12_13h40.33.710,lexical_decision_task_DD_L3,2021.2.3,Win32,60.09254252,,,,,,,,,,,0.8492,0,,,,,,,,,,,,,,,,,,,,,,,,0.057407478,-0.254629641,0,0,0,,,,,,,SQUARE,LB,m,m,./images/SQUARELB.png,,,,,,,,,,,,,,,,,,,,,z,0,0.8492,,,,,,,,0,122,122,6,1
,,,,,,,,,,,,,,,,,5f0d6c9bb43cfb0182a9d464,20,2022-02-12_13h40.33.710,lexical_decision_task_DD_L3,2021.2.3,Win32,60.09254252,,,,,,,,,,,0.6102,1,,,,,,,,,,,,,,,,,,,,,,,,0.057407478,-0.254629641,0,0,0,,,,,,,SUNSET,C,m,m,./images/SUNSET.png,,,,,,,,,,,,,,,,,,,,,m,1,0.6102,,,,,,,,0,123,123,82,1
,,,,,,,,,,,,,,,,,5f0d6c9bb43cfb0182a9d464,20,2022-02-12_13h40.33.710,lexical_decision_task_DD_L3,2021.2.3,Win32,60.09254252,,,,,,,,,,,0.6421,0,,,,,,,,,,,,,,,,,,,,,,,,0.057407478,-0.254629641,0,0,0,,,,,,,BELLY,C,m,m,./images/BELLY.png,,,,,,,,,,,,,,,,,,,,,z,0,0.6421,,,,,,,,0,124,124,10,1
,,,,,,,,,,,,,,,,,5f0d6c9bb43cfb0182a9d464,20,2022-02-12_13h40.33.710,lexical_decision_task_DD_L3,2021.2.3,Win32,60.09254252,,,,,,,,,,,0.7655,1,,,,,,,,,,,,,,,,,,,,,,,,0.057407478,-0.254629641,0,0,0,space,,,,,,TRIPOD,LB,m,m,./images/TRIPODLB.png,0.845,,,,,,,,,,,,,,,,,,,,m,1,0.7655,,,,,,,,0,125,125,54,1
,,,,,,,,,,,,,,,,,5f0d6c9bb43cfb0182a9d464,20,2022-02-12_13h40.33.710,lexical_decision_task_DD_L3,2021.2.3,Win32,60.09254252,,,,,,,,,,,0.6966,1,,,,,,,,,,,,,,,,,,,,,,,,0.057407478,-0.254629641,0,0,0,,,,,,,PEARL,C,m,m,./images/PEARL.png,,,,,,,,,,,,,,,,,,,,,m,1,0.6966,,,,,,,,0,126,126,46,1
,,,,,,,,,,,,,,,,,5f0d6c9bb43cfb0182a9d464,20,2022-02-12_13h40.33.710,lexical_decision_task_DD_L3,2021.2.3,Win32,60.09254252,,,,,,,,,,,0.6359,1,,,,,,,,,,,,,,,,,,,,,,,,0.057407478,-0.254629641,0,0,0,,,,,,,GRAIN,LB,m,m,./images/GRAINLB.png,,,,,,,,,,,,,,,,,,,,,m,1,0.6359,,,,,,,,0,127,127,75,1
,,,,,,,,,,,,,,,,,5f0d6c9bb43cfb0182a9d464,20,2022-02-12_13h40.33.710,lexical_decision_task_DD_L3,2021.2.3,Win32,60.09254252,,,,,,,,,,,0.611,0,,,,,,,,,,,,,,,,,,,,,,,,0.057407478,-0.254629641,0,0,0,,,,,,,DRILL,LB,z,m,./images/DRILLLB.png,,,,,,,,,,,,,,,,,,,,,m,0,0.611,,,,,,,,0,128,128,165,1
,,,,,,,,,,,,,,,,,5f0d6c9bb43cfb0182a9d464,20,2022-02-12_13h40.33.710,lexical_decision_task_DD_L3,2021.2.3,Win32,60.09254252,,,,,,,,,,,0.5616,0,,,,,,,,,,,,,,,,,,,,,,,,0.057407478,-0.254629641,0,0,0,,,,,,,STEAK,C,z,m,./images/STEAK.png,,,,,,,,,,,,,,,,,,,,,m,0,0.5616,,,,,,,,0,129,129,115,1
,,,,,,,,,,,,,,,,,5f0d6c9bb43cfb0182a9d464,20,2022-02-12_13h40.33.710,lexical_decision_task_DD_L3,2021.2.3,Win32,60.09254252,,,,,,,,,,,0.6106,1,,,,,,,,,,,,,,,,,,,,,,,,0.057407478,-0.254629641,0,0,0,,,,,,,MELON,C,m,m,./images/MELON.png,,,,,,,,,,,,,,,,,,,,,m,1,0.6106,,,,,,,,0,130,130,22,1
,,,,,,,,,,,,,,,,,5f0d6c9bb43cfb0182a9d464,20,2022-02-12_13h40.33.710,lexical_decision_task_DD_L3,2021.2.3,Win32,60.09254252,,,,,,,,,,,0.645,0,,,,,,,,,,,,,,,,,,,,,,,,0.057407478,-0.254629641,0,0,0,,,,,,,LAGOON,HB,z,m,./images/LAGOONHB.png,,,,,,,,,,,,,,,,,,,,,m,0,0.645,,,,,,,,0,131,131,131,1
