key_resp.keys,instr_done_touch.x,instr_done_touch.y,instr_done_touch.leftButton,instr_done_touch.midButton,instr_done_touch.rightButton,instr_done_touch.clicked_name,instruction_pages.thisRepN,instruction_pages.thisTrialN,instruction_pages.thisN,instruction_pages.thisIndex,instruction_pages.ran,pageN,phase,instruct_text,has_image,instruct_image,participant,age,date,expName,psychopyVersion,OS,frameRate,response.keys,response.corr,touch_resp.x,touch_resp.y,touch_resp.leftButton,touch_resp.midButton,touch_resp.rightButton,touch_resp.time,touch_resp.clicked_name,rt,corr,practrials.thisRepN,practrials.thisTrialN,practrials.thisN,practrials.thisIndex,practrials.ran,TrialID,Target,corrAns,end_of_practice_trials_pages.thisRepN,end_of_practice_trials_pages.thisTrialN,end_of_practice_trials_pages.thisN,end_of_practice_trials_pages.thisIndex,end_of_practice_trials_pages.ran,key_resp_2.keys,key_resp_2.corr,targ_click.x,targ_click.y,targ_click.leftButton,targ_click.midButton,targ_click.rightButton,targ_click.time,targ_click.clicked_name,break_done_touch.x,break_done_touch.y,break_done_touch.leftButton,break_done_touch.midButton,break_done_touch.rightButton,break_done_keyboard.keys,maintrials.thisRepN,maintrials.thisTrialN,maintrials.thisN,maintrials.thisIndex,maintrials.ran,string,blur,study,lex,stim_path,break_done_touch.clicked_name,mouse_2.x,mouse_2.y,mouse_2.leftButton,mouse_2.midButton,mouse_2.rightButton,mouse_2.clicked_name,slider.response,slider.rt,trials.thisRepN,trials.thisTrialN,trials.thisN,trials.thisIndex,trials.ran,test_instructions.thisRepN,test_instructions.thisTrialN,test_instructions.thisN,test_instructions.thisIndex,test_instructions.ran,key_resp_3.keys,key_resp_3.corr,test_click.x,test_click.y,test_click.leftButton,test_click.midButton,test_click.rightButton,test_click.time,test_click.clicked_name,test_phase.thisRepN,test_phase.thisTrialN,test_phase.thisN,test_phase.thisIndex,test_phase.ran
,0.098321343,-0.384892086,1,0,0,instr_done_button,0,0,0,0,1,1,instructions,"INSTRUCTIONS
At the start of each trial, look at the plus sign  (+) in the center of the screen.  This tells you that a trial is about to begin and where to look. Second, the plus sign will disappear and a string of letters will appear. Your task is to determine if the string of letters is a word or not. If the item is a word press the M key (on keyboard)  or touch the word button (phone/tablet).  If the item is not a word,  press the  Z key (on keyboard)  or touch the nonword button (on phone/tablet). 
Press the space bar or touch  continue.",0,,5fa1b1a4499be43137fba435,66,2022-02-12_12h41.21.364,lexical_decision_task_DD_L3,2021.2.3,MacIntel,166.6666667,,,,,,,,,,,,,,,,,,,,,,,,,,,,,,,,,,,,,,,,,,,,,,,,,,,,,,,,,,,,,,,,,,,,,,,,,,,,,,,,,,
,0.098321343,-0.408872902,1,0,0,instr_done_button,0,1,1,1,1,2,instructions,"If your device has a keyboard, press the 'Z' key for nonwords and the 'M' key for words.





Press the space bar or touch the button below to continue.",0,keyboard-example.gif,5fa1b1a4499be43137fba435,66,2022-02-12_12h41.21.364,lexical_decision_task_DD_L3,2021.2.3,MacIntel,166.6666667,,,,,,,,,,,,,,,,,,,,,,,,,,,,,,,,,,,,,,,,,,,,,,,,,,,,,,,,,,,,,,,,,,,,,,,,,,,,,,,,,,
,0.099520384,-0.400479616,1,0,0,instr_done_button,0,2,2,2,1,3,instructions,"If you are using a touchscreen only device, use the buttons on the screen. Do not use the mouse.





Press the space bar or touch the button below to continue.",0,touchscreen-example.gif,5fa1b1a4499be43137fba435,66,2022-02-12_12h41.21.364,lexical_decision_task_DD_L3,2021.2.3,MacIntel,166.6666667,,,,,,,,,,,,,,,,,,,,,,,,,,,,,,,,,,,,,,,,,,,,,,,,,,,,,,,,,,,,,,,,,,,,,,,,,,,,,,,,,,
,0.091127098,-0.404076739,1,0,0,instr_done_button,0,3,3,3,1,4,instructions,"It is very important that you respond as quickly and accurately as possible, as each letter string will only be on the screen for two seconds. If you do not respond within this time, the message 'Too slow!' will be displayed and the experiment will progress to the next letter string. The first 20 trials will be practice trials and you will receive feedback on your answers. 

Press the space bar or touch the button below to start the practice trials.",0,,5fa1b1a4499be43137fba435,66,2022-02-12_12h41.21.364,lexical_decision_task_DD_L3,2021.2.3,MacIntel,166.6666667,,,,,,,,,,,,,,,,,,,,,,,,,,,,,,,,,,,,,,,,,,,,,,,,,,,,,,,,,,,,,,,,,,,,,,,,,,,,,,,,,,
,,,,,,,,,,,,,,,,,5fa1b1a4499be43137fba435,66,2022-02-12_12h41.21.364,lexical_decision_task_DD_L3,2021.2.3,MacIntel,166.6666667,,0,0.399280576,-0.310551559,1,0,0,1.736,button_right,1.736,1,0,0,0,3,1,1001,MATRIX,m,,,,,,,,,,,,,,,,,,,,,,,,,,,,,,,,,,,,,,,,,,,,,,,,,,,,,,,,,,,,,,,
,,,,,,,,,,,,,,,,,5fa1b1a4499be43137fba435,66,2022-02-12_12h41.21.364,lexical_decision_task_DD_L3,2021.2.3,MacIntel,166.6666667,,0,-0.303357314,-0.320143885,1,0,0,1.415,button_left,1.415,1,0,1,1,15,1,1001,WHAISE,z,,,,,,,,,,,,,,,,,,,,,,,,,,,,,,,,,,,,,,,,,,,,,,,,,,,,,,,,,,,,,,,
,,,,,,,,,,,,,,,,,5fa1b1a4499be43137fba435,66,2022-02-12_12h41.21.364,lexical_decision_task_DD_L3,2021.2.3,MacIntel,166.6666667,,0,0.376498801,-0.320143885,1,0,0,1.366,button_right,1.366,1,0,2,2,0,1,1001,UTOPIA,m,,,,,,,,,,,,,,,,,,,,,,,,,,,,,,,,,,,,,,,,,,,,,,,,,,,,,,,,,,,,,,,
,,,,,,,,,,,,,,,,,5fa1b1a4499be43137fba435,66,2022-02-12_12h41.21.364,lexical_decision_task_DD_L3,2021.2.3,MacIntel,166.6666667,,0,-0.353717026,-0.354916067,1,0,0,1.272,button_left,1.272,1,0,3,3,8,1,1001,ASLERT,z,,,,,,,,,,,,,,,,,,,,,,,,,,,,,,,,,,,,,,,,,,,,,,,,,,,,,,,,,,,,,,,
,,,,,,,,,,,,,,,,,5fa1b1a4499be43137fba435,66,2022-02-12_12h41.21.364,lexical_decision_task_DD_L3,2021.2.3,MacIntel,166.6666667,,0,0.363309353,-0.310551559,1,0,0,0.891,button_right,0.891,1,0,4,4,7,1,1001,VOLUME,m,,,,,,,,,,,,,,,,,,,,,,,,,,,,,,,,,,,,,,,,,,,,,,,,,,,,,,,,,,,,,,,
,,,,,,,,,,,,,,,,,5fa1b1a4499be43137fba435,66,2022-02-12_12h41.21.364,lexical_decision_task_DD_L3,2021.2.3,MacIntel,166.6666667,,0,-0.294964029,-0.326139089,1,0,0,1.22,button_left,1.22,1,0,5,5,13,1,1001,ROUPET,z,,,,,,,,,,,,,,,,,,,,,,,,,,,,,,,,,,,,,,,,,,,,,,,,,,,,,,,,,,,,,,,
,,,,,,,,,,,,,,,,,5fa1b1a4499be43137fba435,66,2022-02-12_12h41.21.364,lexical_decision_task_DD_L3,2021.2.3,MacIntel,166.6666667,,0,0.353717026,-0.322541966,1,0,0,1.3,button_right,1.3,1,0,6,6,6,1,1001,ZOMBIE,m,,,,,,,,,,,,,,,,,,,,,,,,,,,,,,,,,,,,,,,,,,,,,,,,,,,,,,,,,,,,,,,
,,,,,,,,,,,,,,,,,5fa1b1a4499be43137fba435,66,2022-02-12_12h41.21.364,lexical_decision_task_DD_L3,2021.2.3,MacIntel,166.6666667,,0,0.333333333,-0.32853717,1,0,0,0.874,button_right,0.874,1,0,7,7,2,1,1001,ALMOND,m,,,,,,,,,,,,,,,,,,,,,,,,,,,,,,,,,,,,,,,,,,,,,,,,,,,,,,,,,,,,,,,
,,,,,,,,,,,,,,,,,5fa1b1a4499be43137fba435,66,2022-02-12_12h41.21.364,lexical_decision_task_DD_L3,2021.2.3,MacIntel,166.6666667,,0,-0.334532374,-0.32853717,1,0,0,1.266,button_left,1.266,1,0,8,8,12,1,1001,SPRINY,z,,,,,,,,,,,,,,,,,,,,,,,,,,,,,,,,,,,,,,,,,,,,,,,,,,,,,,,,,,,,,,,
,,,,,,,,,,,,,,,,,5fa1b1a4499be43137fba435,66,2022-02-12_12h41.21.364,lexical_decision_task_DD_L3,2021.2.3,MacIntel,166.6666667,,0,0.329736211,-0.316546763,1,0,0,0.965,button_right,0.965,1,0,9,9,4,1,1001,SQUEAK,m,,,,,,,,,,,,,,,,,,,,,,,,,,,,,,,,,,,,,,,,,,,,,,,,,,,,,,,,,,,,,,,
,,,,,,,,,,,,,,,,,5fa1b1a4499be43137fba435,66,2022-02-12_12h41.21.364,lexical_decision_task_DD_L3,2021.2.3,MacIntel,166.6666667,,0,-0.336930456,-0.314148681,1,0,0,1.443,button_left,1.443,1,0,10,10,10,1,1001,INLADE,z,,,,,,,,,,,,,,,,,,,,,,,,,,,,,,,,,,,,,,,,,,,,,,,,,,,,,,,,,,,,,,,
,,,,,,,,,,,,,,,,,5fa1b1a4499be43137fba435,66,2022-02-12_12h41.21.364,lexical_decision_task_DD_L3,2021.2.3,MacIntel,166.6666667,,0,-0.329736211,-0.330935252,1,0,0,1.202,button_left,1.202,1,0,11,11,11,1,1001,RASHET,z,,,,,,,,,,,,,,,,,,,,,,,,,,,,,,,,,,,,,,,,,,,,,,,,,,,,,,,,,,,,,,,
,,,,,,,,,,,,,,,,,5fa1b1a4499be43137fba435,66,2022-02-12_12h41.21.364,lexical_decision_task_DD_L3,2021.2.3,MacIntel,166.6666667,,0,0.309352518,-0.308153477,1,0,0,1.05,button_right,1.05,1,0,12,12,1,1,1001,ADJUST,m,,,,,,,,,,,,,,,,,,,,,,,,,,,,,,,,,,,,,,,,,,,,,,,,,,,,,,,,,,,,,,,
,,,,,,,,,,,,,,,,,5fa1b1a4499be43137fba435,66,2022-02-12_12h41.21.364,lexical_decision_task_DD_L3,2021.2.3,MacIntel,166.6666667,,0,-0.290167866,-0.309352518,1,0,0,1.282,button_left,1.282,1,0,13,13,14,1,1001,THRALE,z,,,,,,,,,,,,,,,,,,,,,,,,,,,,,,,,,,,,,,,,,,,,,,,,,,,,,,,,,,,,,,,
,,,,,,,,,,,,,,,,,5fa1b1a4499be43137fba435,66,2022-02-12_12h41.21.364,lexical_decision_task_DD_L3,2021.2.3,MacIntel,166.6666667,,0,0.326139089,-0.305755396,1,0,0,1.717,button_right,1.717,1,0,14,14,5,1,1001,OBTAIN,m,,,,,,,,,,,,,,,,,,,,,,,,,,,,,,,,,,,,,,,,,,,,,,,,,,,,,,,,,,,,,,,
,,,,,,,,,,,,,,,,,5fa1b1a4499be43137fba435,66,2022-02-12_12h41.21.364,lexical_decision_task_DD_L3,2021.2.3,MacIntel,166.6666667,,0,-0.305755396,-0.322541966,1,0,0,1.19,button_left,1.19,1,0,15,15,9,1,1001,FARINY,z,,,,,,,,,,,,,,,,,,,,,,,,,,,,,,,,,,,,,,,,,,,,,,,,,,,,,,,,,,,,,,,
,0.065947242,-0.386091127,1,0,0,instr_done_button,,,,,,1,end_of_practice,"You have completed the practice trials. During the experimental trials, you will not receive feedback. 
Before you begin, please ensure that you are in a comfortable and quiet location and will not be disturbed for about 15 minutes, as we cannot use your data if you do not complete all the trials. 
 When you are ready to start the experimental trials, please press space or touch the button below.",,,5fa1b1a4499be43137fba435,66,2022-02-12_12h41.21.364,lexical_decision_task_DD_L3,2021.2.3,MacIntel,166.6666667,,,,,,,,,,,,,,,,,,,,0,0,0,0,1,,,,,,,,,,,,,,,,,,,,,,,,,,,,,,,,,,,,,,,,,,,,,,,,,,,,,,,,,,
,,,,,,,,,,,,,,,,,5fa1b1a4499be43137fba435,66,2022-02-12_12h41.21.364,lexical_decision_task_DD_L3,2021.2.3,MacIntel,166.6666667,,,,,,,,,,3.349,1,,,,,,,,,,,,,,,0,0.386091127,-0.302158273,1,0,0,3.349,button_right_main,0.386091127,-0.302158273,1,0,0,,0,0,0,62,1,PURSE,HB,old,m,./images/PURSEHB.png,,,,,,,,,,,,,,,,,,,,,,,,,,,,,,,,,
,,,,,,,,,,,,,,,,,5fa1b1a4499be43137fba435,66,2022-02-12_12h41.21.364,lexical_decision_task_DD_L3,2021.2.3,MacIntel,166.6666667,,,,,,,,,,1.068,1,,,,,,,,,,,,,,,0,0.354916067,-0.3117506,1,0,0,1.068,button_right_main,0.354916067,-0.3117506,1,0,0,,0,1,1,20,1,CRADLE,HB,old,m,./images/CRADLEHB.png,,,,,,,,,,,,,,,,,,,,,,,,,,,,,,,,,
,,,,,,,,,,,,,,,,,5fa1b1a4499be43137fba435,66,2022-02-12_12h41.21.364,lexical_decision_task_DD_L3,2021.2.3,MacIntel,166.6666667,,,,,,,,,,2.268,1,,,,,,,,,,,,,,,0,0.333333333,-0.330935252,1,0,0,2.268,button_right_main,0.333333333,-0.330935252,1,0,0,,0,2,2,56,1,PACKET,HB,old,m,./images/PACKETHB.png,,,,,,,,,,,,,,,,,,,,,,,,,,,,,,,,,
,,,,,,,,,,,,,,,,,5fa1b1a4499be43137fba435,66,2022-02-12_12h41.21.364,lexical_decision_task_DD_L3,2021.2.3,MacIntel,166.6666667,,,,,,,,,,0.875,1,,,,,,,,,,,,,,,0,0.352517986,-0.31294964,1,0,0,0.875,button_right_main,0.352517986,-0.31294964,1,0,0,,0,3,3,30,1,STORM,LB,old,m,./images/STORMLB.png,,,,,,,,,,,,,,,,,,,,,,,,,,,,,,,,,
,,,,,,,,,,,,,,,,,5fa1b1a4499be43137fba435,66,2022-02-12_12h41.21.364,lexical_decision_task_DD_L3,2021.2.3,MacIntel,166.6666667,,,,,,,,,,2.244,1,,,,,,,,,,,,,,,0,-0.340527578,-0.327338129,1,0,0,2.244,button_left_main,-0.340527578,-0.327338129,1,0,0,,0,4,4,121,1,CEERS,HB,old,z,./images/CEERSHB.png,,,,,,,,,,,,,,,,,,,,,,,,,,,,,,,,,
,,,,,,,,,,,,,,,,,5fa1b1a4499be43137fba435,66,2022-02-12_12h41.21.364,lexical_decision_task_DD_L3,2021.2.3,MacIntel,166.6666667,,,,,,,,,,1.142,1,,,,,,,,,,,,,,,0,0.348920863,-0.298561151,1,0,0,1.142,button_right_main,0.348920863,-0.298561151,1,0,0,,0,5,5,1,1,PLANK,C,old,m,./images/PLANK.png,,,,,,,,,,,,,,,,,,,,,,,,,,,,,,,,,
,,,,,,,,,,,,,,,,,5fa1b1a4499be43137fba435,66,2022-02-12_12h41.21.364,lexical_decision_task_DD_L3,2021.2.3,MacIntel,166.6666667,,,,,,,,,,0.924,1,,,,,,,,,,,,,,,0,0.352517986,-0.314148681,1,0,0,0.924,button_right_main,0.352517986,-0.314148681,1,0,0,,0,6,6,28,1,FALCON,C,old,m,./images/FALCON.png,,,,,,,,,,,,,,,,,,,,,,,,,,,,,,,,,
,,,,,,,,,,,,,,,,,5fa1b1a4499be43137fba435,66,2022-02-12_12h41.21.364,lexical_decision_task_DD_L3,2021.2.3,MacIntel,166.6666667,,,,,,,,,,1.167,1,,,,,,,,,,,,,,,0,-0.347721823,-0.320143885,1,0,0,1.167,button_left_main,-0.347721823,-0.320143885,1,0,0,,0,7,7,156,1,HIXES,C,old,z,./images/HIXES.png,,,,,,,,,,,,,,,,,,,,,,,,,,,,,,,,,
,,,,,,,,,,,,,,,,,5fa1b1a4499be43137fba435,66,2022-02-12_12h41.21.364,lexical_decision_task_DD_L3,2021.2.3,MacIntel,166.6666667,,,,,,,,,,1.565,1,,,,,,,,,,,,,,,0,-0.345323741,-0.32853717,1,0,0,1.565,button_left_main,-0.345323741,-0.32853717,1,0,0,,0,8,8,133,1,POWDY,HB,old,z,./images/POWDYHB.png,,,,,,,,,,,,,,,,,,,,,,,,,,,,,,,,,
,,,,,,,,,,,,,,,,,5fa1b1a4499be43137fba435,66,2022-02-12_12h41.21.364,lexical_decision_task_DD_L3,2021.2.3,MacIntel,166.6666667,,,,,,,,,,1.944,1,,,,,,,,,,,,,,,0,0.309352518,-0.3117506,1,0,0,1.944,button_right_main,0.309352518,-0.3117506,1,0,0,,0,9,9,16,1,PENCE,C,old,m,./images/PENCE.png,,,,,,,,,,,,,,,,,,,,,,,,,,,,,,,,,
,,,,,,,,,,,,,,,,,5fa1b1a4499be43137fba435,66,2022-02-12_12h41.21.364,lexical_decision_task_DD_L3,2021.2.3,MacIntel,166.6666667,,,,,,,,,,1.219,1,,,,,,,,,,,,,,,0,-0.334532374,-0.338129496,1,0,0,1.219,button_left_main,-0.334532374,-0.338129496,1,0,0,,0,10,10,111,1,HOSSE,C,old,z,./images/HOSSE.png,,,,,,,,,,,,,,,,,,,,,,,,,,,,,,,,,
,,,,,,,,,,,,,,,,,5fa1b1a4499be43137fba435,66,2022-02-12_12h41.21.364,lexical_decision_task_DD_L3,2021.2.3,MacIntel,166.6666667,,,,,,,,,,0.874,1,,,,,,,,,,,,,,,0,0.336930456,-0.298561151,1,0,0,0.874,button_right_main,0.336930456,-0.298561151,1,0,0,,0,11,11,40,1,SWING,C,old,m,./images/SWING.png,,,,,,,,,,,,,,,,,,,,,,,,,,,,,,,,,
,,,,,,,,,,,,,,,,,5fa1b1a4499be43137fba435,66,2022-02-12_12h41.21.364,lexical_decision_task_DD_L3,2021.2.3,MacIntel,166.6666667,,,,,,,,,,2.193,1,,,,,,,,,,,,,,,0,0.342925659,-0.305755396,1,0,0,2.193,button_right_main,0.342925659,-0.305755396,1,0,0,,0,12,12,2,1,BEARD,HB,old,m,./images/BEARDHB.png,,,,,,,,,,,,,,,,,,,,,,,,,,,,,,,,,
,,,,,,,,,,,,,,,,,5fa1b1a4499be43137fba435,66,2022-02-12_12h41.21.364,lexical_decision_task_DD_L3,2021.2.3,MacIntel,166.6666667,,,,,,,,,,1.096,1,,,,,,,,,,,,,,,0,-0.288968825,-0.32853717,1,0,0,1.096,button_left_main,-0.288968825,-0.32853717,1,0,0,,0,13,13,86,1,AIFED,LB,old,z,./images/AIFEDLB.png,,,,,,,,,,,,,,,,,,,,,,,,,,,,,,,,,
,,,,,,,,,,,,,,,,,5fa1b1a4499be43137fba435,66,2022-02-12_12h41.21.364,lexical_decision_task_DD_L3,2021.2.3,MacIntel,166.6666667,,,,,,,,,,2.235,0,,,,,,,,,,,,,,,0,0.321342926,-0.300959233,1,0,0,2.235,button_right_main,0.321342926,-0.300959233,1,0,0,,0,14,14,85,1,CHULK,HB,old,z,./images/CHULKHB.png,,,,,,,,,,,,,,,,,,,,,,,,,,,,,,,,,
,,,,,,,,,,,,,,,,,5fa1b1a4499be43137fba435,66,2022-02-12_12h41.21.364,lexical_decision_task_DD_L3,2021.2.3,MacIntel,166.6666667,,,,,,,,,,0.97,1,,,,,,,,,,,,,,,0,0.340527578,-0.298561151,1,0,0,0.97,button_right_main,0.340527578,-0.298561151,1,0,0,,0,15,15,36,1,THROAT,LB,old,m,./images/THROATLB.png,,,,,,,,,,,,,,,,,,,,,,,,,,,,,,,,,
,,,,,,,,,,,,,,,,,5fa1b1a4499be43137fba435,66,2022-02-12_12h41.21.364,lexical_decision_task_DD_L3,2021.2.3,MacIntel,166.6666667,,,,,,,,,,0.903,1,,,,,,,,,,,,,,,0,0.322541966,-0.299760192,1,0,0,0.903,button_right_main,0.322541966,-0.299760192,1,0,0,,0,16,16,57,1,MOOSE,LB,old,m,./images/MOOSELB.png,,,,,,,,,,,,,,,,,,,,,,,,,,,,,,,,,
,,,,,,,,,,,,,,,,,5fa1b1a4499be43137fba435,66,2022-02-12_12h41.21.364,lexical_decision_task_DD_L3,2021.2.3,MacIntel,166.6666667,,,,,,,,,,0.768,1,,,,,,,,,,,,,,,0,0.338129496,-0.293764988,1,0,0,0.768,button_right_main,0.338129496,-0.293764988,1,0,0,,0,17,17,19,1,DOUGH,C,old,m,./images/DOUGH.png,,,,,,,,,,,,,,,,,,,,,,,,,,,,,,,,,
,,,,,,,,,,,,,,,,,5fa1b1a4499be43137fba435,66,2022-02-12_12h41.21.364,lexical_decision_task_DD_L3,2021.2.3,MacIntel,166.6666667,,,,,,,,,,1.086,1,,,,,,,,,,,,,,,0,-0.309352518,-0.330935252,1,0,0,1.086,button_left_main,-0.309352518,-0.330935252,1,0,0,,0,18,18,164,1,SGREW,LB,old,z,./images/SGREWLB.png,,,,,,,,,,,,,,,,,,,,,,,,,,,,,,,,,
,,,,,,,,,,,,,,,,,5fa1b1a4499be43137fba435,66,2022-02-12_12h41.21.364,lexical_decision_task_DD_L3,2021.2.3,MacIntel,166.6666667,,,,,,,,,,0.76,1,,,,,,,,,,,,,,,0,0.32853717,-0.294964029,1,0,0,0.76,button_right_main,0.32853717,-0.294964029,1,0,0,,0,19,19,64,1,JELLY,C,old,m,./images/JELLY.png,,,,,,,,,,,,,,,,,,,,,,,,,,,,,,,,,
,,,,,,,,,,,,,,,,,5fa1b1a4499be43137fba435,66,2022-02-12_12h41.21.364,lexical_decision_task_DD_L3,2021.2.3,MacIntel,166.6666667,,,,,,,,,,0.975,1,,,,,,,,,,,,,,,0,0.3441247,-0.300959233,1,0,0,0.975,button_right_main,0.3441247,-0.300959233,1,0,0,,0,20,20,81,1,POODLE,LB,old,m,./images/POODLELB.png,,,,,,,,,,,,,,,,,,,,,,,,,,,,,,,,,
,,,,,,,,,,,,,,,,,5fa1b1a4499be43137fba435,66,2022-02-12_12h41.21.364,lexical_decision_task_DD_L3,2021.2.3,MacIntel,166.6666667,,,,,,,,,,1.16,1,,,,,,,,,,,,,,,0,0.304556355,-0.299760192,1,0,0,1.16,button_right_main,0.304556355,-0.299760192,1,0,0,,0,21,21,9,1,RHINO,LB,old,m,./images/RHINOLB.png,,,,,,,,,,,,,,,,,,,,,,,,,,,,,,,,,
,,,,,,,,,,,,,,,,,5fa1b1a4499be43137fba435,66,2022-02-12_12h41.21.364,lexical_decision_task_DD_L3,2021.2.3,MacIntel,166.6666667,,,,,,,,,,0.769,1,,,,,,,,,,,,,,,0,0.316546763,-0.305755396,1,0,0,0.769,button_right_main,0.316546763,-0.305755396,1,0,0,,0,22,22,46,1,PEARL,C,old,m,./images/PEARL.png,,,,,,,,,,,,,,,,,,,,,,,,,,,,,,,,,
,,,,,,,,,,,,,,,,,5fa1b1a4499be43137fba435,66,2022-02-12_12h41.21.364,lexical_decision_task_DD_L3,2021.2.3,MacIntel,166.6666667,,,,,,,,,,1.667,1,,,,,,,,,,,,,,,0,-0.336930456,-0.302158273,1,0,0,1.667,button_left_main,-0.336930456,-0.302158273,1,0,0,,0,23,23,145,1,LAMEL,HB,old,z,./images/LAMELHB.png,,,,,,,,,,,,,,,,,,,,,,,,,,,,,,,,,
,,,,,,,,,,,,,,,,,5fa1b1a4499be43137fba435,66,2022-02-12_12h41.21.364,lexical_decision_task_DD_L3,2021.2.3,MacIntel,166.6666667,,,,,,,,,,0.893,1,,,,,,,,,,,,,,,0,0.339328537,-0.308153477,1,0,0,0.893,button_right_main,0.339328537,-0.308153477,1,0,0,,0,24,24,3,1,FINGER,LB,old,m,./images/FINGERLB.png,,,,,,,,,,,,,,,,,,,,,,,,,,,,,,,,,
,,,,,,,,,,,,,,,,,5fa1b1a4499be43137fba435,66,2022-02-12_12h41.21.364,lexical_decision_task_DD_L3,2021.2.3,MacIntel,166.6666667,,,,,,,,,,1.125,1,,,,,,,,,,,,,,,0,-0.300959233,-0.342925659,1,0,0,1.125,button_left_main,-0.300959233,-0.342925659,1,0,0,,0,25,25,131,1,NACES,LB,old,z,./images/NACESLB.png,,,,,,,,,,,,,,,,,,,,,,,,,,,,,,,,,
,,,,,,,,,,,,,,,,,5fa1b1a4499be43137fba435,66,2022-02-12_12h41.21.364,lexical_decision_task_DD_L3,2021.2.3,MacIntel,166.6666667,,,,,,,,,,1.61,0,,,,,,,,,,,,,,,0,0.324940048,-0.290167866,1,0,0,1.61,button_right_main,0.324940048,-0.290167866,1,0,0,,0,26,26,162,1,LEICH,C,old,z,./images/LEICH.png,,,,,,,,,,,,,,,,,,,,,,,,,,,,,,,,,
,,,,,,,,,,,,,,,,,5fa1b1a4499be43137fba435,66,2022-02-12_12h41.21.364,lexical_decision_task_DD_L3,2021.2.3,MacIntel,166.6666667,,,,,,,,,,1.351,1,,,,,,,,,,,,,,,0,-0.315347722,-0.3441247,1,0,0,1.351,button_left_main,-0.315347722,-0.3441247,1,0,0,,0,27,27,102,1,DULLE,C,old,z,./images/DULLE.png,,,,,,,,,,,,,,,,,,,,,,,,,,,,,,,,,
,,,,,,,,,,,,,,,,,5fa1b1a4499be43137fba435,66,2022-02-12_12h41.21.364,lexical_decision_task_DD_L3,2021.2.3,MacIntel,166.6666667,,,,,,,,,,1.72,1,,,,,,,,,,,,,,,0,-0.314148681,-0.324940048,1,0,0,1.72,button_left_main,-0.314148681,-0.324940048,1,0,0,,0,28,28,115,1,MAWNS,HB,old,z,./images/MAWNSHB.png,,,,,,,,,,,,,,,,,,,,,,,,,,,,,,,,,
,,,,,,,,,,,,,,,,,5fa1b1a4499be43137fba435,66,2022-02-12_12h41.21.364,lexical_decision_task_DD_L3,2021.2.3,MacIntel,166.6666667,,,,,,,,,,1.552,1,,,,,,,,,,,,,,,0,-0.332134293,-0.32853717,1,0,0,1.552,button_left_main,-0.332134293,-0.32853717,1,0,0,,0,29,29,107,1,FASKS,LB,old,z,./images/FASKSLB.png,,,,,,,,,,,,,,,,,,,,,,,,,,,,,,,,,
,,,,,,,,,,,,,,,,,5fa1b1a4499be43137fba435,66,2022-02-12_12h41.21.364,lexical_decision_task_DD_L3,2021.2.3,MacIntel,166.6666667,,,,,,,,,,1.101,1,,,,,,,,,,,,,,,0,-0.286570743,-0.309352518,1,0,0,1.101,button_left_main,-0.286570743,-0.309352518,1,0,0,,0,30,30,158,1,EGECT,LB,old,z,./images/EGECTLB.png,,,,,,,,,,,,,,,,,,,,,,,,,,,,,,,,,
,,,,,,,,,,,,,,,,,5fa1b1a4499be43137fba435,66,2022-02-12_12h41.21.364,lexical_decision_task_DD_L3,2021.2.3,MacIntel,166.6666667,,,,,,,,,,0.918,1,,,,,,,,,,,,,,,0,0.329736211,-0.279376499,1,0,0,0.918,button_right_main,0.329736211,-0.279376499,1,0,0,,0,31,31,73,1,SNACK,C,old,m,./images/SNACK.png,,,,,,,,,,,,,,,,,,,,,,,,,,,,,,,,,
,,,,,,,,,,,,,,,,,5fa1b1a4499be43137fba435,66,2022-02-12_12h41.21.364,lexical_decision_task_DD_L3,2021.2.3,MacIntel,166.6666667,,,,,,,,,,1.768,1,,,,,,,,,,,,,,,0,-0.329736211,-0.32853717,1,0,0,1.768,button_left_main,-0.329736211,-0.32853717,1,0,0,,0,32,32,153,1,CLUPS,C,old,z,./images/CLUPS.png,,,,,,,,,,,,,,,,,,,,,,,,,,,,,,,,,
,,,,,,,,,,,,,,,,,5fa1b1a4499be43137fba435,66,2022-02-12_12h41.21.364,lexical_decision_task_DD_L3,2021.2.3,MacIntel,166.6666667,,,,,,,,,,1.302,1,,,,,,,,,,,,,,,0,-0.29736211,-0.316546763,1,0,0,1.302,button_left_main,-0.29736211,-0.316546763,1,0,0,,0,33,33,116,1,BALGY,LB,old,z,./images/BALGYLB.png,,,,,,,,,,,,,,,,,,,,,,,,,,,,,,,,,
,,,,,,,,,,,,,,,,,5fa1b1a4499be43137fba435,66,2022-02-12_12h41.21.364,lexical_decision_task_DD_L3,2021.2.3,MacIntel,166.6666667,,,,,,,,,,0.835,1,,,,,,,,,,,,,,,0,0.352517986,-0.29616307,1,0,0,0.835,button_right_main,0.352517986,-0.29616307,1,0,0,,0,34,34,76,1,INFANT,C,old,m,./images/INFANT.png,,,,,,,,,,,,,,,,,,,,,,,,,,,,,,,,,
,,,,,,,,,,,,,,,,,5fa1b1a4499be43137fba435,66,2022-02-12_12h41.21.364,lexical_decision_task_DD_L3,2021.2.3,MacIntel,166.6666667,,,,,,,,,,0.952,1,,,,,,,,,,,,,,,0,0.326139089,-0.310551559,1,0,0,0.952,button_right_main,0.326139089,-0.310551559,1,0,0,,0,35,35,15,1,GREASE,LB,old,m,./images/GREASELB.png,,,,,,,,,,,,,,,,,,,,,,,,,,,,,,,,,
,,,,,,,,,,,,,,,,,5fa1b1a4499be43137fba435,66,2022-02-12_12h41.21.364,lexical_decision_task_DD_L3,2021.2.3,MacIntel,166.6666667,,,,,,,,,,0.77,1,,,,,,,,,,,,,,,0,0.333333333,-0.31294964,1,0,0,0.77,button_right_main,0.333333333,-0.31294964,1,0,0,,0,36,36,69,1,COOKER,LB,old,m,./images/COOKERLB.png,,,,,,,,,,,,,,,,,,,,,,,,,,,,,,,,,
,,,,,,,,,,,,,,,,,5fa1b1a4499be43137fba435,66,2022-02-12_12h41.21.364,lexical_decision_task_DD_L3,2021.2.3,MacIntel,166.6666667,,,,,,,,,,0.886,1,,,,,,,,,,,,,,,0,0.338129496,-0.3117506,1,0,0,0.886,button_right_main,0.338129496,-0.3117506,1,0,0,,0,37,37,63,1,MIRROR,LB,old,m,./images/MIRRORLB.png,,,,,,,,,,,,,,,,,,,,,,,,,,,,,,,,,
,,,,,,,,,,,,,,,,,5fa1b1a4499be43137fba435,66,2022-02-12_12h41.21.364,lexical_decision_task_DD_L3,2021.2.3,MacIntel,166.6666667,,,,,,,,,,1.948,1,,,,,,,,,,,,,,,0,-0.310551559,-0.322541966,1,0,0,1.948,button_left_main,-0.310551559,-0.322541966,1,0,0,,0,38,38,151,1,TINKY,HB,old,z,./images/TINKYHB.png,,,,,,,,,,,,,,,,,,,,,,,,,,,,,,,,,
,,,,,,,,,,,,,,,,,5fa1b1a4499be43137fba435,66,2022-02-12_12h41.21.364,lexical_decision_task_DD_L3,2021.2.3,MacIntel,166.6666667,,,,,,,,,,1.823,1,,,,,,,,,,,,,,,0,-0.314148681,-0.318944844,1,0,0,1.823,button_left_main,-0.314148681,-0.318944844,1,0,0,,0,39,39,120,1,RINED,C,old,z,./images/RINED.png,,,,,,,,,,,,,,,,,,,,,,,,,,,,,,,,,
,,,,,,,,,,,,,,,,,5fa1b1a4499be43137fba435,66,2022-02-12_12h41.21.364,lexical_decision_task_DD_L3,2021.2.3,MacIntel,166.6666667,,,,,,,,,,1.718,1,,,,,,,,,,,,,,,0,0.374100719,-0.316546763,1,0,0,1.718,button_right_main,0.374100719,-0.316546763,1,0,0,,0,40,40,50,1,MALLET,HB,old,m,./images/MALLETHB.png,,,,,,,,,,,,,,,,,,,,,,,,,,,,,,,,,
,,,,,,,,,,,,,,,,,5fa1b1a4499be43137fba435,66,2022-02-12_12h41.21.364,lexical_decision_task_DD_L3,2021.2.3,MacIntel,166.6666667,,,,,,,,,,1.441,0,,,,,,,,,,,,,,,0,0.320143885,-0.29616307,1,0,0,1.441,button_right_main,0.079136691,-0.405275779,1,0,0,,0,41,41,104,1,GITTY,LB,old,z,./images/GITTYLB.png,break_done_button,,,,,,,,,,,,,,,,,,,,,,,,,,,,,,,,
,,,,,,,,,,,,,,,,,5fa1b1a4499be43137fba435,66,2022-02-12_12h41.21.364,lexical_decision_task_DD_L3,2021.2.3,MacIntel,166.6666667,,,,,,,,,,0.919,1,,,,,,,,,,,,,,,0,0.380095923,-0.31294964,1,0,0,0.919,button_right_main,0.380095923,-0.31294964,1,0,0,,0,42,42,52,1,BANNER,C,old,m,./images/BANNER.png,,,,,,,,,,,,,,,,,,,,,,,,,,,,,,,,,
,,,,,,,,,,,,,,,,,5fa1b1a4499be43137fba435,66,2022-02-12_12h41.21.364,lexical_decision_task_DD_L3,2021.2.3,MacIntel,166.6666667,,,,,,,,,,1.195,1,,,,,,,,,,,,,,,0,-0.320143885,-0.321342926,1,0,0,1.195,button_left_main,-0.320143885,-0.321342926,1,0,0,,0,43,43,135,1,JOODY,C,old,z,./images/JOODY.png,,,,,,,,,,,,,,,,,,,,,,,,,,,,,,,,,
,,,,,,,,,,,,,,,,,5fa1b1a4499be43137fba435,66,2022-02-12_12h41.21.364,lexical_decision_task_DD_L3,2021.2.3,MacIntel,166.6666667,,,,,,,,,,1.486,1,,,,,,,,,,,,,,,0,-0.3441247,-0.316546763,1,0,0,1.486,button_left_main,-0.3441247,-0.316546763,1,0,0,,0,44,44,136,1,WERVE,HB,old,z,./images/WERVEHB.png,,,,,,,,,,,,,,,,,,,,,,,,,,,,,,,,,
,,,,,,,,,,,,,,,,,5fa1b1a4499be43137fba435,66,2022-02-12_12h41.21.364,lexical_decision_task_DD_L3,2021.2.3,MacIntel,166.6666667,,,,,,,,,,1.419,0,,,,,,,,,,,,,,,0,0.334532374,-0.315347722,1,0,0,1.419,button_right_main,0.334532374,-0.315347722,1,0,0,,0,45,45,140,1,DOVET,LB,old,z,./images/DOVETLB.png,,,,,,,,,,,,,,,,,,,,,,,,,,,,,,,,,
,,,,,,,,,,,,,,,,,5fa1b1a4499be43137fba435,66,2022-02-12_12h41.21.364,lexical_decision_task_DD_L3,2021.2.3,MacIntel,166.6666667,,,,,,,,,,1.943,0,,,,,,,,,,,,,,,0,0.317745803,-0.299760192,1,0,0,1.943,button_right_main,0.317745803,-0.299760192,1,0,0,,0,46,46,166,1,SHORY,HB,old,z,./images/SHORYHB.png,,,,,,,,,,,,,,,,,,,,,,,,,,,,,,,,,
,,,,,,,,,,,,,,,,,5fa1b1a4499be43137fba435,66,2022-02-12_12h41.21.364,lexical_decision_task_DD_L3,2021.2.3,MacIntel,166.6666667,,,,,,,,,,1.311,1,,,,,,,,,,,,,,,0,-0.302158273,-0.347721823,1,0,0,1.311,button_left_main,-0.302158273,-0.347721823,1,0,0,,0,47,47,93,1,SMONE,C,old,z,./images/SMONE.png,,,,,,,,,,,,,,,,,,,,,,,,,,,,,,,,,
,,,,,,,,,,,,,,,,,5fa1b1a4499be43137fba435,66,2022-02-12_12h41.21.364,lexical_decision_task_DD_L3,2021.2.3,MacIntel,166.6666667,,,,,,,,,,1.176,1,,,,,,,,,,,,,,,0,-0.29616307,-0.317745803,1,0,0,1.176,button_left_main,-0.29616307,-0.317745803,1,0,0,,0,48,48,134,1,TROSS,LB,old,z,./images/TROSSLB.png,,,,,,,,,,,,,,,,,,,,,,,,,,,,,,,,,
,,,,,,,,,,,,,,,,,5fa1b1a4499be43137fba435,66,2022-02-12_12h41.21.364,lexical_decision_task_DD_L3,2021.2.3,MacIntel,166.6666667,,,,,,,,,,1.553,1,,,,,,,,,,,,,,,0,-0.291366906,-0.324940048,1,0,0,1.553,button_left_main,-0.291366906,-0.324940048,1,0,0,,0,49,49,148,1,JOMS,HB,old,z,./images/JOMSHB.png,,,,,,,,,,,,,,,,,,,,,,,,,,,,,,,,,
,,,,,,,,,,,,,,,,,5fa1b1a4499be43137fba435,66,2022-02-12_12h41.21.364,lexical_decision_task_DD_L3,2021.2.3,MacIntel,166.6666667,,,,,,,,,,1.151,1,,,,,,,,,,,,,,,0,0.350119904,-0.321342926,1,0,0,1.151,button_right_main,0.350119904,-0.321342926,1,0,0,,0,50,50,48,1,SPORT,LB,old,m,./images/SPORTLB.png,,,,,,,,,,,,,,,,,,,,,,,,,,,,,,,,,
,,,,,,,,,,,,,,,,,5fa1b1a4499be43137fba435,66,2022-02-12_12h41.21.364,lexical_decision_task_DD_L3,2021.2.3,MacIntel,166.6666667,,,,,,,,,,1.142,1,,,,,,,,,,,,,,,0,-0.291366906,-0.32853717,1,0,0,1.142,button_left_main,-0.291366906,-0.32853717,1,0,0,,0,51,51,122,1,BLOOT,LB,old,z,./images/BLOOTLB.png,,,,,,,,,,,,,,,,,,,,,,,,,,,,,,,,,
,,,,,,,,,,,,,,,,,5fa1b1a4499be43137fba435,66,2022-02-12_12h41.21.364,lexical_decision_task_DD_L3,2021.2.3,MacIntel,166.6666667,,,,,,,,,,0.785,1,,,,,,,,,,,,,,,0,0.323741007,-0.299760192,1,0,0,0.785,button_right_main,0.323741007,-0.299760192,1,0,0,,0,52,52,79,1,CRUST,C,old,m,./images/CRUST.png,,,,,,,,,,,,,,,,,,,,,,,,,,,,,,,,,
,,,,,,,,,,,,,,,,,5fa1b1a4499be43137fba435,66,2022-02-12_12h41.21.364,lexical_decision_task_DD_L3,2021.2.3,MacIntel,166.6666667,,,,,,,,,,1.037,1,,,,,,,,,,,,,,,0,-0.284172662,-0.318944844,1,0,0,1.037,button_left_main,-0.284172662,-0.318944844,1,0,0,,0,53,53,84,1,HAXES,C,old,z,./images/HAXES.png,,,,,,,,,,,,,,,,,,,,,,,,,,,,,,,,,
,,,,,,,,,,,,,,,,,5fa1b1a4499be43137fba435,66,2022-02-12_12h41.21.364,lexical_decision_task_DD_L3,2021.2.3,MacIntel,166.6666667,,,,,,,,,,2.768,1,,,,,,,,,,,,,,,0,-0.29736211,-0.300959233,1,0,0,2.768,button_left_main,-0.29736211,-0.300959233,1,0,0,,0,54,54,141,1,PLEET,C,old,z,./images/PLEET.png,,,,,,,,,,,,,,,,,,,,,,,,,,,,,,,,,
,,,,,,,,,,,,,,,,,5fa1b1a4499be43137fba435,66,2022-02-12_12h41.21.364,lexical_decision_task_DD_L3,2021.2.3,MacIntel,166.6666667,,,,,,,,,,1.302,0,,,,,,,,,,,,,,,0,-0.284172662,-0.351318945,1,0,0,1.302,button_left_main,-0.284172662,-0.351318945,1,0,0,,0,55,55,17,1,SKIING,HB,old,m,./images/SKIINGHB.png,,,,,,,,,,,,,,,,,,,,,,,,,,,,,,,,,
,,,,,,,,,,,,,,,,,5fa1b1a4499be43137fba435,66,2022-02-12_12h41.21.364,lexical_decision_task_DD_L3,2021.2.3,MacIntel,166.6666667,,,,,,,,,,1.185,1,,,,,,,,,,,,,,,0,-0.262589928,-0.335731415,1,0,0,1.185,button_left_main,-0.262589928,-0.335731415,1,0,0,,0,56,56,98,1,BAMPS,LB,old,z,./images/BAMPSLB.png,,,,,,,,,,,,,,,,,,,,,,,,,,,,,,,,,
,,,,,,,,,,,,,,,,,5fa1b1a4499be43137fba435,66,2022-02-12_12h41.21.364,lexical_decision_task_DD_L3,2021.2.3,MacIntel,166.6666667,,,,,,,,,,1.993,1,,,,,,,,,,,,,,,0,-0.282973621,-0.308153477,1,0,0,1.993,button_left_main,-0.282973621,-0.308153477,1,0,0,,0,57,57,130,1,CRILL,HB,old,z,./images/CRILLHB.png,,,,,,,,,,,,,,,,,,,,,,,,,,,,,,,,,
,,,,,,,,,,,,,,,,,5fa1b1a4499be43137fba435,66,2022-02-12_12h41.21.364,lexical_decision_task_DD_L3,2021.2.3,MacIntel,166.6666667,,,,,,,,,,1.338,1,,,,,,,,,,,,,,,0,0.3117506,-0.302158273,1,0,0,1.338,button_right_main,0.3117506,-0.302158273,1,0,0,,0,58,58,11,1,BONNET,HB,old,m,./images/BONNETHB.png,,,,,,,,,,,,,,,,,,,,,,,,,,,,,,,,,
,,,,,,,,,,,,,,,,,5fa1b1a4499be43137fba435,66,2022-02-12_12h41.21.364,lexical_decision_task_DD_L3,2021.2.3,MacIntel,166.6666667,,,,,,,,,,0.81,1,,,,,,,,,,,,,,,0,0.315347722,-0.31294964,1,0,0,0.81,button_right_main,0.315347722,-0.31294964,1,0,0,,0,59,59,25,1,WRIST,C,old,m,./images/WRIST.png,,,,,,,,,,,,,,,,,,,,,,,,,,,,,,,,,
,,,,,,,,,,,,,,,,,5fa1b1a4499be43137fba435,66,2022-02-12_12h41.21.364,lexical_decision_task_DD_L3,2021.2.3,MacIntel,166.6666667,,,,,,,,,,1.611,0,,,,,,,,,,,,,,,0,0.3117506,-0.306954436,1,0,0,1.611,button_right_main,0.3117506,-0.306954436,1,0,0,,0,60,60,160,1,VEETS,HB,old,z,./images/VEETSHB.png,,,,,,,,,,,,,,,,,,,,,,,,,,,,,,,,,
,,,,,,,,,,,,,,,,,5fa1b1a4499be43137fba435,66,2022-02-12_12h41.21.364,lexical_decision_task_DD_L3,2021.2.3,MacIntel,166.6666667,,,,,,,,,,0.833,1,,,,,,,,,,,,,,,0,0.338129496,-0.304556355,1,0,0,0.833,button_right_main,0.338129496,-0.304556355,1,0,0,,0,61,61,39,1,SHELF,LB,old,m,./images/SHELFLB.png,,,,,,,,,,,,,,,,,,,,,,,,,,,,,,,,,
,,,,,,,,,,,,,,,,,5fa1b1a4499be43137fba435,66,2022-02-12_12h41.21.364,lexical_decision_task_DD_L3,2021.2.3,MacIntel,166.6666667,,,,,,,,,,1.412,1,,,,,,,,,,,,,,,0,0.333333333,-0.29736211,1,0,0,1.412,button_right_main,0.333333333,-0.29736211,1,0,0,,0,62,62,23,1,WALRUS,HB,old,m,./images/WALRUSHB.png,,,,,,,,,,,,,,,,,,,,,,,,,,,,,,,,,
,,,,,,,,,,,,,,,,,5fa1b1a4499be43137fba435,66,2022-02-12_12h41.21.364,lexical_decision_task_DD_L3,2021.2.3,MacIntel,166.6666667,,,,,,,,,,1.21,0,,,,,,,,,,,,,,,0,0.321342926,-0.315347722,1,0,0,1.21,button_right_main,0.321342926,-0.315347722,1,0,0,,0,63,63,110,1,CRUNK,LB,old,z,./images/CRUNKLB.png,,,,,,,,,,,,,,,,,,,,,,,,,,,,,,,,,
,,,,,,,,,,,,,,,,,5fa1b1a4499be43137fba435,66,2022-02-12_12h41.21.364,lexical_decision_task_DD_L3,2021.2.3,MacIntel,166.6666667,,,,,,,,,,1.085,1,,,,,,,,,,,,,,,0,0.338129496,-0.305755396,1,0,0,1.085,button_right_main,0.338129496,-0.305755396,1,0,0,,0,64,64,31,1,QUILL,C,old,m,./images/QUILL.png,,,,,,,,,,,,,,,,,,,,,,,,,,,,,,,,,
,,,,,,,,,,,,,,,,,5fa1b1a4499be43137fba435,66,2022-02-12_12h41.21.364,lexical_decision_task_DD_L3,2021.2.3,MacIntel,166.6666667,,,,,,,,,,1.283,1,,,,,,,,,,,,,,,0,-0.309352518,-0.345323741,1,0,0,1.283,button_left_main,-0.309352518,-0.345323741,1,0,0,,0,65,65,146,1,MOOST,LB,old,z,./images/MOOSTLB.png,,,,,,,,,,,,,,,,,,,,,,,,,,,,,,,,,
,,,,,,,,,,,,,,,,,5fa1b1a4499be43137fba435,66,2022-02-12_12h41.21.364,lexical_decision_task_DD_L3,2021.2.3,MacIntel,166.6666667,,,,,,,,,,1.354,1,,,,,,,,,,,,,,,0,-0.29616307,-0.315347722,1,0,0,1.354,button_left_main,-0.29616307,-0.315347722,1,0,0,,0,66,66,167,1,ZONET,LB,old,z,./images/ZONETLB.png,,,,,,,,,,,,,,,,,,,,,,,,,,,,,,,,,
,,,,,,,,,,,,,,,,,5fa1b1a4499be43137fba435,66,2022-02-12_12h41.21.364,lexical_decision_task_DD_L3,2021.2.3,MacIntel,166.6666667,,,,,,,,,,0.886,1,,,,,,,,,,,,,,,0,0.353717026,-0.314148681,1,0,0,0.886,button_right_main,0.353717026,-0.314148681,1,0,0,,0,67,67,21,1,KIDNEY,LB,old,m,./images/KIDNEYLB.png,,,,,,,,,,,,,,,,,,,,,,,,,,,,,,,,,
,,,,,,,,,,,,,,,,,5fa1b1a4499be43137fba435,66,2022-02-12_12h41.21.364,lexical_decision_task_DD_L3,2021.2.3,MacIntel,166.6666667,,,,,,,,,,0.844,1,,,,,,,,,,,,,,,0,0.341726619,-0.308153477,1,0,0,0.844,button_right_main,0.341726619,-0.308153477,1,0,0,,0,68,68,37,1,BIRTH,C,old,m,./images/BIRTH.png,,,,,,,,,,,,,,,,,,,,,,,,,,,,,,,,,
,,,,,,,,,,,,,,,,,5fa1b1a4499be43137fba435,66,2022-02-12_12h41.21.364,lexical_decision_task_DD_L3,2021.2.3,MacIntel,166.6666667,,,,,,,,,,2.81,1,,,,,,,,,,,,,,,0,-0.303357314,-0.298561151,1,0,0,2.81,button_left_main,-0.303357314,-0.298561151,1,0,0,,0,69,69,152,1,FRAIN,LB,old,z,./images/FRAINLB.png,,,,,,,,,,,,,,,,,,,,,,,,,,,,,,,,,
,,,,,,,,,,,,,,,,,5fa1b1a4499be43137fba435,66,2022-02-12_12h41.21.364,lexical_decision_task_DD_L3,2021.2.3,MacIntel,166.6666667,,,,,,,,,,1.42,1,,,,,,,,,,,,,,,0,-0.306954436,-0.320143885,1,0,0,1.42,button_left_main,-0.306954436,-0.320143885,1,0,0,,0,70,70,92,1,PAIMS,LB,old,z,./images/PAIMSLB.png,,,,,,,,,,,,,,,,,,,,,,,,,,,,,,,,,
,,,,,,,,,,,,,,,,,5fa1b1a4499be43137fba435,66,2022-02-12_12h41.21.364,lexical_decision_task_DD_L3,2021.2.3,MacIntel,166.6666667,,,,,,,,,,1.66,1,,,,,,,,,,,,,,,0,-0.288968825,-0.309352518,1,0,0,1.66,button_left_main,-0.288968825,-0.309352518,1,0,0,,0,71,71,95,1,HANTY,LB,old,z,./images/HANTYLB.png,,,,,,,,,,,,,,,,,,,,,,,,,,,,,,,,,
,,,,,,,,,,,,,,,,,5fa1b1a4499be43137fba435,66,2022-02-12_12h41.21.364,lexical_decision_task_DD_L3,2021.2.3,MacIntel,166.6666667,,,,,,,,,,2.551,1,,,,,,,,,,,,,,,0,0.308153477,-0.302158273,1,0,0,2.551,button_right_main,0.308153477,-0.302158273,1,0,0,,0,72,72,14,1,PICKLE,HB,old,m,./images/PICKLEHB.png,,,,,,,,,,,,,,,,,,,,,,,,,,,,,,,,,
,,,,,,,,,,,,,,,,,5fa1b1a4499be43137fba435,66,2022-02-12_12h41.21.364,lexical_decision_task_DD_L3,2021.2.3,MacIntel,166.6666667,,,,,,,,,,0.784,1,,,,,,,,,,,,,,,0,0.3117506,-0.316546763,1,0,0,0.784,button_right_main,0.3117506,-0.316546763,1,0,0,,0,73,73,13,1,MOTOR,C,old,m,./images/MOTOR.png,,,,,,,,,,,,,,,,,,,,,,,,,,,,,,,,,
,,,,,,,,,,,,,,,,,5fa1b1a4499be43137fba435,66,2022-02-12_12h41.21.364,lexical_decision_task_DD_L3,2021.2.3,MacIntel,166.6666667,,,,,,,,,,0.817,0,,,,,,,,,,,,,,,0,0.315347722,-0.321342926,1,0,0,0.817,button_right_main,0.315347722,-0.321342926,1,0,0,,0,74,74,159,1,CUDDY,C,old,z,./images/CUDDY.png,,,,,,,,,,,,,,,,,,,,,,,,,,,,,,,,,
,,,,,,,,,,,,,,,,,5fa1b1a4499be43137fba435,66,2022-02-12_12h41.21.364,lexical_decision_task_DD_L3,2021.2.3,MacIntel,166.6666667,,,,,,,,,,1.233,1,,,,,,,,,,,,,,,0,0.320143885,-0.291366906,1,0,0,1.233,button_right_main,0.320143885,-0.291366906,1,0,0,,0,75,75,29,1,CRUMB,HB,old,m,./images/CRUMBHB.png,,,,,,,,,,,,,,,,,,,,,,,,,,,,,,,,,
,,,,,,,,,,,,,,,,,5fa1b1a4499be43137fba435,66,2022-02-12_12h41.21.364,lexical_decision_task_DD_L3,2021.2.3,MacIntel,166.6666667,,,,,,,,,,2.101,1,,,,,,,,,,,,,,,0,0.333333333,-0.292565947,1,0,0,2.101,button_right_main,0.333333333,-0.292565947,1,0,0,,0,76,76,44,1,LIZARD,HB,old,m,./images/LIZARDHB.png,,,,,,,,,,,,,,,,,,,,,,,,,,,,,,,,,
,,,,,,,,,,,,,,,,,5fa1b1a4499be43137fba435,66,2022-02-12_12h41.21.364,lexical_decision_task_DD_L3,2021.2.3,MacIntel,166.6666667,,,,,,,,,,2.227,0,,,,,,,,,,,,,,,0,0.306954436,-0.302158273,1,0,0,2.227,button_right_main,0.306954436,-0.302158273,1,0,0,,0,77,77,100,1,DRIBS,HB,old,z,./images/DRIBSHB.png,,,,,,,,,,,,,,,,,,,,,,,,,,,,,,,,,
,,,,,,,,,,,,,,,,,5fa1b1a4499be43137fba435,66,2022-02-12_12h41.21.364,lexical_decision_task_DD_L3,2021.2.3,MacIntel,166.6666667,,,,,,,,,,1.758,1,,,,,,,,,,,,,,,0,0.304556355,-0.291366906,1,0,0,1.758,button_right_main,0.304556355,-0.291366906,1,0,0,,0,78,78,83,1,JUNGLE,HB,old,m,./images/JUNGLEHB.png,,,,,,,,,,,,,,,,,,,,,,,,,,,,,,,,,
,,,,,,,,,,,,,,,,,5fa1b1a4499be43137fba435,66,2022-02-12_12h41.21.364,lexical_decision_task_DD_L3,2021.2.3,MacIntel,166.6666667,,,,,,,,,,1.059,1,,,,,,,,,,,,,,,0,-0.314148681,-0.332134293,1,0,0,1.059,button_left_main,-0.314148681,-0.332134293,1,0,0,,0,79,79,132,1,SCIFF,C,old,z,./images/SCIFF.png,,,,,,,,,,,,,,,,,,,,,,,,,,,,,,,,,
,,,,,,,,,,,,,,,,,5fa1b1a4499be43137fba435,66,2022-02-12_12h41.21.364,lexical_decision_task_DD_L3,2021.2.3,MacIntel,166.6666667,,,,,,,,,,1.741,1,,,,,,,,,,,,,,,0,-0.324940048,-0.3117506,1,0,0,1.741,button_left_main,-0.324940048,-0.3117506,1,0,0,,0,80,80,90,1,NEAST,C,old,z,./images/NEAST.png,,,,,,,,,,,,,,,,,,,,,,,,,,,,,,,,,
,,,,,,,,,,,,,,,,,5fa1b1a4499be43137fba435,66,2022-02-12_12h41.21.364,lexical_decision_task_DD_L3,2021.2.3,MacIntel,166.6666667,,,,,,,,,,1.61,1,,,,,,,,,,,,,,,0,0.317745803,-0.309352518,1,0,0,1.61,button_right_main,0.317745803,-0.309352518,1,0,0,,0,81,81,80,1,WEASEL,HB,old,m,./images/WEASELHB.png,,,,,,,,,,,,,,,,,,,,,,,,,,,,,,,,,
,,,,,,,,,,,,,,,,,5fa1b1a4499be43137fba435,66,2022-02-12_12h41.21.364,lexical_decision_task_DD_L3,2021.2.3,MacIntel,166.6666667,,,,,,,,,,0.944,1,,,,,,,,,,,,,,,0,0.333333333,-0.293764988,1,0,0,0.944,button_right_main,0.333333333,-0.293764988,1,0,0,,0,82,82,77,1,COUCH,HB,old,m,./images/COUCHHB.png,,,,,,,,,,,,,,,,,,,,,,,,,,,,,,,,,
,,,,,,,,,,,,,,,,,5fa1b1a4499be43137fba435,66,2022-02-12_12h41.21.364,lexical_decision_task_DD_L3,2021.2.3,MacIntel,166.6666667,,,,,,,,,,2.11,1,,,,,,,,,,,,,,,0,-0.28177458,-0.279376499,1,0,0,2.11,button_left_main,0.095923261,-0.411270983,1,0,0,,0,83,83,127,1,NINDY,HB,old,z,./images/NINDYHB.png,break_done_button,,,,,,,,,,,,,,,,,,,,,,,,,,,,,,,,
,,,,,,,,,,,,,,,,,5fa1b1a4499be43137fba435,66,2022-02-12_12h41.21.364,lexical_decision_task_DD_L3,2021.2.3,MacIntel,166.6666667,,,,,,,,,,0.909,1,,,,,,,,,,,,,,,0,0.335731415,-0.298561151,1,0,0,0.909,button_right_main,0.335731415,-0.298561151,1,0,0,,0,84,84,61,1,CANDLE,C,old,m,./images/CANDLE.png,,,,,,,,,,,,,,,,,,,,,,,,,,,,,,,,,
,,,,,,,,,,,,,,,,,5fa1b1a4499be43137fba435,66,2022-02-12_12h41.21.364,lexical_decision_task_DD_L3,2021.2.3,MacIntel,166.6666667,,,,,,,,,,2.139,1,,,,,,,,,,,,,,,0,-0.363309353,-0.316546763,1,0,0,2.139,button_left_main,-0.363309353,-0.316546763,1,0,0,,0,85,85,87,1,TRING,C,old,z,./images/TRING.png,,,,,,,,,,,,,,,,,,,,,,,,,,,,,,,,,
,,,,,,,,,,,,,,,,,5fa1b1a4499be43137fba435,66,2022-02-12_12h41.21.364,lexical_decision_task_DD_L3,2021.2.3,MacIntel,166.6666667,,,,,,,,,,1.178,1,,,,,,,,,,,,,,,0,0.323741007,-0.318944844,1,0,0,1.178,button_right_main,0.323741007,-0.318944844,1,0,0,,0,86,86,43,1,MOSQUE,C,old,m,./images/MOSQUE.png,,,,,,,,,,,,,,,,,,,,,,,,,,,,,,,,,
,,,,,,,,,,,,,,,,,5fa1b1a4499be43137fba435,66,2022-02-12_12h41.21.364,lexical_decision_task_DD_L3,2021.2.3,MacIntel,166.6666667,,,,,,,,,,1.877,0,,,,,,,,,,,,,,,0,0.302158273,-0.298561151,1,0,0,1.877,button_right_main,0.302158273,-0.298561151,1,0,0,,0,87,87,101,1,GLEET,LB,old,z,./images/GLEETLB.png,,,,,,,,,,,,,,,,,,,,,,,,,,,,,,,,,
,,,,,,,,,,,,,,,,,5fa1b1a4499be43137fba435,66,2022-02-12_12h41.21.364,lexical_decision_task_DD_L3,2021.2.3,MacIntel,166.6666667,,,,,,,,,,1.111,1,,,,,,,,,,,,,,,0,-0.333333333,-0.334532374,1,0,0,1.111,button_left_main,-0.333333333,-0.334532374,1,0,0,,0,88,88,147,1,ZOLES,C,old,z,./images/ZOLES.png,,,,,,,,,,,,,,,,,,,,,,,,,,,,,,,,,
,,,,,,,,,,,,,,,,,5fa1b1a4499be43137fba435,66,2022-02-12_12h41.21.364,lexical_decision_task_DD_L3,2021.2.3,MacIntel,166.6666667,,,,,,,,,,1.877,1,,,,,,,,,,,,,,,0,-0.329736211,-0.317745803,1,0,0,1.877,button_left_main,-0.329736211,-0.317745803,1,0,0,,0,89,89,144,1,NAIRY,C,old,z,./images/NAIRY.png,,,,,,,,,,,,,,,,,,,,,,,,,,,,,,,,,
,,,,,,,,,,,,,,,,,5fa1b1a4499be43137fba435,66,2022-02-12_12h41.21.364,lexical_decision_task_DD_L3,2021.2.3,MacIntel,166.6666667,,,,,,,,,,0.886,1,,,,,,,,,,,,,,,0,0.372901679,-0.326139089,1,0,0,0.886,button_right_main,0.372901679,-0.326139089,1,0,0,,0,90,90,45,1,KITTEN,LB,old,m,./images/KITTENLB.png,,,,,,,,,,,,,,,,,,,,,,,,,,,,,,,,,
,,,,,,,,,,,,,,,,,5fa1b1a4499be43137fba435,66,2022-02-12_12h41.21.364,lexical_decision_task_DD_L3,2021.2.3,MacIntel,166.6666667,,,,,,,,,,0.769,1,,,,,,,,,,,,,,,0,0.309352518,-0.298561151,1,0,0,0.769,button_right_main,0.309352518,-0.298561151,1,0,0,,0,91,91,51,1,ONION,LB,old,m,./images/ONIONLB.png,,,,,,,,,,,,,,,,,,,,,,,,,,,,,,,,,
,,,,,,,,,,,,,,,,,5fa1b1a4499be43137fba435,66,2022-02-12_12h41.21.364,lexical_decision_task_DD_L3,2021.2.3,MacIntel,166.6666667,,,,,,,,,,1.186,1,,,,,,,,,,,,,,,0,-0.304556355,-0.287769784,1,0,0,1.186,button_left_main,-0.304556355,-0.287769784,1,0,0,,0,92,92,150,1,NOOLS,C,old,z,./images/NOOLS.png,,,,,,,,,,,,,,,,,,,,,,,,,,,,,,,,,
,,,,,,,,,,,,,,,,,5fa1b1a4499be43137fba435,66,2022-02-12_12h41.21.364,lexical_decision_task_DD_L3,2021.2.3,MacIntel,166.6666667,,,,,,,,,,1.21,1,,,,,,,,,,,,,,,0,-0.293764988,-0.323741007,1,0,0,1.21,button_left_main,-0.293764988,-0.323741007,1,0,0,,0,93,93,125,1,MOOKY,LB,old,z,./images/MOOKYLB.png,,,,,,,,,,,,,,,,,,,,,,,,,,,,,,,,,
,,,,,,,,,,,,,,,,,5fa1b1a4499be43137fba435,66,2022-02-12_12h41.21.364,lexical_decision_task_DD_L3,2021.2.3,MacIntel,166.6666667,,,,,,,,,,1.211,1,,,,,,,,,,,,,,,0,-0.304556355,-0.324940048,1,0,0,1.211,button_left_main,-0.304556355,-0.324940048,1,0,0,,0,94,94,89,1,DRIEK,LB,old,z,./images/DRIEKLB.png,,,,,,,,,,,,,,,,,,,,,,,,,,,,,,,,,
,,,,,,,,,,,,,,,,,5fa1b1a4499be43137fba435,66,2022-02-12_12h41.21.364,lexical_decision_task_DD_L3,2021.2.3,MacIntel,166.6666667,,,,,,,,,,1.309,1,,,,,,,,,,,,,,,0,-0.276978417,-0.275779376,1,0,0,1.309,button_left_main,-0.276978417,-0.275779376,1,0,0,,0,95,95,126,1,GUELS,C,old,z,./images/GUELS.png,,,,,,,,,,,,,,,,,,,,,,,,,,,,,,,,,
,,,,,,,,,,,,,,,,,5fa1b1a4499be43137fba435,66,2022-02-12_12h41.21.364,lexical_decision_task_DD_L3,2021.2.3,MacIntel,166.6666667,,,,,,,,,,1.035,1,,,,,,,,,,,,,,,0,0.330935252,-0.316546763,1,0,0,1.035,button_right_main,0.330935252,-0.316546763,1,0,0,,0,96,96,65,1,FARMER,HB,old,m,./images/FARMERHB.png,,,,,,,,,,,,,,,,,,,,,,,,,,,,,,,,,
,,,,,,,,,,,,,,,,,5fa1b1a4499be43137fba435,66,2022-02-12_12h41.21.364,lexical_decision_task_DD_L3,2021.2.3,MacIntel,166.6666667,,,,,,,,,,0.97,1,,,,,,,,,,,,,,,0,0.31294964,-0.288968825,1,0,0,0.97,button_right_main,0.31294964,-0.288968825,1,0,0,,0,97,97,59,1,BURIAL,HB,old,m,./images/BURIALHB.png,,,,,,,,,,,,,,,,,,,,,,,,,,,,,,,,,
,,,,,,,,,,,,,,,,,5fa1b1a4499be43137fba435,66,2022-02-12_12h41.21.364,lexical_decision_task_DD_L3,2021.2.3,MacIntel,166.6666667,,,,,,,,,,0.76,1,,,,,,,,,,,,,,,0,0.329736211,-0.303357314,1,0,0,0.76,button_right_main,0.329736211,-0.303357314,1,0,0,,0,98,98,24,1,SCREW,LB,old,m,./images/SCREWLB.png,,,,,,,,,,,,,,,,,,,,,,,,,,,,,,,,,
,,,,,,,,,,,,,,,,,5fa1b1a4499be43137fba435,66,2022-02-12_12h41.21.364,lexical_decision_task_DD_L3,2021.2.3,MacIntel,166.6666667,,,,,,,,,,0.961,1,,,,,,,,,,,,,,,0,0.354916067,-0.316546763,1,0,0,0.961,button_right_main,0.354916067,-0.316546763,1,0,0,,0,99,99,0,1,TOMATO,LB,old,m,./images/TOMATOLB.png,,,,,,,,,,,,,,,,,,,,,,,,,,,,,,,,,
,,,,,,,,,,,,,,,,,5fa1b1a4499be43137fba435,66,2022-02-12_12h41.21.364,lexical_decision_task_DD_L3,2021.2.3,MacIntel,166.6666667,,,,,,,,,,1.602,1,,,,,,,,,,,,,,,0,-0.338129496,-0.290167866,1,0,0,1.602,button_left_main,-0.338129496,-0.290167866,1,0,0,,0,100,100,106,1,CLUMS,HB,old,z,./images/CLUMSHB.png,,,,,,,,,,,,,,,,,,,,,,,,,,,,,,,,,
,,,,,,,,,,,,,,,,,5fa1b1a4499be43137fba435,66,2022-02-12_12h41.21.364,lexical_decision_task_DD_L3,2021.2.3,MacIntel,166.6666667,,,,,,,,,,1.185,1,,,,,,,,,,,,,,,0,-0.294964029,-0.29616307,1,0,0,1.185,button_left_main,-0.294964029,-0.29616307,1,0,0,,0,101,101,119,1,PAFER,LB,old,z,./images/PAFERLB.png,,,,,,,,,,,,,,,,,,,,,,,,,,,,,,,,,
,,,,,,,,,,,,,,,,,5fa1b1a4499be43137fba435,66,2022-02-12_12h41.21.364,lexical_decision_task_DD_L3,2021.2.3,MacIntel,166.6666667,,,,,,,,,,0.954,1,,,,,,,,,,,,,,,0,0.346522782,-0.269784173,1,0,0,0.954,button_right_main,0.346522782,-0.269784173,1,0,0,,0,102,102,60,1,TWINS,LB,old,m,./images/TWINSLB.png,,,,,,,,,,,,,,,,,,,,,,,,,,,,,,,,,
,,,,,,,,,,,,,,,,,5fa1b1a4499be43137fba435,66,2022-02-12_12h41.21.364,lexical_decision_task_DD_L3,2021.2.3,MacIntel,166.6666667,,,,,,,,,,1.159,1,,,,,,,,,,,,,,,0,-0.261390887,-0.304556355,1,0,0,1.159,button_left_main,-0.261390887,-0.304556355,1,0,0,,0,103,103,113,1,LINEW,LB,old,z,./images/LINEWLB.png,,,,,,,,,,,,,,,,,,,,,,,,,,,,,,,,,
,,,,,,,,,,,,,,,,,5fa1b1a4499be43137fba435,66,2022-02-12_12h41.21.364,lexical_decision_task_DD_L3,2021.2.3,MacIntel,166.6666667,,,,,,,,,,0.876,1,,,,,,,,,,,,,,,0,0.322541966,-0.257793765,1,0,0,0.876,button_right_main,0.322541966,-0.257793765,1,0,0,,0,104,104,42,1,FOLDER,LB,old,m,./images/FOLDERLB.png,,,,,,,,,,,,,,,,,,,,,,,,,,,,,,,,,
,,,,,,,,,,,,,,,,,5fa1b1a4499be43137fba435,66,2022-02-12_12h41.21.364,lexical_decision_task_DD_L3,2021.2.3,MacIntel,166.6666667,,,,,,,,,,1.92,1,,,,,,,,,,,,,,,0,-0.310551559,-0.318944844,1,0,0,1.92,button_left_main,-0.310551559,-0.318944844,1,0,0,,0,105,105,139,1,BLEAR,HB,old,z,./images/BLEARHB.png,,,,,,,,,,,,,,,,,,,,,,,,,,,,,,,,,
,,,,,,,,,,,,,,,,,5fa1b1a4499be43137fba435,66,2022-02-12_12h41.21.364,lexical_decision_task_DD_L3,2021.2.3,MacIntel,166.6666667,,,,,,,,,,0.931,1,,,,,,,,,,,,,,,0,0.324940048,-0.298561151,1,0,0,0.931,button_right_main,0.324940048,-0.298561151,1,0,0,,0,106,106,8,1,TULIP,HB,old,m,./images/TULIPHB.png,,,,,,,,,,,,,,,,,,,,,,,,,,,,,,,,,
,,,,,,,,,,,,,,,,,5fa1b1a4499be43137fba435,66,2022-02-12_12h41.21.364,lexical_decision_task_DD_L3,2021.2.3,MacIntel,166.6666667,,,,,,,,,,0.9,1,,,,,,,,,,,,,,,0,0.341726619,-0.3117506,1,0,0,0.9,button_right_main,0.341726619,-0.3117506,1,0,0,,0,107,107,53,1,CARPET,HB,old,m,./images/CARPETHB.png,,,,,,,,,,,,,,,,,,,,,,,,,,,,,,,,,
,,,,,,,,,,,,,,,,,5fa1b1a4499be43137fba435,66,2022-02-12_12h41.21.364,lexical_decision_task_DD_L3,2021.2.3,MacIntel,166.6666667,,,,,,,,,,1.437,1,,,,,,,,,,,,,,,0,-0.306954436,-0.330935252,1,0,0,1.437,button_left_main,-0.306954436,-0.330935252,1,0,0,,0,108,108,157,1,INLER,HB,old,z,./images/INLERHB.png,,,,,,,,,,,,,,,,,,,,,,,,,,,,,,,,,
,,,,,,,,,,,,,,,,,5fa1b1a4499be43137fba435,66,2022-02-12_12h41.21.364,lexical_decision_task_DD_L3,2021.2.3,MacIntel,166.6666667,,,,,,,,,,1.719,1,,,,,,,,,,,,,,,0,-0.305755396,-0.318944844,1,0,0,1.719,button_left_main,-0.305755396,-0.318944844,1,0,0,,0,109,109,99,1,BACKY,C,old,z,./images/BACKY.png,,,,,,,,,,,,,,,,,,,,,,,,,,,,,,,,,
,,,,,,,,,,,,,,,,,5fa1b1a4499be43137fba435,66,2022-02-12_12h41.21.364,lexical_decision_task_DD_L3,2021.2.3,MacIntel,166.6666667,,,,,,,,,,0.902,1,,,,,,,,,,,,,,,0,0.320143885,-0.29616307,1,0,0,0.902,button_right_main,0.320143885,-0.29616307,1,0,0,,0,110,110,34,1,CANYON,C,old,m,./images/CANYON.png,,,,,,,,,,,,,,,,,,,,,,,,,,,,,,,,,
,,,,,,,,,,,,,,,,,5fa1b1a4499be43137fba435,66,2022-02-12_12h41.21.364,lexical_decision_task_DD_L3,2021.2.3,MacIntel,166.6666667,,,,,,,,,,0.85,1,,,,,,,,,,,,,,,0,0.326139089,-0.308153477,1,0,0,0.85,button_right_main,0.326139089,-0.308153477,1,0,0,,0,111,111,12,1,SHORE,LB,old,m,./images/SHORELB.png,,,,,,,,,,,,,,,,,,,,,,,,,,,,,,,,,
,,,,,,,,,,,,,,,,,5fa1b1a4499be43137fba435,66,2022-02-12_12h41.21.364,lexical_decision_task_DD_L3,2021.2.3,MacIntel,166.6666667,,,,,,,,,,1.819,1,,,,,,,,,,,,,,,0,-0.330935252,-0.321342926,1,0,0,1.819,button_left_main,-0.330935252,-0.321342926,1,0,0,,0,112,112,88,1,GLUSH,HB,old,z,./images/GLUSHHB.png,,,,,,,,,,,,,,,,,,,,,,,,,,,,,,,,,
,,,,,,,,,,,,,,,,,5fa1b1a4499be43137fba435,66,2022-02-12_12h41.21.364,lexical_decision_task_DD_L3,2021.2.3,MacIntel,166.6666667,,,,,,,,,,0.885,1,,,,,,,,,,,,,,,0,0.335731415,-0.308153477,1,0,0,0.885,button_right_main,0.335731415,-0.308153477,1,0,0,,0,113,113,55,1,MUFFIN,C,old,m,./images/MUFFIN.png,,,,,,,,,,,,,,,,,,,,,,,,,,,,,,,,,
,,,,,,,,,,,,,,,,,5fa1b1a4499be43137fba435,66,2022-02-12_12h41.21.364,lexical_decision_task_DD_L3,2021.2.3,MacIntel,166.6666667,,,,,,,,,,0.893,1,,,,,,,,,,,,,,,0,0.348920863,-0.3117506,1,0,0,0.893,button_right_main,0.348920863,-0.3117506,1,0,0,,0,114,114,58,1,BABOON,C,old,m,./images/BABOON.png,,,,,,,,,,,,,,,,,,,,,,,,,,,,,,,,,
,,,,,,,,,,,,,,,,,5fa1b1a4499be43137fba435,66,2022-02-12_12h41.21.364,lexical_decision_task_DD_L3,2021.2.3,MacIntel,166.6666667,,,,,,,,,,1.001,1,,,,,,,,,,,,,,,0,0.347721823,-0.314148681,1,0,0,1.001,button_right_main,0.347721823,-0.314148681,1,0,0,,0,115,115,54,1,TRIPOD,LB,old,m,./images/TRIPODLB.png,,,,,,,,,,,,,,,,,,,,,,,,,,,,,,,,,
,,,,,,,,,,,,,,,,,5fa1b1a4499be43137fba435,66,2022-02-12_12h41.21.364,lexical_decision_task_DD_L3,2021.2.3,MacIntel,166.6666667,,,,,,,,,,0.81,1,,,,,,,,,,,,,,,0,0.352517986,-0.318944844,1,0,0,0.81,button_right_main,0.352517986,-0.318944844,1,0,0,,0,116,116,67,1,SAILOR,C,old,m,./images/SAILOR.png,,,,,,,,,,,,,,,,,,,,,,,,,,,,,,,,,
,,,,,,,,,,,,,,,,,5fa1b1a4499be43137fba435,66,2022-02-12_12h41.21.364,lexical_decision_task_DD_L3,2021.2.3,MacIntel,166.6666667,,,,,,,,,,2.26,1,,,,,,,,,,,,,,,0,0.340527578,-0.290167866,1,0,0,2.26,button_right_main,0.340527578,-0.290167866,1,0,0,,0,117,117,47,1,BERRY,HB,old,m,./images/BERRYHB.png,,,,,,,,,,,,,,,,,,,,,,,,,,,,,,,,,
,,,,,,,,,,,,,,,,,5fa1b1a4499be43137fba435,66,2022-02-12_12h41.21.364,lexical_decision_task_DD_L3,2021.2.3,MacIntel,166.6666667,,,,,,,,,,1.536,1,,,,,,,,,,,,,,,0,-0.317745803,-0.317745803,1,0,0,1.536,button_left_main,-0.317745803,-0.317745803,1,0,0,,0,118,118,103,1,FLORT,HB,old,z,./images/FLORTHB.png,,,,,,,,,,,,,,,,,,,,,,,,,,,,,,,,,
,,,,,,,,,,,,,,,,,5fa1b1a4499be43137fba435,66,2022-02-12_12h41.21.364,lexical_decision_task_DD_L3,2021.2.3,MacIntel,166.6666667,,,,,,,,,,1.193,0,,,,,,,,,,,,,,,0,0.329736211,-0.288968825,1,0,0,1.193,button_right_main,0.329736211,-0.288968825,1,0,0,,0,119,119,165,1,TROWN,C,old,z,./images/TROWN.png,,,,,,,,,,,,,,,,,,,,,,,,,,,,,,,,,
,,,,,,,,,,,,,,,,,5fa1b1a4499be43137fba435,66,2022-02-12_12h41.21.364,lexical_decision_task_DD_L3,2021.2.3,MacIntel,166.6666667,,,,,,,,,,0.793,1,,,,,,,,,,,,,,,0,0.35971223,-0.302158273,1,0,0,0.793,button_right_main,0.35971223,-0.302158273,1,0,0,,0,120,120,22,1,MELON,C,old,m,./images/MELON.png,,,,,,,,,,,,,,,,,,,,,,,,,,,,,,,,,
,,,,,,,,,,,,,,,,,5fa1b1a4499be43137fba435,66,2022-02-12_12h41.21.364,lexical_decision_task_DD_L3,2021.2.3,MacIntel,166.6666667,,,,,,,,,,1.12,1,,,,,,,,,,,,,,,0,0.358513189,-0.303357314,1,0,0,1.12,button_right_main,0.358513189,-0.303357314,1,0,0,,0,121,121,72,1,NOOSE,LB,old,m,./images/NOOSELB.png,,,,,,,,,,,,,,,,,,,,,,,,,,,,,,,,,
,,,,,,,,,,,,,,,,,5fa1b1a4499be43137fba435,66,2022-02-12_12h41.21.364,lexical_decision_task_DD_L3,2021.2.3,MacIntel,166.6666667,,,,,,,,,,0.771,1,,,,,,,,,,,,,,,0,0.358513189,-0.31294964,1,0,0,0.771,button_right_main,0.358513189,-0.31294964,1,0,0,,0,122,122,66,1,SWEAT,LB,old,m,./images/SWEATLB.png,,,,,,,,,,,,,,,,,,,,,,,,,,,,,,,,,
,,,,,,,,,,,,,,,,,5fa1b1a4499be43137fba435,66,2022-02-12_12h41.21.364,lexical_decision_task_DD_L3,2021.2.3,MacIntel,166.6666667,,,,,,,,,,1.577,1,,,,,,,,,,,,,,,0,0.335731415,-0.278177458,1,0,0,1.577,button_right_main,0.335731415,-0.278177458,1,0,0,,0,123,123,74,1,CEMENT,HB,old,m,./images/CEMENTHB.png,,,,,,,,,,,,,,,,,,,,,,,,,,,,,,,,,
,,,,,,,,,,,,,,,,,5fa1b1a4499be43137fba435,66,2022-02-12_12h41.21.364,lexical_decision_task_DD_L3,2021.2.3,MacIntel,166.6666667,,,,,,,,,,0.801,1,,,,,,,,,,,,,,,0,0.350119904,-0.308153477,1,0,0,0.801,button_right_main,0.350119904,-0.308153477,1,0,0,,0,124,124,10,1,BELLY,C,old,m,./images/BELLY.png,,,,,,,,,,,,,,,,,,,,,,,,,,,,,,,,,
,,,,,,,,,,,,,,,,,5fa1b1a4499be43137fba435,66,2022-02-12_12h41.21.364,lexical_decision_task_DD_L3,2021.2.3,MacIntel,166.6666667,,,,,,,,,,2.27,1,,,,,,,,,,,,,,,0,-0.317745803,-0.299760192,1,0,0,2.27,button_left_main,0.082733813,-0.408872902,1,0,0,,0,125,125,94,1,BLANS,HB,old,z,./images/BLANSHB.png,break_done_button,,,,,,,,,,,,,,,,,,,,,,,,,,,,,,,,
,,,,,,,,,,,,,,,,,5fa1b1a4499be43137fba435,66,2022-02-12_12h41.21.364,lexical_decision_task_DD_L3,2021.2.3,MacIntel,166.6666667,,,,,,,,,,1.684,1,,,,,,,,,,,,,,,0,-0.268585132,-0.314148681,1,0,0,1.684,button_left_main,-0.268585132,-0.314148681,1,0,0,,0,126,126,154,1,THINT,HB,old,z,./images/THINTHB.png,,,,,,,,,,,,,,,,,,,,,,,,,,,,,,,,,
,,,,,,,,,,,,,,,,,5fa1b1a4499be43137fba435,66,2022-02-12_12h41.21.364,lexical_decision_task_DD_L3,2021.2.3,MacIntel,166.6666667,,,,,,,,,,0.937,1,,,,,,,,,,,,,,,0,0.329736211,-0.320143885,1,0,0,0.937,button_right_main,0.329736211,-0.320143885,1,0,0,,0,127,127,32,1,BARREL,HB,old,m,./images/BARRELHB.png,,,,,,,,,,,,,,,,,,,,,,,,,,,,,,,,,
,,,,,,,,,,,,,,,,,5fa1b1a4499be43137fba435,66,2022-02-12_12h41.21.364,lexical_decision_task_DD_L3,2021.2.3,MacIntel,166.6666667,,,,,,,,,,1.219,1,,,,,,,,,,,,,,,0,-0.257793765,-0.326139089,1,0,0,1.219,button_left_main,-0.257793765,-0.326139089,1,0,0,,0,128,128,137,1,JOOST,LB,old,z,./images/JOOSTLB.png,,,,,,,,,,,,,,,,,,,,,,,,,,,,,,,,,
,,,,,,,,,,,,,,,,,5fa1b1a4499be43137fba435,66,2022-02-12_12h41.21.364,lexical_decision_task_DD_L3,2021.2.3,MacIntel,166.6666667,,,,,,,,,,0.751,1,,,,,,,,,,,,,,,0,0.348920863,-0.302158273,1,0,0,0.751,button_right_main,0.348920863,-0.302158273,1,0,0,,0,129,129,4,1,MUSCLE,C,old,m,./images/MUSCLE.png,,,,,,,,,,,,,,,,,,,,,,,,,,,,,,,,,
,,,,,,,,,,,,,,,,,5fa1b1a4499be43137fba435,66,2022-02-12_12h41.21.364,lexical_decision_task_DD_L3,2021.2.3,MacIntel,166.6666667,,,,,,,,,,1.386,1,,,,,,,,,,,,,,,0,-0.315347722,-0.338129496,1,0,0,1.386,button_left_main,-0.315347722,-0.338129496,1,0,0,,0,130,130,112,1,MYING,HB,old,z,./images/MYINGHB.png,,,,,,,,,,,,,,,,,,,,,,,,,,,,,,,,,
,,,,,,,,,,,,,,,,,5fa1b1a4499be43137fba435,66,2022-02-12_12h41.21.364,lexical_decision_task_DD_L3,2021.2.3,MacIntel,166.6666667,,,,,,,,,,1.821,1,,,,,,,,,,,,,,,0,-0.293764988,-0.32853717,1,0,0,1.821,button_left_main,-0.293764988,-0.32853717,1,0,0,,0,131,131,124,1,TUNCH,HB,old,z,./images/TUNCHHB.png,,,,,,,,,,,,,,,,,,,,,,,,,,,,,,,,,
,,,,,,,,,,,,,,,,,5fa1b1a4499be43137fba435,66,2022-02-12_12h41.21.364,lexical_decision_task_DD_L3,2021.2.3,MacIntel,166.6666667,,,,,,,,,,0.919,1,,,,,,,,,,,,,,,0,0.368105516,-0.299760192,1,0,0,0.919,button_right_main,0.368105516,-0.299760192,1,0,0,,0,132,132,33,1,MAGGOT,LB,old,m,./images/MAGGOTLB.png,,,,,,,,,,,,,,,,,,,,,,,,,,,,,,,,,
,,,,,,,,,,,,,,,,,5fa1b1a4499be43137fba435,66,2022-02-12_12h41.21.364,lexical_decision_task_DD_L3,2021.2.3,MacIntel,166.6666667,,,,,,,,,,1.237,1,,,,,,,,,,,,,,,0,-0.300959233,-0.329736211,1,0,0,1.237,button_left_main,-0.300959233,-0.329736211,1,0,0,,0,133,133,149,1,VEASE,LB,old,z,./images/VEASELB.png,,,,,,,,,,,,,,,,,,,,,,,,,,,,,,,,,
,,,,,,,,,,,,,,,,,5fa1b1a4499be43137fba435,66,2022-02-12_12h41.21.364,lexical_decision_task_DD_L3,2021.2.3,MacIntel,166.6666667,,,,,,,,,,0.86,1,,,,,,,,,,,,,,,0,0.358513189,-0.286570743,1,0,0,0.86,button_right_main,0.358513189,-0.286570743,1,0,0,,0,134,134,18,1,JAGUAR,LB,old,m,./images/JAGUARLB.png,,,,,,,,,,,,,,,,,,,,,,,,,,,,,,,,,
,,,,,,,,,,,,,,,,,5fa1b1a4499be43137fba435,66,2022-02-12_12h41.21.364,lexical_decision_task_DD_L3,2021.2.3,MacIntel,166.6666667,,,,,,,,,,1.145,1,,,,,,,,,,,,,,,0,-0.306954436,-0.317745803,1,0,0,1.145,button_left_main,-0.306954436,-0.317745803,1,0,0,,0,135,135,143,1,MONGS,LB,old,z,./images/MONGSLB.png,,,,,,,,,,,,,,,,,,,,,,,,,,,,,,,,,
,,,,,,,,,,,,,,,,,5fa1b1a4499be43137fba435,66,2022-02-12_12h41.21.364,lexical_decision_task_DD_L3,2021.2.3,MacIntel,166.6666667,,,,,,,,,,1.086,1,,,,,,,,,,,,,,,0,-0.324940048,-0.324940048,1,0,0,1.086,button_left_main,-0.324940048,-0.324940048,1,0,0,,0,136,136,117,1,STEEG,C,old,z,./images/STEEG.png,,,,,,,,,,,,,,,,,,,,,,,,,,,,,,,,,
,,,,,,,,,,,,,,,,,5fa1b1a4499be43137fba435,66,2022-02-12_12h41.21.364,lexical_decision_task_DD_L3,2021.2.3,MacIntel,166.6666667,,,,,,,,,,1.052,1,,,,,,,,,,,,,,,0,0.372901679,-0.288968825,1,0,0,1.052,button_right_main,0.372901679,-0.288968825,1,0,0,,0,137,137,35,1,PEACH,HB,old,m,./images/PEACHHB.png,,,,,,,,,,,,,,,,,,,,,,,,,,,,,,,,,
,,,,,,,,,,,,,,,,,5fa1b1a4499be43137fba435,66,2022-02-12_12h41.21.364,lexical_decision_task_DD_L3,2021.2.3,MacIntel,166.6666667,,,,,,,,,,1.16,1,,,,,,,,,,,,,,,0,-0.28057554,-0.323741007,1,0,0,1.16,button_left_main,-0.28057554,-0.323741007,1,0,0,,0,138,138,138,1,PLICE,C,old,z,./images/PLICE.png,,,,,,,,,,,,,,,,,,,,,,,,,,,,,,,,,
,,,,,,,,,,,,,,,,,5fa1b1a4499be43137fba435,66,2022-02-12_12h41.21.364,lexical_decision_task_DD_L3,2021.2.3,MacIntel,166.6666667,,,,,,,,,,2.206,1,,,,,,,,,,,,,,,0,-0.31294964,-0.322541966,1,0,0,2.206,button_left_main,-0.31294964,-0.322541966,1,0,0,,0,139,139,163,1,GAMBA,HB,old,z,./images/GAMBAHB.png,,,,,,,,,,,,,,,,,,,,,,,,,,,,,,,,,
,,,,,,,,,,,,,,,,,5fa1b1a4499be43137fba435,66,2022-02-12_12h41.21.364,lexical_decision_task_DD_L3,2021.2.3,MacIntel,166.6666667,,,,,,,,,,1.069,1,,,,,,,,,,,,,,,0,-0.290167866,-0.318944844,1,0,0,1.069,button_left_main,-0.290167866,-0.318944844,1,0,0,,0,140,140,96,1,KEAMS,C,old,z,./images/KEAMS.png,,,,,,,,,,,,,,,,,,,,,,,,,,,,,,,,,
,,,,,,,,,,,,,,,,,5fa1b1a4499be43137fba435,66,2022-02-12_12h41.21.364,lexical_decision_task_DD_L3,2021.2.3,MacIntel,166.6666667,,,,,,,,,,0.927,1,,,,,,,,,,,,,,,0,0.346522782,-0.3117506,1,0,0,0.927,button_right_main,0.346522782,-0.3117506,1,0,0,,0,141,141,78,1,LITTER,LB,old,m,./images/LITTERLB.png,,,,,,,,,,,,,,,,,,,,,,,,,,,,,,,,,
,,,,,,,,,,,,,,,,,5fa1b1a4499be43137fba435,66,2022-02-12_12h41.21.364,lexical_decision_task_DD_L3,2021.2.3,MacIntel,166.6666667,,,,,,,,,,1.077,1,,,,,,,,,,,,,,,0,0.366906475,-0.29736211,1,0,0,1.077,button_right_main,0.366906475,-0.29736211,1,0,0,,0,142,142,68,1,TORCH,HB,old,m,./images/TORCHHB.png,,,,,,,,,,,,,,,,,,,,,,,,,,,,,,,,,
,,,,,,,,,,,,,,,,,5fa1b1a4499be43137fba435,66,2022-02-12_12h41.21.364,lexical_decision_task_DD_L3,2021.2.3,MacIntel,166.6666667,,,,,,,,,,1.09,1,,,,,,,,,,,,,,,0,-0.368105516,-0.353717026,1,0,0,1.09,button_left_main,-0.368105516,-0.353717026,1,0,0,,0,143,143,105,1,MOKER,C,old,z,./images/MOKER.png,,,,,,,,,,,,,,,,,,,,,,,,,,,,,,,,,
,,,,,,,,,,,,,,,,,5fa1b1a4499be43137fba435,66,2022-02-12_12h41.21.364,lexical_decision_task_DD_L3,2021.2.3,MacIntel,166.6666667,,,,,,,,,,1.261,1,,,,,,,,,,,,,,,0,-0.29736211,-0.304556355,1,0,0,1.261,button_left_main,-0.29736211,-0.304556355,1,0,0,,0,144,144,108,1,GRUET,C,old,z,./images/GRUET.png,,,,,,,,,,,,,,,,,,,,,,,,,,,,,,,,,
,,,,,,,,,,,,,,,,,5fa1b1a4499be43137fba435,66,2022-02-12_12h41.21.364,lexical_decision_task_DD_L3,2021.2.3,MacIntel,166.6666667,,,,,,,,,,1.428,1,,,,,,,,,,,,,,,0,-0.315347722,-0.299760192,1,0,0,1.428,button_left_main,-0.315347722,-0.299760192,1,0,0,,0,145,145,128,1,GRIFT,LB,old,z,./images/GRIFTLB.png,,,,,,,,,,,,,,,,,,,,,,,,,,,,,,,,,
,,,,,,,,,,,,,,,,,5fa1b1a4499be43137fba435,66,2022-02-12_12h41.21.364,lexical_decision_task_DD_L3,2021.2.3,MacIntel,166.6666667,,,,,,,,,,1.335,0,,,,,,,,,,,,,,,0,0.31294964,-0.28177458,1,0,0,1.335,button_right_main,0.31294964,-0.28177458,1,0,0,,0,146,146,109,1,BURGE,HB,old,z,./images/BURGEHB.png,,,,,,,,,,,,,,,,,,,,,,,,,,,,,,,,,
,,,,,,,,,,,,,,,,,5fa1b1a4499be43137fba435,66,2022-02-12_12h41.21.364,lexical_decision_task_DD_L3,2021.2.3,MacIntel,166.6666667,,,,,,,,,,1.319,1,,,,,,,,,,,,,,,0,-0.286570743,-0.322541966,1,0,0,1.319,button_left_main,-0.286570743,-0.322541966,1,0,0,,0,147,147,129,1,PRANS,C,old,z,./images/PRANS.png,,,,,,,,,,,,,,,,,,,,,,,,,,,,,,,,,
,,,,,,,,,,,,,,,,,5fa1b1a4499be43137fba435,66,2022-02-12_12h41.21.364,lexical_decision_task_DD_L3,2021.2.3,MacIntel,166.6666667,,,,,,,,,,0.859,1,,,,,,,,,,,,,,,0,0.333333333,-0.267386091,1,0,0,0.859,button_right_main,0.333333333,-0.267386091,1,0,0,,0,148,148,49,1,DRUMS,C,old,m,./images/DRUMS.png,,,,,,,,,,,,,,,,,,,,,,,,,,,,,,,,,
,,,,,,,,,,,,,,,,,5fa1b1a4499be43137fba435,66,2022-02-12_12h41.21.364,lexical_decision_task_DD_L3,2021.2.3,MacIntel,166.6666667,,,,,,,,,,0.885,1,,,,,,,,,,,,,,,0,0.315347722,-0.28057554,1,0,0,0.885,button_right_main,0.315347722,-0.28057554,1,0,0,,0,149,149,82,1,SUNSET,C,old,m,./images/SUNSET.png,,,,,,,,,,,,,,,,,,,,,,,,,,,,,,,,,
,,,,,,,,,,,,,,,,,5fa1b1a4499be43137fba435,66,2022-02-12_12h41.21.364,lexical_decision_task_DD_L3,2021.2.3,MacIntel,166.6666667,,,,,,,,,,0.893,1,,,,,,,,,,,,,,,0,0.324940048,-0.310551559,1,0,0,0.893,button_right_main,0.324940048,-0.310551559,1,0,0,,0,150,150,70,1,URINE,C,old,m,./images/URINE.png,,,,,,,,,,,,,,,,,,,,,,,,,,,,,,,,,
,,,,,,,,,,,,,,,,,5fa1b1a4499be43137fba435,66,2022-02-12_12h41.21.364,lexical_decision_task_DD_L3,2021.2.3,MacIntel,166.6666667,,,,,,,,,,1.55,1,,,,,,,,,,,,,,,0,0.340527578,-0.29736211,1,0,0,1.55,button_right_main,0.340527578,-0.29736211,1,0,0,,0,151,151,38,1,LADDER,HB,old,m,./images/LADDERHB.png,,,,,,,,,,,,,,,,,,,,,,,,,,,,,,,,,
,,,,,,,,,,,,,,,,,5fa1b1a4499be43137fba435,66,2022-02-12_12h41.21.364,lexical_decision_task_DD_L3,2021.2.3,MacIntel,166.6666667,,,,,,,,,,1.319,1,,,,,,,,,,,,,,,0,0.320143885,-0.29736211,1,0,0,1.319,button_right_main,0.320143885,-0.29736211,1,0,0,,0,152,152,41,1,STRING,HB,old,m,./images/STRINGHB.png,,,,,,,,,,,,,,,,,,,,,,,,,,,,,,,,,
,,,,,,,,,,,,,,,,,5fa1b1a4499be43137fba435,66,2022-02-12_12h41.21.364,lexical_decision_task_DD_L3,2021.2.3,MacIntel,166.6666667,,,,,,,,,,0.785,1,,,,,,,,,,,,,,,0,0.354916067,-0.287769784,1,0,0,0.785,button_right_main,0.354916067,-0.287769784,1,0,0,,0,153,153,7,1,PAINT,C,old,m,./images/PAINT.png,,,,,,,,,,,,,,,,,,,,,,,,,,,,,,,,,
,,,,,,,,,,,,,,,,,5fa1b1a4499be43137fba435,66,2022-02-12_12h41.21.364,lexical_decision_task_DD_L3,2021.2.3,MacIntel,166.6666667,,,,,,,,,,1.293,1,,,,,,,,,,,,,,,0,-0.305755396,-0.284172662,1,0,0,1.293,button_left_main,-0.305755396,-0.284172662,1,0,0,,0,154,154,161,1,BLAPS,LB,old,z,./images/BLAPSLB.png,,,,,,,,,,,,,,,,,,,,,,,,,,,,,,,,,
,,,,,,,,,,,,,,,,,5fa1b1a4499be43137fba435,66,2022-02-12_12h41.21.364,lexical_decision_task_DD_L3,2021.2.3,MacIntel,166.6666667,,,,,,,,,,1.045,1,,,,,,,,,,,,,,,0,0.353717026,-0.26618705,1,0,0,1.045,button_right_main,0.353717026,-0.26618705,1,0,0,,0,155,155,5,1,PASTA,HB,old,m,./images/PASTAHB.png,,,,,,,,,,,,,,,,,,,,,,,,,,,,,,,,,
,,,,,,,,,,,,,,,,,5fa1b1a4499be43137fba435,66,2022-02-12_12h41.21.364,lexical_decision_task_DD_L3,2021.2.3,MacIntel,166.6666667,,,,,,,,,,1.236,1,,,,,,,,,,,,,,,0,-0.323741007,-0.335731415,1,0,0,1.236,button_left_main,-0.323741007,-0.335731415,1,0,0,,0,156,156,155,1,CANGY,LB,old,z,./images/CANGYLB.png,,,,,,,,,,,,,,,,,,,,,,,,,,,,,,,,,
,,,,,,,,,,,,,,,,,5fa1b1a4499be43137fba435,66,2022-02-12_12h41.21.364,lexical_decision_task_DD_L3,2021.2.3,MacIntel,166.6666667,,,,,,,,,,1.135,1,,,,,,,,,,,,,,,0,-0.286570743,-0.304556355,1,0,0,1.135,button_left_main,-0.286570743,-0.304556355,1,0,0,,0,157,157,123,1,SEDGE,C,old,z,./images/SEDGE.png,,,,,,,,,,,,,,,,,,,,,,,,,,,,,,,,,
,,,,,,,,,,,,,,,,,5fa1b1a4499be43137fba435,66,2022-02-12_12h41.21.364,lexical_decision_task_DD_L3,2021.2.3,MacIntel,166.6666667,,,,,,,,,,1.427,1,,,,,,,,,,,,,,,0,0.318944844,-0.291366906,1,0,0,1.427,button_right_main,0.318944844,-0.291366906,1,0,0,,0,158,158,26,1,SMOKER,HB,old,m,./images/SMOKERHB.png,,,,,,,,,,,,,,,,,,,,,,,,,,,,,,,,,
,,,,,,,,,,,,,,,,,5fa1b1a4499be43137fba435,66,2022-02-12_12h41.21.364,lexical_decision_task_DD_L3,2021.2.3,MacIntel,166.6666667,,,,,,,,,,0.883,1,,,,,,,,,,,,,,,0,0.340527578,-0.290167866,1,0,0,0.883,button_right_main,0.340527578,-0.290167866,1,0,0,,0,159,159,27,1,ATTIC,LB,old,m,./images/ATTICLB.png,,,,,,,,,,,,,,,,,,,,,,,,,,,,,,,,,
,,,,,,,,,,,,,,,,,5fa1b1a4499be43137fba435,66,2022-02-12_12h41.21.364,lexical_decision_task_DD_L3,2021.2.3,MacIntel,166.6666667,,,,,,,,,,0.933,1,,,,,,,,,,,,,,,0,0.348920863,-0.287769784,1,0,0,0.933,button_right_main,0.348920863,-0.287769784,1,0,0,,0,160,160,6,1,SQUARE,LB,old,m,./images/SQUARELB.png,,,,,,,,,,,,,,,,,,,,,,,,,,,,,,,,,
,,,,,,,,,,,,,,,,,5fa1b1a4499be43137fba435,66,2022-02-12_12h41.21.364,lexical_decision_task_DD_L3,2021.2.3,MacIntel,166.6666667,,,,,,,,,,2.969,1,,,,,,,,,,,,,,,0,0.342925659,-0.317745803,1,0,0,2.969,button_right_main,0.342925659,-0.317745803,1,0,0,,0,161,161,71,1,PIMPLE,HB,old,m,./images/PIMPLEHB.png,,,,,,,,,,,,,,,,,,,,,,,,,,,,,,,,,
,,,,,,,,,,,,,,,,,5fa1b1a4499be43137fba435,66,2022-02-12_12h41.21.364,lexical_decision_task_DD_L3,2021.2.3,MacIntel,166.6666667,,,,,,,,,,2.185,1,,,,,,,,,,,,,,,0,-0.293764988,-0.306954436,1,0,0,2.185,button_left_main,-0.293764988,-0.306954436,1,0,0,,0,162,162,91,1,SHENS,HB,old,z,./images/SHENSHB.png,,,,,,,,,,,,,,,,,,,,,,,,,,,,,,,,,
,,,,,,,,,,,,,,,,,5fa1b1a4499be43137fba435,66,2022-02-12_12h41.21.364,lexical_decision_task_DD_L3,2021.2.3,MacIntel,166.6666667,,,,,,,,,,1.836,1,,,,,,,,,,,,,,,0,-0.309352518,-0.29736211,1,0,0,1.836,button_left_main,-0.309352518,-0.29736211,1,0,0,,0,163,163,97,1,CHIDS,HB,old,z,./images/CHIDSHB.png,,,,,,,,,,,,,,,,,,,,,,,,,,,,,,,,,
,,,,,,,,,,,,,,,,,5fa1b1a4499be43137fba435,66,2022-02-12_12h41.21.364,lexical_decision_task_DD_L3,2021.2.3,MacIntel,166.6666667,,,,,,,,,,2.227,1,,,,,,,,,,,,,,,0,-0.272182254,-0.292565947,1,0,0,2.227,button_left_main,-0.272182254,-0.292565947,1,0,0,,0,164,164,142,1,PLASK,HB,old,z,./images/PLASKHB.png,,,,,,,,,,,,,,,,,,,,,,,,,,,,,,,,,
,,,,,,,,,,,,,,,,,5fa1b1a4499be43137fba435,66,2022-02-12_12h41.21.364,lexical_decision_task_DD_L3,2021.2.3,MacIntel,166.6666667,,,,,,,,,,1.401,1,,,,,,,,,,,,,,,0,-0.263788969,-0.31294964,1,0,0,1.401,button_left_main,-0.263788969,-0.31294964,1,0,0,,0,165,165,118,1,BAVEL,HB,old,z,./images/BAVELHB.png,,,,,,,,,,,,,,,,,,,,,,,,,,,,,,,,,
,,,,,,,,,,,,,,,,,5fa1b1a4499be43137fba435,66,2022-02-12_12h41.21.364,lexical_decision_task_DD_L3,2021.2.3,MacIntel,166.6666667,,,,,,,,,,1.293,1,,,,,,,,,,,,,,,0,-0.300959233,-0.323741007,1,0,0,1.293,button_left_main,-0.300959233,-0.323741007,1,0,0,,0,166,166,114,1,RIKES,C,old,z,./images/RIKES.png,,,,,,,,,,,,,,,,,,,,,,,,,,,,,,,,,
,,,,,,,,,,,,,,,,,5fa1b1a4499be43137fba435,66,2022-02-12_12h41.21.364,lexical_decision_task_DD_L3,2021.2.3,MacIntel,166.6666667,,,,,,,,,,0.894,1,,,,,,,,,,,,,,,0,0.360911271,-0.299760192,1,0,0,0.894,button_right_main,0.360911271,-0.299760192,1,0,0,,0,167,167,75,1,GRAIN,LB,old,m,./images/GRAINLB.png,,,,,,,,,,,,,,,,,,,,,,,,,,,,,,,,,
,,,,,,,,,,,,,,,,,5fa1b1a4499be43137fba435,66,2022-02-12_12h41.21.364,lexical_decision_task_DD_L3,2021.2.3,MacIntel,166.6666667,,,,,,,,,,,,,,,,,,,,,,,,,,,,,,,,,,,,,,,,,,,,,,How likely will it be that you will recognize the words presented slighly blurred on a scale of 0 (not likely) to 100 (most likely)?,,,,,-0.01558753,-0.419664269,1,0,0,jol_adv,4,8.29,0,0,0,1,1,,,,,,,,,,,,,,,,,,,
,,,,,,,,,,,,,,,,,5fa1b1a4499be43137fba435,66,2022-02-12_12h41.21.364,lexical_decision_task_DD_L3,2021.2.3,MacIntel,166.6666667,,,,,,,,,,,,,,,,,,,,,,,,,,,,,,,,,,,,,,,,,,,,,,How likely will it be that you will recognize the words presented very blurred on a scale of 0 (not likely) to 100 (most likely)?,,,,,,,,,,,3,5.435,0,1,1,2,1,,,,,,,,,,,,,,,,,,,
,,,,,,,,,,,,,,,,,5fa1b1a4499be43137fba435,66,2022-02-12_12h41.21.364,lexical_decision_task_DD_L3,2021.2.3,MacIntel,166.6666667,,,,,,,,,,,,,,,,,,,,,,,,,,,,,,,,,,,,,,,,,,,,,,How likely will it be that you will recognize the words presented clearly on a scale of 0 (not likely) to 100 (most likely)?,,,,,,,,,,,5,8.13,0,2,2,0,1,,,,,,,,,,,,,,,,,,,
,0.089928058,-0.395683453,1,0,0,instr_done_button,,,,,,1,test,"In the next phase you will be presented with the words from the the first phase. Your job is to decide whether you remember seeing the word or not. If you remember seeing the word press ""old"" or type ""m"". If you do not remember seeing the word press ""new"" or type ""z"". Please press the space bar or click on continue to begin. ",,,5fa1b1a4499be43137fba435,66,2022-02-12_12h41.21.364,lexical_decision_task_DD_L3,2021.2.3,MacIntel,166.6666667,,,,,,,,,,,,,,,,,,,,,,,,,,,,,,,,,,,,,,,,,,,,,,,,,,,,,,,,,,,,,,,,0,0,0,0,1,,,,,,,,,,,,,,
,0.013189448,-0.389688249,1,0,0,instr_done_button,,,,,,1,test,"In the next phase you will be presented with the words from the the first phase. Your job is to decide whether you remember seeing the word or not. If you remember seeing the word press ""old"" or type ""m"". If you do not remember seeing the word press ""new"" or type ""z"". Please press the space bar or click on continue to begin. ",,,5fa1b1a4499be43137fba435,66,2022-02-12_12h41.21.364,lexical_decision_task_DD_L3,2021.2.3,MacIntel,166.6666667,,,,,,,,,,,,,,,,,,,,,,,,,,,,,,,,,,,,,,,,,,,,,,,,,,,,,,,,,,,,,,,,1,0,1,0,1,,,,,,,,,,,,,,
,0.045563549,-0.394484412,1,0,0,instr_done_button,,,,,,1,test,"In the next phase you will be presented with the words from the the first phase. Your job is to decide whether you remember seeing the word or not. If you remember seeing the word press ""old"" or type ""m"". If you do not remember seeing the word press ""new"" or type ""z"". Please press the space bar or click on continue to begin. ",,,5fa1b1a4499be43137fba435,66,2022-02-12_12h41.21.364,lexical_decision_task_DD_L3,2021.2.3,MacIntel,166.6666667,,,,,,,,,,,,,,,,,,,,,,,,,,,,,,,,,,,,,,,,,,,,,,,,,,,,,,,,,,,,,,,,2,0,2,0,1,,,,,,,,,,,,,,
,0.082733813,-0.382494005,1,0,0,instr_done_button,,,,,,1,test,"In the next phase you will be presented with the words from the the first phase. Your job is to decide whether you remember seeing the word or not. If you remember seeing the word press ""old"" or type ""m"". If you do not remember seeing the word press ""new"" or type ""z"". Please press the space bar or click on continue to begin. ",,,5fa1b1a4499be43137fba435,66,2022-02-12_12h41.21.364,lexical_decision_task_DD_L3,2021.2.3,MacIntel,166.6666667,,,,,,,,,,,,,,,,,,,,,,,,,,,,,,,,,,,,,,,,,,,,,,,,,,,,,,,,,,,,,,,,3,0,3,0,1,,,,,,,,,,,,,,
,0.110311751,-0.372901679,1,0,0,instr_done_button,,,,,,1,test,"In the next phase you will be presented with the words from the the first phase. Your job is to decide whether you remember seeing the word or not. If you remember seeing the word press ""old"" or type ""m"". If you do not remember seeing the word press ""new"" or type ""z"". Please press the space bar or click on continue to begin. ",,,5fa1b1a4499be43137fba435,66,2022-02-12_12h41.21.364,lexical_decision_task_DD_L3,2021.2.3,MacIntel,166.6666667,,,,,,,,,,,,,,,,,,,,,,,,,,,,,,,,,,,,,,,,,,,,,,,,,,,,,,,,,,,,,,,,4,0,4,0,1,,,,,,,,,,,,,,
,,,,,,,,,,,,,,,,,5fa1b1a4499be43137fba435,66,2022-02-12_12h41.21.364,lexical_decision_task_DD_L3,2021.2.3,MacIntel,166.6666667,,,,,,,,,,2.612,1,,,,,,,,,,,,,,,,,,,,,,,-0.285371703,-0.332134293,1,0,0,,,,,,,LLAMA,HB,z,m,./images/LLAMAHB.png,,,,,,,,,,,,,,,,,,,,,0,-0.285371703,-0.332134293,1,0,0,2.612,button_left_test,0,0,0,119,1
,,,,,,,,,,,,,,,,,5fa1b1a4499be43137fba435,66,2022-02-12_12h41.21.364,lexical_decision_task_DD_L3,2021.2.3,MacIntel,166.6666667,,,,,,,,,,3.742,0,,,,,,,,,,,,,,,,,,,,,,,0.339328537,-0.300959233,1,0,0,,,,,,,CRATER,LB,z,m,./images/CRATERLB.png,,,,,,,,,,,,,,,,,,,,,0,0.339328537,-0.300959233,1,0,0,3.742,button_right_test,0,1,1,87,1
,,,,,,,,,,,,,,,,,5fa1b1a4499be43137fba435,66,2022-02-12_12h41.21.364,lexical_decision_task_DD_L3,2021.2.3,MacIntel,166.6666667,,,,,,,,,,0.934,1,,,,,,,,,,,,,,,,,,,,,,,0.351318945,-0.314148681,1,0,0,,,,,,,RHINO,LB,m,m,./images/RHINOLB.png,,,,,,,,,,,,,,,,,,,,,0,0.351318945,-0.314148681,1,0,0,0.934,button_right_test,0,2,2,9,1
,,,,,,,,,,,,,,,,,5fa1b1a4499be43137fba435,66,2022-02-12_12h41.21.364,lexical_decision_task_DD_L3,2021.2.3,MacIntel,166.6666667,,,,,,,,,,1.799,0,,,,,,,,,,,,,,,,,,,,,,,-0.302158273,-0.320143885,1,0,0,,,,,,,CEMENT,HB,m,m,./images/CEMENTHB.png,,,,,,,,,,,,,,,,,,,,,0,-0.302158273,-0.320143885,1,0,0,1.799,button_left_test,0,3,3,74,1
,,,,,,,,,,,,,,,,,5fa1b1a4499be43137fba435,66,2022-02-12_12h41.21.364,lexical_decision_task_DD_L3,2021.2.3,MacIntel,166.6666667,,,,,,,,,,1.927,1,,,,,,,,,,,,,,,,,,,,,,,0.321342926,-0.28177458,1,0,0,,,,,,,SHELF,LB,m,m,./images/SHELFLB.png,,,,,,,,,,,,,,,,,,,,,0,0.321342926,-0.28177458,1,0,0,1.927,button_right_test,0,4,4,39,1
,,,,,,,,,,,,,,,,,5fa1b1a4499be43137fba435,66,2022-02-12_12h41.21.364,lexical_decision_task_DD_L3,2021.2.3,MacIntel,166.6666667,,,,,,,,,,0.976,1,,,,,,,,,,,,,,,,,,,,,,,0.329736211,-0.276978417,1,0,0,,,,,,,BARREL,HB,m,m,./images/BARRELHB.png,,,,,,,,,,,,,,,,,,,,,0,0.329736211,-0.276978417,1,0,0,0.976,button_right_test,0,5,5,32,1
,,,,,,,,,,,,,,,,,5fa1b1a4499be43137fba435,66,2022-02-12_12h41.21.364,lexical_decision_task_DD_L3,2021.2.3,MacIntel,166.6666667,,,,,,,,,,1.077,1,,,,,,,,,,,,,,,,,,,,,,,0.320143885,-0.290167866,1,0,0,,,,,,,NOOSE,LB,m,m,./images/NOOSELB.png,,,,,,,,,,,,,,,,,,,,,0,0.320143885,-0.290167866,1,0,0,1.077,button_right_test,0,6,6,72,1
,,,,,,,,,,,,,,,,,5fa1b1a4499be43137fba435,66,2022-02-12_12h41.21.364,lexical_decision_task_DD_L3,2021.2.3,MacIntel,166.6666667,,,,,,,,,,0.793,1,,,,,,,,,,,,,,,,,,,,,,,0.332134293,-0.294964029,1,0,0,,,,,,,TWINS,LB,m,m,./images/TWINSLB.png,,,,,,,,,,,,,,,,,,,,,0,0.332134293,-0.294964029,1,0,0,0.793,button_right_test,0,7,7,60,1
,,,,,,,,,,,,,,,,,5fa1b1a4499be43137fba435,66,2022-02-12_12h41.21.364,lexical_decision_task_DD_L3,2021.2.3,MacIntel,166.6666667,,,,,,,,,,1.485,1,,,,,,,,,,,,,,,,,,,,,,,-0.339328537,-0.327338129,1,0,0,,,,,,,BOXER,C,z,m,./images/BOXER.png,,,,,,,,,,,,,,,,,,,,,0,-0.339328537,-0.327338129,1,0,0,1.485,button_left_test,0,8,8,88,1
,,,,,,,,,,,,,,,,,5fa1b1a4499be43137fba435,66,2022-02-12_12h41.21.364,lexical_decision_task_DD_L3,2021.2.3,MacIntel,166.6666667,,,,,,,,,,1.209,1,,,,,,,,,,,,,,,,,,,,,,,0.303357314,-0.279376499,1,0,0,,,,,,,LIZARD,HB,m,m,./images/LIZARDHB.png,,,,,,,,,,,,,,,,,,,,,0,0.303357314,-0.279376499,1,0,0,1.209,button_right_test,0,9,9,44,1
,,,,,,,,,,,,,,,,,5fa1b1a4499be43137fba435,66,2022-02-12_12h41.21.364,lexical_decision_task_DD_L3,2021.2.3,MacIntel,166.6666667,,,,,,,,,,0.857,1,,,,,,,,,,,,,,,,,,,,,,,0.329736211,-0.299760192,1,0,0,,,,,,,LADDER,HB,m,m,./images/LADDERHB.png,,,,,,,,,,,,,,,,,,,,,0,0.329736211,-0.299760192,1,0,0,0.857,button_right_test,0,10,10,38,1
,,,,,,,,,,,,,,,,,5fa1b1a4499be43137fba435,66,2022-02-12_12h41.21.364,lexical_decision_task_DD_L3,2021.2.3,MacIntel,166.6666667,,,,,,,,,,1.306,1,,,,,,,,,,,,,,,,,,,,,,,-0.338129496,-0.322541966,1,0,0,,,,,,,SPINE,HB,z,m,./images/SPINEHB.png,,,,,,,,,,,,,,,,,,,,,0,-0.338129496,-0.322541966,1,0,0,1.306,button_left_test,0,11,11,149,1
,,,,,,,,,,,,,,,,,5fa1b1a4499be43137fba435,66,2022-02-12_12h41.21.364,lexical_decision_task_DD_L3,2021.2.3,MacIntel,166.6666667,,,,,,,,,,1.291,1,,,,,,,,,,,,,,,,,,,,,,,-0.32853717,-0.324940048,1,0,0,,,,,,,CURRY,LB,z,m,./images/CURRYLB.png,,,,,,,,,,,,,,,,,,,,,0,-0.32853717,-0.324940048,1,0,0,1.291,button_left_test,0,12,12,144,1
,,,,,,,,,,,,,,,,,5fa1b1a4499be43137fba435,66,2022-02-12_12h41.21.364,lexical_decision_task_DD_L3,2021.2.3,MacIntel,166.6666667,,,,,,,,,,1.172,1,,,,,,,,,,,,,,,,,,,,,,,0.308153477,-0.287769784,1,0,0,,,,,,,CANYON,C,m,m,./images/CANYON.png,,,,,,,,,,,,,,,,,,,,,0,0.308153477,-0.287769784,1,0,0,1.172,button_right_test,0,13,13,34,1
,,,,,,,,,,,,,,,,,5fa1b1a4499be43137fba435,66,2022-02-12_12h41.21.364,lexical_decision_task_DD_L3,2021.2.3,MacIntel,166.6666667,,,,,,,,,,0.916,1,,,,,,,,,,,,,,,,,,,,,,,0.334532374,-0.303357314,1,0,0,,,,,,,SMOKER,HB,m,m,./images/SMOKERHB.png,,,,,,,,,,,,,,,,,,,,,0,0.334532374,-0.303357314,1,0,0,0.916,button_right_test,0,14,14,26,1
,,,,,,,,,,,,,,,,,5fa1b1a4499be43137fba435,66,2022-02-12_12h41.21.364,lexical_decision_task_DD_L3,2021.2.3,MacIntel,166.6666667,,,,,,,,,,1.143,1,,,,,,,,,,,,,,,,,,,,,,,0.300959233,-0.287769784,1,0,0,,,,,,,SWING,C,m,m,./images/SWING.png,,,,,,,,,,,,,,,,,,,,,0,0.300959233,-0.287769784,1,0,0,1.143,button_right_test,0,15,15,40,1
,,,,,,,,,,,,,,,,,5fa1b1a4499be43137fba435,66,2022-02-12_12h41.21.364,lexical_decision_task_DD_L3,2021.2.3,MacIntel,166.6666667,,,,,,,,,,1.177,1,,,,,,,,,,,,,,,,,,,,,,,0.284172662,-0.286570743,1,0,0,,,,,,,ATTIC,LB,m,m,./images/ATTICLB.png,,,,,,,,,,,,,,,,,,,,,0,0.284172662,-0.286570743,1,0,0,1.177,button_right_test,0,16,16,27,1
,,,,,,,,,,,,,,,,,5fa1b1a4499be43137fba435,66,2022-02-12_12h41.21.364,lexical_decision_task_DD_L3,2021.2.3,MacIntel,166.6666667,,,,,,,,,,1.433,1,,,,,,,,,,,,,,,,,,,,,,,0.3117506,-0.29736211,1,0,0,,,,,,,QUILL,C,m,m,./images/QUILL.png,,,,,,,,,,,,,,,,,,,,,0,0.3117506,-0.29736211,1,0,0,1.433,button_right_test,0,17,17,31,1
,,,,,,,,,,,,,,,,,5fa1b1a4499be43137fba435,66,2022-02-12_12h41.21.364,lexical_decision_task_DD_L3,2021.2.3,MacIntel,166.6666667,,,,,,,,,,1.022,1,,,,,,,,,,,,,,,,,,,,,,,0.3117506,-0.314148681,1,0,0,,,,,,,BERRY,HB,m,m,./images/BERRYHB.png,,,,,,,,,,,,,,,,,,,,,0,0.3117506,-0.314148681,1,0,0,1.022,button_right_test,0,18,18,47,1
,,,,,,,,,,,,,,,,,5fa1b1a4499be43137fba435,66,2022-02-12_12h41.21.364,lexical_decision_task_DD_L3,2021.2.3,MacIntel,166.6666667,,,,,,,,,,1.468,1,,,,,,,,,,,,,,,,,,,,,,,-0.317745803,-0.336930456,1,0,0,,,,,,,MEDAL,HB,z,m,./images/MEDALHB.png,,,,,,,,,,,,,,,,,,,,,0,-0.317745803,-0.336930456,1,0,0,1.468,button_left_test,0,19,19,95,1
,,,,,,,,,,,,,,,,,5fa1b1a4499be43137fba435,66,2022-02-12_12h41.21.364,lexical_decision_task_DD_L3,2021.2.3,MacIntel,166.6666667,,,,,,,,,,1.215,0,,,,,,,,,,,,,,,,,,,,,,,-0.318944844,-0.336930456,1,0,0,,,,,,,CRUMB,HB,m,m,./images/CRUMBHB.png,,,,,,,,,,,,,,,,,,,,,0,-0.318944844,-0.336930456,1,0,0,1.215,button_left_test,0,20,20,29,1
,,,,,,,,,,,,,,,,,5fa1b1a4499be43137fba435,66,2022-02-12_12h41.21.364,lexical_decision_task_DD_L3,2021.2.3,MacIntel,166.6666667,,,,,,,,,,1.035,1,,,,,,,,,,,,,,,,,,,,,,,0.327338129,-0.308153477,1,0,0,,,,,,,DRUMS,C,m,m,./images/DRUMS.png,,,,,,,,,,,,,,,,,,,,,0,0.327338129,-0.308153477,1,0,0,1.035,button_right_test,0,21,21,49,1
,,,,,,,,,,,,,,,,,5fa1b1a4499be43137fba435,66,2022-02-12_12h41.21.364,lexical_decision_task_DD_L3,2021.2.3,MacIntel,166.6666667,,,,,,,,,,1.009,0,,,,,,,,,,,,,,,,,,,,,,,0.306954436,-0.31294964,1,0,0,,,,,,,BAKER,LB,z,m,./images/BAKERLB.png,,,,,,,,,,,,,,,,,,,,,0,0.306954436,-0.31294964,1,0,0,1.009,button_right_test,0,22,22,147,1
,,,,,,,,,,,,,,,,,5fa1b1a4499be43137fba435,66,2022-02-12_12h41.21.364,lexical_decision_task_DD_L3,2021.2.3,MacIntel,166.6666667,,,,,,,,,,0.942,1,,,,,,,,,,,,,,,,,,,,,,,0.303357314,-0.29616307,1,0,0,,,,,,,TULIP,HB,m,m,./images/TULIPHB.png,,,,,,,,,,,,,,,,,,,,,0,0.303357314,-0.29616307,1,0,0,0.942,button_right_test,0,23,23,8,1
,,,,,,,,,,,,,,,,,5fa1b1a4499be43137fba435,66,2022-02-12_12h41.21.364,lexical_decision_task_DD_L3,2021.2.3,MacIntel,166.6666667,,,,,,,,,,1.135,1,,,,,,,,,,,,,,,,,,,,,,,-0.339328537,-0.346522782,1,0,0,,,,,,,SAUNA,LB,z,m,./images/SAUNALB.png,,,,,,,,,,,,,,,,,,,,,0,-0.339328537,-0.346522782,1,0,0,1.135,button_left_test,0,24,24,117,1
,,,,,,,,,,,,,,,,,5fa1b1a4499be43137fba435,66,2022-02-12_12h41.21.364,lexical_decision_task_DD_L3,2021.2.3,MacIntel,166.6666667,,,,,,,,,,1.001,1,,,,,,,,,,,,,,,,,,,,,,,0.335731415,-0.298561151,1,0,0,,,,,,,FARMER,HB,m,m,./images/FARMERHB.png,,,,,,,,,,,,,,,,,,,,,0,0.335731415,-0.298561151,1,0,0,1.001,button_right_test,0,25,25,65,1
,,,,,,,,,,,,,,,,,5fa1b1a4499be43137fba435,66,2022-02-12_12h41.21.364,lexical_decision_task_DD_L3,2021.2.3,MacIntel,166.6666667,,,,,,,,,,1.099,1,,,,,,,,,,,,,,,,,,,,,,,0.300959233,-0.299760192,1,0,0,,,,,,,PURSE,HB,m,m,./images/PURSEHB.png,,,,,,,,,,,,,,,,,,,,,0,0.300959233,-0.299760192,1,0,0,1.099,button_right_test,0,26,26,62,1
,,,,,,,,,,,,,,,,,5fa1b1a4499be43137fba435,66,2022-02-12_12h41.21.364,lexical_decision_task_DD_L3,2021.2.3,MacIntel,166.6666667,,,,,,,,,,1.183,1,,,,,,,,,,,,,,,,,,,,,,,-0.306954436,-0.327338129,1,0,0,,,,,,,SNAKE,C,z,m,./images/SNAKE.png,,,,,,,,,,,,,,,,,,,,,0,-0.306954436,-0.327338129,1,0,0,1.183,button_left_test,0,27,27,124,1
,,,,,,,,,,,,,,,,,5fa1b1a4499be43137fba435,66,2022-02-12_12h41.21.364,lexical_decision_task_DD_L3,2021.2.3,MacIntel,166.6666667,,,,,,,,,,1.868,1,,,,,,,,,,,,,,,,,,,,,,,-0.336930456,-0.326139089,1,0,0,,,,,,,CANDY,LB,z,m,./images/CANDYLB.png,,,,,,,,,,,,,,,,,,,,,0,-0.336930456,-0.326139089,1,0,0,1.868,button_left_test,0,28,28,123,1
,,,,,,,,,,,,,,,,,5fa1b1a4499be43137fba435,66,2022-02-12_12h41.21.364,lexical_decision_task_DD_L3,2021.2.3,MacIntel,166.6666667,,,,,,,,,,1.258,1,,,,,,,,,,,,,,,,,,,,,,,-0.291366906,-0.317745803,1,0,0,,,,,,,CLOUD,HB,z,m,./images/CLOUDHB.png,,,,,,,,,,,,,,,,,,,,,0,-0.291366906,-0.317745803,1,0,0,1.258,button_left_test,0,29,29,110,1
,,,,,,,,,,,,,,,,,5fa1b1a4499be43137fba435,66,2022-02-12_12h41.21.364,lexical_decision_task_DD_L3,2021.2.3,MacIntel,166.6666667,,,,,,,,,,1.25,1,,,,,,,,,,,,,,,,,,,,,,,-0.304556355,-0.314148681,1,0,0,,,,,,,BUBBLE,HB,z,m,./images/BUBBLEHB.png,,,,,,,,,,,,,,,,,,,,,0,-0.304556355,-0.314148681,1,0,0,1.25,button_left_test,0,30,30,155,1
,,,,,,,,,,,,,,,,,5fa1b1a4499be43137fba435,66,2022-02-12_12h41.21.364,lexical_decision_task_DD_L3,2021.2.3,MacIntel,166.6666667,,,,,,,,,,2.052,1,,,,,,,,,,,,,,,,,,,,,,,-0.316546763,-0.316546763,1,0,0,,,,,,,SLOPE,LB,z,m,./images/SLOPELB.png,,,,,,,,,,,,,,,,,,,,,0,-0.316546763,-0.316546763,1,0,0,2.052,button_left_test,0,31,31,114,1
,,,,,,,,,,,,,,,,,5fa1b1a4499be43137fba435,66,2022-02-12_12h41.21.364,lexical_decision_task_DD_L3,2021.2.3,MacIntel,166.6666667,,,,,,,,,,2.3,1,,,,,,,,,,,,,,,,,,,,,,,0.273381295,-0.306954436,1,0,0,,,,,,,SQUARE,LB,m,m,./images/SQUARELB.png,,,,,,,,,,,,,,,,,,,,,0,0.273381295,-0.306954436,1,0,0,2.3,button_right_test,0,32,32,6,1
,,,,,,,,,,,,,,,,,5fa1b1a4499be43137fba435,66,2022-02-12_12h41.21.364,lexical_decision_task_DD_L3,2021.2.3,MacIntel,166.6666667,,,,,,,,,,1.019,1,,,,,,,,,,,,,,,,,,,,,,,0.291366906,-0.316546763,1,0,0,,,,,,,WEASEL,HB,m,m,./images/WEASELHB.png,,,,,,,,,,,,,,,,,,,,,0,0.291366906,-0.316546763,1,0,0,1.019,button_right_test,0,33,33,80,1
,,,,,,,,,,,,,,,,,5fa1b1a4499be43137fba435,66,2022-02-12_12h41.21.364,lexical_decision_task_DD_L3,2021.2.3,MacIntel,166.6666667,,,,,,,,,,0.858,1,,,,,,,,,,,,,,,,,,,,,,,0.304556355,-0.314148681,1,0,0,,,,,,,STORM,LB,m,m,./images/STORMLB.png,,,,,,,,,,,,,,,,,,,,,0,0.304556355,-0.314148681,1,0,0,0.858,button_right_test,0,34,34,30,1
,,,,,,,,,,,,,,,,,5fa1b1a4499be43137fba435,66,2022-02-12_12h41.21.364,lexical_decision_task_DD_L3,2021.2.3,MacIntel,166.6666667,,,,,,,,,,1.476,1,,,,,,,,,,,,,,,,,,,,,,,0.247002398,-0.299760192,1,0,0,,,,,,,BIRTH,C,m,m,./images/BIRTH.png,,,,,,,,,,,,,,,,,,,,,0,0.247002398,-0.299760192,1,0,0,1.476,button_right_test,0,35,35,37,1
,,,,,,,,,,,,,,,,,5fa1b1a4499be43137fba435,66,2022-02-12_12h41.21.364,lexical_decision_task_DD_L3,2021.2.3,MacIntel,166.6666667,,,,,,,,,,1.243,1,,,,,,,,,,,,,,,,,,,,,,,-0.29736211,-0.308153477,1,0,0,,,,,,,HAMMER,LB,z,m,./images/HAMMERLB.png,,,,,,,,,,,,,,,,,,,,,0,-0.29736211,-0.308153477,1,0,0,1.243,button_left_test,0,36,36,159,1
,,,,,,,,,,,,,,,,,5fa1b1a4499be43137fba435,66,2022-02-12_12h41.21.364,lexical_decision_task_DD_L3,2021.2.3,MacIntel,166.6666667,,,,,,,,,,1.17,1,,,,,,,,,,,,,,,,,,,,,,,-0.303357314,-0.327338129,1,0,0,,,,,,,STATUE,LB,z,m,./images/STATUELB.png,,,,,,,,,,,,,,,,,,,,,0,-0.303357314,-0.327338129,1,0,0,1.17,button_left_test,0,37,37,150,1
,,,,,,,,,,,,,,,,,5fa1b1a4499be43137fba435,66,2022-02-12_12h41.21.364,lexical_decision_task_DD_L3,2021.2.3,MacIntel,166.6666667,,,,,,,,,,2.091,1,,,,,,,,,,,,,,,,,,,,,,,-0.302158273,-0.318944844,1,0,0,,,,,,,BOILER,LB,z,m,./images/BOILERLB.png,,,,,,,,,,,,,,,,,,,,,0,-0.302158273,-0.318944844,1,0,0,2.091,button_left_test,0,38,38,120,1
,,,,,,,,,,,,,,,,,5fa1b1a4499be43137fba435,66,2022-02-12_12h41.21.364,lexical_decision_task_DD_L3,2021.2.3,MacIntel,166.6666667,,,,,,,,,,1.558,0,,,,,,,,,,,,,,,,,,,,,,,-0.262589928,-0.31294964,1,0,0,,,,,,,BABOON,C,m,m,./images/BABOON.png,,,,,,,,,,,,,,,,,,,,,0,-0.262589928,-0.31294964,1,0,0,1.558,button_left_test,0,39,39,58,1
,,,,,,,,,,,,,,,,,5fa1b1a4499be43137fba435,66,2022-02-12_12h41.21.364,lexical_decision_task_DD_L3,2021.2.3,MacIntel,166.6666667,,,,,,,,,,1.434,1,,,,,,,,,,,,,,,,,,,,,,,-0.268585132,-0.29736211,1,0,0,,,,,,,PARADE,HB,z,m,./images/PARADEHB.png,,,,,,,,,,,,,,,,,,,,,0,-0.268585132,-0.29736211,1,0,0,1.434,button_left_test,0,40,40,101,1
,,,,,,,,,,,,,,,,,5fa1b1a4499be43137fba435,66,2022-02-12_12h41.21.364,lexical_decision_task_DD_L3,2021.2.3,MacIntel,166.6666667,,,,,,,,,,1.439,1,,,,,,,,,,,,,,,,,,,,,,,0.097122302,-0.400479616,1,0,0,,,,,,,GRANNY,HB,z,m,./images/GRANNYHB.png,break_done_button,,,,,,,,,,,,,,,,,,,,0,-0.287769784,-0.292565947,1,0,0,1.439,button_left_test,0,41,41,104,1
,,,,,,,,,,,,,,,,,5fa1b1a4499be43137fba435,66,2022-02-12_12h41.21.364,lexical_decision_task_DD_L3,2021.2.3,MacIntel,166.6666667,,,,,,,,,,2.205,1,,,,,,,,,,,,,,,,,,,,,,,0.3117506,-0.324940048,1,0,0,,,,,,,FINGER,LB,m,m,./images/FINGERLB.png,,,,,,,,,,,,,,,,,,,,,0,0.3117506,-0.324940048,1,0,0,2.205,button_right_test,0,42,42,3,1
,,,,,,,,,,,,,,,,,5fa1b1a4499be43137fba435,66,2022-02-12_12h41.21.364,lexical_decision_task_DD_L3,2021.2.3,MacIntel,166.6666667,,,,,,,,,,0.867,1,,,,,,,,,,,,,,,,,,,,,,,0.310551559,-0.31294964,1,0,0,,,,,,,MAGGOT,LB,m,m,./images/MAGGOTLB.png,,,,,,,,,,,,,,,,,,,,,0,0.310551559,-0.31294964,1,0,0,0.867,button_right_test,0,43,43,33,1
,,,,,,,,,,,,,,,,,5fa1b1a4499be43137fba435,66,2022-02-12_12h41.21.364,lexical_decision_task_DD_L3,2021.2.3,MacIntel,166.6666667,,,,,,,,,,1.826,0,,,,,,,,,,,,,,,,,,,,,,,0.279376499,-0.272182254,1,0,0,,,,,,,BLOKE,LB,z,m,./images/BLOKELB.png,,,,,,,,,,,,,,,,,,,,,0,0.279376499,-0.272182254,1,0,0,1.826,button_right_test,0,44,44,96,1
,,,,,,,,,,,,,,,,,5fa1b1a4499be43137fba435,66,2022-02-12_12h41.21.364,lexical_decision_task_DD_L3,2021.2.3,MacIntel,166.6666667,,,,,,,,,,1.126,1,,,,,,,,,,,,,,,,,,,,,,,0.309352518,-0.285371703,1,0,0,,,,,,,KIDNEY,LB,m,m,./images/KIDNEYLB.png,,,,,,,,,,,,,,,,,,,,,0,0.309352518,-0.285371703,1,0,0,1.126,button_right_test,0,45,45,21,1
,,,,,,,,,,,,,,,,,5fa1b1a4499be43137fba435,66,2022-02-12_12h41.21.364,lexical_decision_task_DD_L3,2021.2.3,MacIntel,166.6666667,,,,,,,,,,1.116,1,,,,,,,,,,,,,,,,,,,,,,,0.308153477,-0.267386091,1,0,0,,,,,,,BANNER,C,m,m,./images/BANNER.png,,,,,,,,,,,,,,,,,,,,,0,0.308153477,-0.267386091,1,0,0,1.116,button_right_test,0,46,46,52,1
,,,,,,,,,,,,,,,,,5fa1b1a4499be43137fba435,66,2022-02-12_12h41.21.364,lexical_decision_task_DD_L3,2021.2.3,MacIntel,166.6666667,,,,,,,,,,0.958,1,,,,,,,,,,,,,,,,,,,,,,,0.304556355,-0.298561151,1,0,0,,,,,,,STRING,HB,m,m,./images/STRINGHB.png,,,,,,,,,,,,,,,,,,,,,0,0.304556355,-0.298561151,1,0,0,0.958,button_right_test,0,47,47,41,1
,,,,,,,,,,,,,,,,,5fa1b1a4499be43137fba435,66,2022-02-12_12h41.21.364,lexical_decision_task_DD_L3,2021.2.3,MacIntel,166.6666667,,,,,,,,,,1.256,1,,,,,,,,,,,,,,,,,,,,,,,-0.346522782,-0.302158273,1,0,0,,,,,,,CANOE,C,z,m,./images/CANOE.png,,,,,,,,,,,,,,,,,,,,,0,-0.346522782,-0.302158273,1,0,0,1.256,button_left_test,0,48,48,142,1
,,,,,,,,,,,,,,,,,5fa1b1a4499be43137fba435,66,2022-02-12_12h41.21.364,lexical_decision_task_DD_L3,2021.2.3,MacIntel,166.6666667,,,,,,,,,,1.25,1,,,,,,,,,,,,,,,,,,,,,,,-0.303357314,-0.315347722,1,0,0,,,,,,,FERRY,LB,z,m,./images/FERRYLB.png,,,,,,,,,,,,,,,,,,,,,0,-0.303357314,-0.315347722,1,0,0,1.25,button_left_test,0,49,49,141,1
,,,,,,,,,,,,,,,,,5fa1b1a4499be43137fba435,66,2022-02-12_12h41.21.364,lexical_decision_task_DD_L3,2021.2.3,MacIntel,166.6666667,,,,,,,,,,2.495,0,,,,,,,,,,,,,,,,,,,,,,,0.268585132,-0.291366906,1,0,0,,,,,,,ALLEY,C,z,m,./images/ALLEY.png,,,,,,,,,,,,,,,,,,,,,0,0.268585132,-0.291366906,1,0,0,2.495,button_right_test,0,50,50,139,1
,,,,,,,,,,,,,,,,,5fa1b1a4499be43137fba435,66,2022-02-12_12h41.21.364,lexical_decision_task_DD_L3,2021.2.3,MacIntel,166.6666667,,,,,,,,,,0.957,1,,,,,,,,,,,,,,,,,,,,,,,0.294964029,-0.298561151,1,0,0,,,,,,,PAINT,C,m,m,./images/PAINT.png,,,,,,,,,,,,,,,,,,,,,0,0.294964029,-0.298561151,1,0,0,0.957,button_right_test,0,51,51,7,1
,,,,,,,,,,,,,,,,,5fa1b1a4499be43137fba435,66,2022-02-12_12h41.21.364,lexical_decision_task_DD_L3,2021.2.3,MacIntel,166.6666667,,,,,,,,,,1.175,0,,,,,,,,,,,,,,,,,,,,,,,-0.299760192,-0.334532374,1,0,0,,,,,,,MOTOR,C,m,m,./images/MOTOR.png,,,,,,,,,,,,,,,,,,,,,0,-0.299760192,-0.334532374,1,0,0,1.175,button_left_test,0,52,52,13,1
,,,,,,,,,,,,,,,,,5fa1b1a4499be43137fba435,66,2022-02-12_12h41.21.364,lexical_decision_task_DD_L3,2021.2.3,MacIntel,166.6666667,,,,,,,,,,1.042,0,,,,,,,,,,,,,,,,,,,,,,,-0.285371703,-0.300959233,1,0,0,,,,,,,CRUST,C,m,m,./images/CRUST.png,,,,,,,,,,,,,,,,,,,,,0,-0.285371703,-0.300959233,1,0,0,1.042,button_left_test,0,53,53,79,1
,,,,,,,,,,,,,,,,,5fa1b1a4499be43137fba435,66,2022-02-12_12h41.21.364,lexical_decision_task_DD_L3,2021.2.3,MacIntel,166.6666667,,,,,,,,,,1.223,1,,,,,,,,,,,,,,,,,,,,,,,-0.309352518,-0.32853717,1,0,0,,,,,,,BRUSH,HB,z,m,./images/BRUSHHB.png,,,,,,,,,,,,,,,,,,,,,0,-0.309352518,-0.32853717,1,0,0,1.223,button_left_test,0,54,54,143,1
,,,,,,,,,,,,,,,,,5fa1b1a4499be43137fba435,66,2022-02-12_12h41.21.364,lexical_decision_task_DD_L3,2021.2.3,MacIntel,166.6666667,,,,,,,,,,1.064,1,,,,,,,,,,,,,,,,,,,,,,,0.315347722,-0.300959233,1,0,0,,,,,,,LITTER,LB,m,m,./images/LITTERLB.png,,,,,,,,,,,,,,,,,,,,,0,0.315347722,-0.300959233,1,0,0,1.064,button_right_test,0,55,55,78,1
,,,,,,,,,,,,,,,,,5fa1b1a4499be43137fba435,66,2022-02-12_12h41.21.364,lexical_decision_task_DD_L3,2021.2.3,MacIntel,166.6666667,,,,,,,,,,1.224,1,,,,,,,,,,,,,,,,,,,,,,,-0.315347722,-0.335731415,1,0,0,,,,,,,DESERT,C,z,m,./images/DESERT.png,,,,,,,,,,,,,,,,,,,,,0,-0.315347722,-0.335731415,1,0,0,1.224,button_left_test,0,56,56,136,1
,,,,,,,,,,,,,,,,,5fa1b1a4499be43137fba435,66,2022-02-12_12h41.21.364,lexical_decision_task_DD_L3,2021.2.3,MacIntel,166.6666667,,,,,,,,,,1.159,1,,,,,,,,,,,,,,,,,,,,,,,-0.299760192,-0.336930456,1,0,0,,,,,,,CLOTH,HB,z,m,./images/CLOTHHB.png,,,,,,,,,,,,,,,,,,,,,0,-0.299760192,-0.336930456,1,0,0,1.159,button_left_test,0,57,57,107,1
,,,,,,,,,,,,,,,,,5fa1b1a4499be43137fba435,66,2022-02-12_12h41.21.364,lexical_decision_task_DD_L3,2021.2.3,MacIntel,166.6666667,,,,,,,,,,0.905,0,,,,,,,,,,,,,,,,,,,,,,,0.335731415,-0.316546763,1,0,0,,,,,,,BAMBOO,HB,z,m,./images/BAMBOOHB.png,,,,,,,,,,,,,,,,,,,,,0,0.335731415,-0.316546763,1,0,0,0.905,button_right_test,0,58,58,89,1
,,,,,,,,,,,,,,,,,5fa1b1a4499be43137fba435,66,2022-02-12_12h41.21.364,lexical_decision_task_DD_L3,2021.2.3,MacIntel,166.6666667,,,,,,,,,,1.759,1,,,,,,,,,,,,,,,,,,,,,,,0.300959233,-0.29616307,1,0,0,,,,,,,ONION,LB,m,m,./images/ONIONLB.png,,,,,,,,,,,,,,,,,,,,,0,0.300959233,-0.29616307,1,0,0,1.759,button_right_test,0,59,59,51,1
,,,,,,,,,,,,,,,,,5fa1b1a4499be43137fba435,66,2022-02-12_12h41.21.364,lexical_decision_task_DD_L3,2021.2.3,MacIntel,166.6666667,,,,,,,,,,0.96,1,,,,,,,,,,,,,,,,,,,,,,,0.29616307,-0.3117506,1,0,0,,,,,,,JELLY,C,m,m,./images/JELLY.png,,,,,,,,,,,,,,,,,,,,,0,0.29616307,-0.3117506,1,0,0,0.96,button_right_test,0,60,60,64,1
,,,,,,,,,,,,,,,,,5fa1b1a4499be43137fba435,66,2022-02-12_12h41.21.364,lexical_decision_task_DD_L3,2021.2.3,MacIntel,166.6666667,,,,,,,,,,2.042,1,,,,,,,,,,,,,,,,,,,,,,,-0.314148681,-0.339328537,1,0,0,,,,,,,GARDEN,C,z,m,./images/GARDEN.png,,,,,,,,,,,,,,,,,,,,,0,-0.314148681,-0.339328537,1,0,0,2.042,button_left_test,0,61,61,94,1
,,,,,,,,,,,,,,,,,5fa1b1a4499be43137fba435,66,2022-02-12_12h41.21.364,lexical_decision_task_DD_L3,2021.2.3,MacIntel,166.6666667,,,,,,,,,,1.801,1,,,,,,,,,,,,,,,,,,,,,,,0.285371703,-0.300959233,1,0,0,,,,,,,TORCH,HB,m,m,./images/TORCHHB.png,,,,,,,,,,,,,,,,,,,,,0,0.285371703,-0.300959233,1,0,0,1.801,button_right_test,0,62,62,68,1
,,,,,,,,,,,,,,,,,5fa1b1a4499be43137fba435,66,2022-02-12_12h41.21.364,lexical_decision_task_DD_L3,2021.2.3,MacIntel,166.6666667,,,,,,,,,,2.549,1,,,,,,,,,,,,,,,,,,,,,,,-0.292565947,-0.286570743,1,0,0,,,,,,,CHAIN,LB,z,m,./images/CHAINLB.png,,,,,,,,,,,,,,,,,,,,,0,-0.292565947,-0.286570743,1,0,0,2.549,button_left_test,0,63,63,126,1
,,,,,,,,,,,,,,,,,5fa1b1a4499be43137fba435,66,2022-02-12_12h41.21.364,lexical_decision_task_DD_L3,2021.2.3,MacIntel,166.6666667,,,,,,,,,,1.125,0,,,,,,,,,,,,,,,,,,,,,,,-0.306954436,-0.339328537,1,0,0,,,,,,,WALRUS,HB,m,m,./images/WALRUSHB.png,,,,,,,,,,,,,,,,,,,,,0,-0.306954436,-0.339328537,1,0,0,1.125,button_left_test,0,64,64,23,1
,,,,,,,,,,,,,,,,,5fa1b1a4499be43137fba435,66,2022-02-12_12h41.21.364,lexical_decision_task_DD_L3,2021.2.3,MacIntel,166.6666667,,,,,,,,,,1.468,1,,,,,,,,,,,,,,,,,,,,,,,-0.342925659,-0.32853717,1,0,0,,,,,,,WHISKY,HB,z,m,./images/WHISKYHB.png,,,,,,,,,,,,,,,,,,,,,0,-0.342925659,-0.32853717,1,0,0,1.468,button_left_test,0,65,65,167,1
,,,,,,,,,,,,,,,,,5fa1b1a4499be43137fba435,66,2022-02-12_12h41.21.364,lexical_decision_task_DD_L3,2021.2.3,MacIntel,166.6666667,,,,,,,,,,1.059,1,,,,,,,,,,,,,,,,,,,,,,,-0.294964029,-0.320143885,1,0,0,,,,,,,DANCER,LB,z,m,./images/DANCERLB.png,,,,,,,,,,,,,,,,,,,,,0,-0.294964029,-0.320143885,1,0,0,1.059,button_left_test,0,66,66,105,1
,,,,,,,,,,,,,,,,,5fa1b1a4499be43137fba435,66,2022-02-12_12h41.21.364,lexical_decision_task_DD_L3,2021.2.3,MacIntel,166.6666667,,,,,,,,,,1.101,1,,,,,,,,,,,,,,,,,,,,,,,0.302158273,-0.309352518,1,0,0,,,,,,,POODLE,LB,m,m,./images/POODLELB.png,,,,,,,,,,,,,,,,,,,,,0,0.302158273,-0.309352518,1,0,0,1.101,button_right_test,0,67,67,81,1
,,,,,,,,,,,,,,,,,5fa1b1a4499be43137fba435,66,2022-02-12_12h41.21.364,lexical_decision_task_DD_L3,2021.2.3,MacIntel,166.6666667,,,,,,,,,,1.634,0,,,,,,,,,,,,,,,,,,,,,,,0.318944844,-0.294964029,1,0,0,,,,,,,PISTOL,HB,z,m,./images/PISTOLHB.png,,,,,,,,,,,,,,,,,,,,,0,0.318944844,-0.294964029,1,0,0,1.634,button_right_test,0,68,68,113,1
,,,,,,,,,,,,,,,,,5fa1b1a4499be43137fba435,66,2022-02-12_12h41.21.364,lexical_decision_task_DD_L3,2021.2.3,MacIntel,166.6666667,,,,,,,,,,4.815,0,,,,,,,,,,,,,,,,,,,,,,,-0.282973621,-0.306954436,1,0,0,,,,,,,CRADLE,HB,m,m,./images/CRADLEHB.png,,,,,,,,,,,,,,,,,,,,,0,-0.282973621,-0.306954436,1,0,0,4.815,button_left_test,0,69,69,20,1
,,,,,,,,,,,,,,,,,5fa1b1a4499be43137fba435,66,2022-02-12_12h41.21.364,lexical_decision_task_DD_L3,2021.2.3,MacIntel,166.6666667,,,,,,,,,,1.085,1,,,,,,,,,,,,,,,,,,,,,,,-0.300959233,-0.309352518,1,0,0,,,,,,,JUMPER,HB,z,m,./images/JUMPERHB.png,,,,,,,,,,,,,,,,,,,,,0,-0.300959233,-0.309352518,1,0,0,1.085,button_left_test,0,70,70,158,1
,,,,,,,,,,,,,,,,,5fa1b1a4499be43137fba435,66,2022-02-12_12h41.21.364,lexical_decision_task_DD_L3,2021.2.3,MacIntel,166.6666667,,,,,,,,,,1.133,1,,,,,,,,,,,,,,,,,,,,,,,0.3441247,-0.284172662,1,0,0,,,,,,,SAILOR,C,m,m,./images/SAILOR.png,,,,,,,,,,,,,,,,,,,,,0,0.3441247,-0.284172662,1,0,0,1.133,button_right_test,0,71,71,67,1
,,,,,,,,,,,,,,,,,5fa1b1a4499be43137fba435,66,2022-02-12_12h41.21.364,lexical_decision_task_DD_L3,2021.2.3,MacIntel,166.6666667,,,,,,,,,,1.317,1,,,,,,,,,,,,,,,,,,,,,,,-0.322541966,-0.342925659,1,0,0,,,,,,,MUMMY,C,z,m,./images/MUMMY.png,,,,,,,,,,,,,,,,,,,,,0,-0.322541966,-0.342925659,1,0,0,1.317,button_left_test,0,72,72,130,1
,,,,,,,,,,,,,,,,,5fa1b1a4499be43137fba435,66,2022-02-12_12h41.21.364,lexical_decision_task_DD_L3,2021.2.3,MacIntel,166.6666667,,,,,,,,,,0.893,1,,,,,,,,,,,,,,,,,,,,,,,0.305755396,-0.29616307,1,0,0,,,,,,,URINE,C,m,m,./images/URINE.png,,,,,,,,,,,,,,,,,,,,,0,0.305755396,-0.29616307,1,0,0,0.893,button_right_test,0,73,73,70,1
,,,,,,,,,,,,,,,,,5fa1b1a4499be43137fba435,66,2022-02-12_12h41.21.364,lexical_decision_task_DD_L3,2021.2.3,MacIntel,166.6666667,,,,,,,,,,1.292,1,,,,,,,,,,,,,,,,,,,,,,,0.323741007,-0.302158273,1,0,0,,,,,,,GRAIN,LB,m,m,./images/GRAINLB.png,,,,,,,,,,,,,,,,,,,,,0,0.323741007,-0.302158273,1,0,0,1.292,button_right_test,0,74,74,75,1
,,,,,,,,,,,,,,,,,5fa1b1a4499be43137fba435,66,2022-02-12_12h41.21.364,lexical_decision_task_DD_L3,2021.2.3,MacIntel,166.6666667,,,,,,,,,,1.684,1,,,,,,,,,,,,,,,,,,,,,,,-0.28057554,-0.3117506,1,0,0,,,,,,,BUNNY,C,z,m,./images/BUNNY.png,,,,,,,,,,,,,,,,,,,,,0,-0.28057554,-0.3117506,1,0,0,1.684,button_left_test,0,75,75,97,1
,,,,,,,,,,,,,,,,,5fa1b1a4499be43137fba435,66,2022-02-12_12h41.21.364,lexical_decision_task_DD_L3,2021.2.3,MacIntel,166.6666667,,,,,,,,,,1.316,1,,,,,,,,,,,,,,,,,,,,,,,-0.28057554,-0.302158273,1,0,0,,,,,,,STOOL,C,z,m,./images/STOOL.png,,,,,,,,,,,,,,,,,,,,,0,-0.28057554,-0.302158273,1,0,0,1.316,button_left_test,0,76,76,127,1
,,,,,,,,,,,,,,,,,5fa1b1a4499be43137fba435,66,2022-02-12_12h41.21.364,lexical_decision_task_DD_L3,2021.2.3,MacIntel,166.6666667,,,,,,,,,,2.192,0,,,,,,,,,,,,,,,,,,,,,,,0.279376499,-0.308153477,1,0,0,,,,,,,STOVE,HB,z,m,./images/STOVEHB.png,,,,,,,,,,,,,,,,,,,,,0,0.279376499,-0.308153477,1,0,0,2.192,button_right_test,0,77,77,86,1
,,,,,,,,,,,,,,,,,5fa1b1a4499be43137fba435,66,2022-02-12_12h41.21.364,lexical_decision_task_DD_L3,2021.2.3,MacIntel,166.6666667,,,,,,,,,,1.276,1,,,,,,,,,,,,,,,,,,,,,,,0.306954436,-0.290167866,1,0,0,,,,,,,MOSQUE,C,m,m,./images/MOSQUE.png,,,,,,,,,,,,,,,,,,,,,0,0.306954436,-0.290167866,1,0,0,1.276,button_right_test,0,78,78,43,1
,,,,,,,,,,,,,,,,,5fa1b1a4499be43137fba435,66,2022-02-12_12h41.21.364,lexical_decision_task_DD_L3,2021.2.3,MacIntel,166.6666667,,,,,,,,,,1.234,1,,,,,,,,,,,,,,,,,,,,,,,0.294964029,-0.292565947,1,0,0,,,,,,,MUSCLE,C,m,m,./images/MUSCLE.png,,,,,,,,,,,,,,,,,,,,,0,0.294964029,-0.292565947,1,0,0,1.234,button_right_test,0,79,79,4,1
,,,,,,,,,,,,,,,,,5fa1b1a4499be43137fba435,66,2022-02-12_12h41.21.364,lexical_decision_task_DD_L3,2021.2.3,MacIntel,166.6666667,,,,,,,,,,1.472,1,,,,,,,,,,,,,,,,,,,,,,,-0.31294964,-0.29616307,1,0,0,,,,,,,DRILL,LB,z,m,./images/DRILLLB.png,,,,,,,,,,,,,,,,,,,,,0,-0.31294964,-0.29616307,1,0,0,1.472,button_left_test,0,80,80,165,1
,,,,,,,,,,,,,,,,,5fa1b1a4499be43137fba435,66,2022-02-12_12h41.21.364,lexical_decision_task_DD_L3,2021.2.3,MacIntel,166.6666667,,,,,,,,,,1.428,0,,,,,,,,,,,,,,,,,,,,,,,0.321342926,-0.298561151,1,0,0,,,,,,,COLLAR,LB,z,m,./images/COLLARLB.png,,,,,,,,,,,,,,,,,,,,,0,0.321342926,-0.298561151,1,0,0,1.428,button_right_test,0,81,81,99,1
,,,,,,,,,,,,,,,,,5fa1b1a4499be43137fba435,66,2022-02-12_12h41.21.364,lexical_decision_task_DD_L3,2021.2.3,MacIntel,166.6666667,,,,,,,,,,1.384,1,,,,,,,,,,,,,,,,,,,,,,,-0.284172662,-0.300959233,1,0,0,,,,,,,BRIDE,C,z,m,./images/BRIDE.png,,,,,,,,,,,,,,,,,,,,,0,-0.284172662,-0.300959233,1,0,0,1.384,button_left_test,0,82,82,148,1
,,,,,,,,,,,,,,,,,5fa1b1a4499be43137fba435,66,2022-02-12_12h41.21.364,lexical_decision_task_DD_L3,2021.2.3,MacIntel,166.6666667,,,,,,,,,,1.45,1,,,,,,,,,,,,,,,,,,,,,,,0.103117506,-0.394484412,1,0,0,,,,,,,TOWEL,C,z,m,./images/TOWEL.png,break_done_button,,,,,,,,,,,,,,,,,,,,0,-0.3117506,-0.322541966,1,0,0,1.45,button_left_test,0,83,83,85,1
,,,,,,,,,,,,,,,,,5fa1b1a4499be43137fba435,66,2022-02-12_12h41.21.364,lexical_decision_task_DD_L3,2021.2.3,MacIntel,166.6666667,,,,,,,,,,1.3,1,,,,,,,,,,,,,,,,,,,,,,,-0.290167866,-0.306954436,1,0,0,,,,,,,FLESH,LB,z,m,./images/FLESHLB.png,,,,,,,,,,,,,,,,,,,,,0,-0.290167866,-0.306954436,1,0,0,1.3,button_left_test,0,84,84,108,1
,,,,,,,,,,,,,,,,,5fa1b1a4499be43137fba435,66,2022-02-12_12h41.21.364,lexical_decision_task_DD_L3,2021.2.3,MacIntel,166.6666667,,,,,,,,,,1.409,1,,,,,,,,,,,,,,,,,,,,,,,-0.286570743,-0.336930456,1,0,0,,,,,,,PARCEL,LB,z,m,./images/PARCELLB.png,,,,,,,,,,,,,,,,,,,,,0,-0.286570743,-0.336930456,1,0,0,1.409,button_left_test,0,85,85,102,1
,,,,,,,,,,,,,,,,,5fa1b1a4499be43137fba435,66,2022-02-12_12h41.21.364,lexical_decision_task_DD_L3,2021.2.3,MacIntel,166.6666667,,,,,,,,,,1.091,1,,,,,,,,,,,,,,,,,,,,,,,0.314148681,-0.322541966,1,0,0,,,,,,,PIMPLE,HB,m,m,./images/PIMPLEHB.png,,,,,,,,,,,,,,,,,,,,,0,0.314148681,-0.322541966,1,0,0,1.091,button_right_test,0,86,86,71,1
,,,,,,,,,,,,,,,,,5fa1b1a4499be43137fba435,66,2022-02-12_12h41.21.364,lexical_decision_task_DD_L3,2021.2.3,MacIntel,166.6666667,,,,,,,,,,0.958,1,,,,,,,,,,,,,,,,,,,,,,,0.3117506,-0.321342926,1,0,0,,,,,,,SUNSET,C,m,m,./images/SUNSET.png,,,,,,,,,,,,,,,,,,,,,0,0.3117506,-0.321342926,1,0,0,0.958,button_right_test,0,87,87,82,1
,,,,,,,,,,,,,,,,,5fa1b1a4499be43137fba435,66,2022-02-12_12h41.21.364,lexical_decision_task_DD_L3,2021.2.3,MacIntel,166.6666667,,,,,,,,,,1.102,1,,,,,,,,,,,,,,,,,,,,,,,-0.294964029,-0.327338129,1,0,0,,,,,,,RULER,C,z,m,./images/RULER.png,,,,,,,,,,,,,,,,,,,,,0,-0.294964029,-0.327338129,1,0,0,1.102,button_left_test,0,88,88,163,1
,,,,,,,,,,,,,,,,,5fa1b1a4499be43137fba435,66,2022-02-12_12h41.21.364,lexical_decision_task_DD_L3,2021.2.3,MacIntel,166.6666667,,,,,,,,,,1.682,1,,,,,,,,,,,,,,,,,,,,,,,-0.276978417,-0.334532374,1,0,0,,,,,,,CHERRY,LB,z,m,./images/CHERRYLB.png,,,,,,,,,,,,,,,,,,,,,0,-0.276978417,-0.334532374,1,0,0,1.682,button_left_test,0,89,89,138,1
,,,,,,,,,,,,,,,,,5fa1b1a4499be43137fba435,66,2022-02-12_12h41.21.364,lexical_decision_task_DD_L3,2021.2.3,MacIntel,166.6666667,,,,,,,,,,1.38,1,,,,,,,,,,,,,,,,,,,,,,,-0.276978417,-0.318944844,1,0,0,,,,,,,STEAK,C,z,m,./images/STEAK.png,,,,,,,,,,,,,,,,,,,,,0,-0.276978417,-0.318944844,1,0,0,1.38,button_left_test,0,90,90,115,1
,,,,,,,,,,,,,,,,,5fa1b1a4499be43137fba435,66,2022-02-12_12h41.21.364,lexical_decision_task_DD_L3,2021.2.3,MacIntel,166.6666667,,,,,,,,,,1.317,1,,,,,,,,,,,,,,,,,,,,,,,-0.262589928,-0.336930456,1,0,0,,,,,,,MONKEY,LB,z,m,./images/MONKEYLB.png,,,,,,,,,,,,,,,,,,,,,0,-0.262589928,-0.336930456,1,0,0,1.317,button_left_test,0,91,91,129,1
,,,,,,,,,,,,,,,,,5fa1b1a4499be43137fba435,66,2022-02-12_12h41.21.364,lexical_decision_task_DD_L3,2021.2.3,MacIntel,166.6666667,,,,,,,,,,1.135,1,,,,,,,,,,,,,,,,,,,,,,,-0.267386091,-0.335731415,1,0,0,,,,,,,GLOVE,C,z,m,./images/GLOVE.png,,,,,,,,,,,,,,,,,,,,,0,-0.267386091,-0.335731415,1,0,0,1.135,button_left_test,0,92,92,157,1
,,,,,,,,,,,,,,,,,5fa1b1a4499be43137fba435,66,2022-02-12_12h41.21.364,lexical_decision_task_DD_L3,2021.2.3,MacIntel,166.6666667,,,,,,,,,,1.428,1,,,,,,,,,,,,,,,,,,,,,,,-0.255395683,-0.336930456,1,0,0,,,,,,,ENGINE,HB,z,m,./images/ENGINEHB.png,,,,,,,,,,,,,,,,,,,,,0,-0.255395683,-0.336930456,1,0,0,1.428,button_left_test,0,93,93,122,1
,,,,,,,,,,,,,,,,,5fa1b1a4499be43137fba435,66,2022-02-12_12h41.21.364,lexical_decision_task_DD_L3,2021.2.3,MacIntel,166.6666667,,,,,,,,,,1.016,1,,,,,,,,,,,,,,,,,,,,,,,0.324940048,-0.317745803,1,0,0,,,,,,,BURIAL,HB,m,m,./images/BURIALHB.png,,,,,,,,,,,,,,,,,,,,,0,0.324940048,-0.317745803,1,0,0,1.016,button_right_test,0,94,94,59,1
