key_resp.keys,key_resp.rt,instr_done_touch.x,instr_done_touch.y,instr_done_touch.leftButton,instr_done_touch.midButton,instr_done_touch.rightButton,instruction_pages.thisRepN,instruction_pages.thisTrialN,instruction_pages.thisN,instruction_pages.thisIndex,instruction_pages.ran,pageN,phase,instruct_text,has_image,instruct_image,participant,age,date,expName,psychopyVersion,OS,frameRate,response.keys,response.corr,response.rt,touch_resp.x,touch_resp.y,touch_resp.leftButton,touch_resp.midButton,touch_resp.rightButton,touch_resp.time,touch_resp.clicked_name,rt,corr,practrials.thisRepN,practrials.thisTrialN,practrials.thisN,practrials.thisIndex,practrials.ran,TrialID,Target,corrAns,end_of_practice_trials_pages.thisRepN,end_of_practice_trials_pages.thisTrialN,end_of_practice_trials_pages.thisN,end_of_practice_trials_pages.thisIndex,end_of_practice_trials_pages.ran,key_resp_2.keys,key_resp_2.corr,key_resp_2.rt,targ_click.x,targ_click.y,targ_click.leftButton,targ_click.midButton,targ_click.rightButton,targ_click.time,targ_click.clicked_name,break_done_touch.x,break_done_touch.y,break_done_touch.leftButton,break_done_touch.midButton,break_done_touch.rightButton,break_done_keyboard.keys,maintrials.thisRepN,maintrials.thisTrialN,maintrials.thisN,maintrials.thisIndex,maintrials.ran,string,blur,study,lex,stim_path,break_done_keyboard.rt,mouse_2.x,mouse_2.y,mouse_2.leftButton,mouse_2.midButton,mouse_2.rightButton,mouse_2.clicked_name,slider.response,slider.rt,trials.thisRepN,trials.thisTrialN,trials.thisN,trials.thisIndex,trials.ran,test_instructions.thisRepN,test_instructions.thisTrialN,test_instructions.thisN,test_instructions.thisIndex,test_instructions.ran,instr_done_touch.clicked_name,key_resp_3.keys,key_resp_3.corr,key_resp_3.rt,test_click.x,test_click.y,test_click.leftButton,test_click.midButton,test_click.rightButton,test_click.time,test_click.clicked_name,test_phase.thisRepN,test_phase.thisTrialN,test_phase.thisN,test_phase.thisIndex,test_phase.ran
space,37.1349,0.053703732,-0.233333355,0,0,0,0,0,0,0,1,1,instructions,"INSTRUCTIONS
At the start of each trial, look at the plus sign  (+) in the center of the screen.  This tells you that a trial is about to begin and where to look. Second, the plus sign will disappear and a string of letters will appear. Your task is to determine if the string of letters is a word or not. If the item is a word press the M key (on keyboard)  or touch the word button (phone/tablet).  If the item is not a word,  press the  Z key (on keyboard)  or touch the nonword button (on phone/tablet). 
Press the space bar or touch  continue.",0,,5fc30c35704ddd267cc9123f,34,2022-02-12_12h16.42.210,lexical_decision_task_DD_L3,2021.2.3,Win32,59.92329818,,,,,,,,,,,,,,,,,,,,,,,,,,,,,,,,,,,,,,,,,,,,,,,,,,,,,,,,,,,,,,,,,,,,,,,,,,,,,,,,,,,,,,
space,6.4799,0.053703732,-0.233333355,0,0,0,0,1,1,1,1,2,instructions,"If your device has a keyboard, press the 'Z' key for nonwords and the 'M' key for words.





Press the space bar or touch the button below to continue.",0,keyboard-example.gif,5fc30c35704ddd267cc9123f,34,2022-02-12_12h16.42.210,lexical_decision_task_DD_L3,2021.2.3,Win32,59.92329818,,,,,,,,,,,,,,,,,,,,,,,,,,,,,,,,,,,,,,,,,,,,,,,,,,,,,,,,,,,,,,,,,,,,,,,,,,,,,,,,,,,,,,
space,6.3364,0.053703732,-0.233333355,0,0,0,0,2,2,2,1,3,instructions,"If you are using a touchscreen only device, use the buttons on the screen. Do not use the mouse.





Press the space bar or touch the button below to continue.",0,touchscreen-example.gif,5fc30c35704ddd267cc9123f,34,2022-02-12_12h16.42.210,lexical_decision_task_DD_L3,2021.2.3,Win32,59.92329818,,,,,,,,,,,,,,,,,,,,,,,,,,,,,,,,,,,,,,,,,,,,,,,,,,,,,,,,,,,,,,,,,,,,,,,,,,,,,,,,,,,,,,
space,27.8316,0.053703732,-0.233333355,0,0,0,0,3,3,3,1,4,instructions,"It is very important that you respond as quickly and accurately as possible, as each letter string will only be on the screen for two seconds. If you do not respond within this time, the message 'Too slow!' will be displayed and the experiment will progress to the next letter string. The first 20 trials will be practice trials and you will receive feedback on your answers. 

Press the space bar or touch the button below to start the practice trials.",0,,5fc30c35704ddd267cc9123f,34,2022-02-12_12h16.42.210,lexical_decision_task_DD_L3,2021.2.3,Win32,59.92329818,,,,,,,,,,,,,,,,,,,,,,,,,,,,,,,,,,,,,,,,,,,,,,,,,,,,,,,,,,,,,,,,,,,,,,,,,,,,,,,,,,,,,,
,,,,,,,,,,,,,,,,,5fc30c35704ddd267cc9123f,34,2022-02-12_12h16.42.210,lexical_decision_task_DD_L3,2021.2.3,Win32,59.92329818,m,1,1.1731,,,,,,,,1.1731,1,0,0,0,6,1,1001,ZOMBIE,m,,,,,,,,,,,,,,,,,,,,,,,,,,,,,,,,,,,,,,,,,,,,,,,,,,,,,,,,,,,,,,,,,,
,,,,,,,,,,,,,,,,,5fc30c35704ddd267cc9123f,34,2022-02-12_12h16.42.210,lexical_decision_task_DD_L3,2021.2.3,Win32,59.92329818,m,1,0.6175,,,,,,,,0.6175,1,0,1,1,2,1,1001,ALMOND,m,,,,,,,,,,,,,,,,,,,,,,,,,,,,,,,,,,,,,,,,,,,,,,,,,,,,,,,,,,,,,,,,,,
,,,,,,,,,,,,,,,,,5fc30c35704ddd267cc9123f,34,2022-02-12_12h16.42.210,lexical_decision_task_DD_L3,2021.2.3,Win32,59.92329818,z,1,0.7867,,,,,,,,0.7867,1,0,2,2,12,1,1001,SPRINY,z,,,,,,,,,,,,,,,,,,,,,,,,,,,,,,,,,,,,,,,,,,,,,,,,,,,,,,,,,,,,,,,,,,
,,,,,,,,,,,,,,,,,5fc30c35704ddd267cc9123f,34,2022-02-12_12h16.42.210,lexical_decision_task_DD_L3,2021.2.3,Win32,59.92329818,z,1,0.7221,,,,,,,,0.7221,1,0,3,3,9,1,1001,FARINY,z,,,,,,,,,,,,,,,,,,,,,,,,,,,,,,,,,,,,,,,,,,,,,,,,,,,,,,,,,,,,,,,,,,
,,,,,,,,,,,,,,,,,5fc30c35704ddd267cc9123f,34,2022-02-12_12h16.42.210,lexical_decision_task_DD_L3,2021.2.3,Win32,59.92329818,z,1,0.6827,,,,,,,,0.6827,1,0,4,4,15,1,1001,WHAISE,z,,,,,,,,,,,,,,,,,,,,,,,,,,,,,,,,,,,,,,,,,,,,,,,,,,,,,,,,,,,,,,,,,,
,,,,,,,,,,,,,,,,,5fc30c35704ddd267cc9123f,34,2022-02-12_12h16.42.210,lexical_decision_task_DD_L3,2021.2.3,Win32,59.92329818,z,1,0.6533,,,,,,,,0.6533,1,0,5,5,14,1,1001,THRALE,z,,,,,,,,,,,,,,,,,,,,,,,,,,,,,,,,,,,,,,,,,,,,,,,,,,,,,,,,,,,,,,,,,,
,,,,,,,,,,,,,,,,,5fc30c35704ddd267cc9123f,34,2022-02-12_12h16.42.210,lexical_decision_task_DD_L3,2021.2.3,Win32,59.92329818,z,1,0.6489,,,,,,,,0.6489,1,0,6,6,8,1,1001,ASLERT,z,,,,,,,,,,,,,,,,,,,,,,,,,,,,,,,,,,,,,,,,,,,,,,,,,,,,,,,,,,,,,,,,,,
,,,,,,,,,,,,,,,,,5fc30c35704ddd267cc9123f,34,2022-02-12_12h16.42.210,lexical_decision_task_DD_L3,2021.2.3,Win32,59.92329818,m,1,0.873,,,,,,,,0.873,1,0,7,7,5,1,1001,OBTAIN,m,,,,,,,,,,,,,,,,,,,,,,,,,,,,,,,,,,,,,,,,,,,,,,,,,,,,,,,,,,,,,,,,,,
,,,,,,,,,,,,,,,,,5fc30c35704ddd267cc9123f,34,2022-02-12_12h16.42.210,lexical_decision_task_DD_L3,2021.2.3,Win32,59.92329818,z,1,0.9519,,,,,,,,0.9519,1,0,8,8,13,1,1001,ROUPET,z,,,,,,,,,,,,,,,,,,,,,,,,,,,,,,,,,,,,,,,,,,,,,,,,,,,,,,,,,,,,,,,,,,
,,,,,,,,,,,,,,,,,5fc30c35704ddd267cc9123f,34,2022-02-12_12h16.42.210,lexical_decision_task_DD_L3,2021.2.3,Win32,59.92329818,m,1,0.7502,,,,,,,,0.7502,1,0,9,9,4,1,1001,SQUEAK,m,,,,,,,,,,,,,,,,,,,,,,,,,,,,,,,,,,,,,,,,,,,,,,,,,,,,,,,,,,,,,,,,,,
,,,,,,,,,,,,,,,,,5fc30c35704ddd267cc9123f,34,2022-02-12_12h16.42.210,lexical_decision_task_DD_L3,2021.2.3,Win32,59.92329818,z,1,0.789,,,,,,,,0.789,1,0,10,10,11,1,1001,RASHET,z,,,,,,,,,,,,,,,,,,,,,,,,,,,,,,,,,,,,,,,,,,,,,,,,,,,,,,,,,,,,,,,,,,
,,,,,,,,,,,,,,,,,5fc30c35704ddd267cc9123f,34,2022-02-12_12h16.42.210,lexical_decision_task_DD_L3,2021.2.3,Win32,59.92329818,m,1,0.7204,,,,,,,,0.7204,1,0,11,11,3,1,1001,MATRIX,m,,,,,,,,,,,,,,,,,,,,,,,,,,,,,,,,,,,,,,,,,,,,,,,,,,,,,,,,,,,,,,,,,,
,,,,,,,,,,,,,,,,,5fc30c35704ddd267cc9123f,34,2022-02-12_12h16.42.210,lexical_decision_task_DD_L3,2021.2.3,Win32,59.92329818,m,1,0.8254,,,,,,,,0.8254,1,0,12,12,0,1,1001,UTOPIA,m,,,,,,,,,,,,,,,,,,,,,,,,,,,,,,,,,,,,,,,,,,,,,,,,,,,,,,,,,,,,,,,,,,
,,,,,,,,,,,,,,,,,5fc30c35704ddd267cc9123f,34,2022-02-12_12h16.42.210,lexical_decision_task_DD_L3,2021.2.3,Win32,59.92329818,m,1,0.5183,,,,,,,,0.5183,1,0,13,13,1,1,1001,ADJUST,m,,,,,,,,,,,,,,,,,,,,,,,,,,,,,,,,,,,,,,,,,,,,,,,,,,,,,,,,,,,,,,,,,,
,,,,,,,,,,,,,,,,,5fc30c35704ddd267cc9123f,34,2022-02-12_12h16.42.210,lexical_decision_task_DD_L3,2021.2.3,Win32,59.92329818,m,1,1.8629,,,,,,,,1.8629,1,0,14,14,7,1,1001,VOLUME,m,,,,,,,,,,,,,,,,,,,,,,,,,,,,,,,,,,,,,,,,,,,,,,,,,,,,,,,,,,,,,,,,,,
,,,,,,,,,,,,,,,,,5fc30c35704ddd267cc9123f,34,2022-02-12_12h16.42.210,lexical_decision_task_DD_L3,2021.2.3,Win32,59.92329818,z,1,0.7807,,,,,,,,0.7807,1,0,15,15,10,1,1001,INLADE,z,,,,,,,,,,,,,,,,,,,,,,,,,,,,,,,,,,,,,,,,,,,,,,,,,,,,,,,,,,,,,,,,,,
space,28.7157,0.053703732,-0.233333355,0,0,0,,,,,,1,end_of_practice,"You have completed the practice trials. During the experimental trials, you will not receive feedback. 
Before you begin, please ensure that you are in a comfortable and quiet location and will not be disturbed for about 15 minutes, as we cannot use your data if you do not complete all the trials. 
 When you are ready to start the experimental trials, please press space or touch the button below.",,,5fc30c35704ddd267cc9123f,34,2022-02-12_12h16.42.210,lexical_decision_task_DD_L3,2021.2.3,Win32,59.92329818,,,,,,,,,,,,,,,,,,,,,0,0,0,0,1,,,,,,,,,,,,,,,,,,,,,,,,,,,,,,,,,,,,,,,,,,,,,,,,,,,,,,,,,,,,,
,,,,,,,,,,,,,,,,,5fc30c35704ddd267cc9123f,34,2022-02-12_12h16.42.210,lexical_decision_task_DD_L3,2021.2.3,Win32,59.92329818,,,,,,,,,,,0.9509,1,,,,,,,,,,,,,,m,1,0.9509,,,,,,,,0.053703732,-0.233333355,0,0,0,,0,0,0,9,1,RHINO,LB,old,m,./images/RHINOLB.png,,,,,,,,,,,,,,,,,,,,,,,,,,,,,,,,,,,
,,,,,,,,,,,,,,,,,5fc30c35704ddd267cc9123f,34,2022-02-12_12h16.42.210,lexical_decision_task_DD_L3,2021.2.3,Win32,59.92329818,,,,,,,,,,,1.1048,0,,,,,,,,,,,,,,m,0,1.1048,,,,,,,,0.053703732,-0.233333355,0,0,0,,0,1,1,88,1,GLUSH,HB,old,z,./images/GLUSHHB.png,,,,,,,,,,,,,,,,,,,,,,,,,,,,,,,,,,,
,,,,,,,,,,,,,,,,,5fc30c35704ddd267cc9123f,34,2022-02-12_12h16.42.210,lexical_decision_task_DD_L3,2021.2.3,Win32,59.92329818,,,,,,,,,,,0.6724,1,,,,,,,,,,,,,,z,1,0.6724,,,,,,,,0.053703732,-0.233333355,0,0,0,,0,2,2,84,1,HAXES,C,old,z,./images/HAXES.png,,,,,,,,,,,,,,,,,,,,,,,,,,,,,,,,,,,
,,,,,,,,,,,,,,,,,5fc30c35704ddd267cc9123f,34,2022-02-12_12h16.42.210,lexical_decision_task_DD_L3,2021.2.3,Win32,59.92329818,,,,,,,,,,,1.4366,1,,,,,,,,,,,,,,z,1,1.4366,,,,,,,,0.053703732,-0.233333355,0,0,0,,0,3,3,160,1,VEETS,HB,old,z,./images/VEETSHB.png,,,,,,,,,,,,,,,,,,,,,,,,,,,,,,,,,,,
,,,,,,,,,,,,,,,,,5fc30c35704ddd267cc9123f,34,2022-02-12_12h16.42.210,lexical_decision_task_DD_L3,2021.2.3,Win32,59.92329818,,,,,,,,,,,0.7198,1,,,,,,,,,,,,,,m,1,0.7198,,,,,,,,0.053703732,-0.233333355,0,0,0,,0,4,4,79,1,CRUST,C,old,m,./images/CRUST.png,,,,,,,,,,,,,,,,,,,,,,,,,,,,,,,,,,,
,,,,,,,,,,,,,,,,,5fc30c35704ddd267cc9123f,34,2022-02-12_12h16.42.210,lexical_decision_task_DD_L3,2021.2.3,Win32,59.92329818,,,,,,,,,,,0.9629,1,,,,,,,,,,,,,,m,1,0.9629,,,,,,,,0.053703732,-0.233333355,0,0,0,,0,5,5,65,1,FARMER,HB,old,m,./images/FARMERHB.png,,,,,,,,,,,,,,,,,,,,,,,,,,,,,,,,,,,
,,,,,,,,,,,,,,,,,5fc30c35704ddd267cc9123f,34,2022-02-12_12h16.42.210,lexical_decision_task_DD_L3,2021.2.3,Win32,59.92329818,,,,,,,,,,,0.5884,1,,,,,,,,,,,,,,m,1,0.5884,,,,,,,,0.053703732,-0.233333355,0,0,0,,0,6,6,0,1,TOMATO,LB,old,m,./images/TOMATOLB.png,,,,,,,,,,,,,,,,,,,,,,,,,,,,,,,,,,,
,,,,,,,,,,,,,,,,,5fc30c35704ddd267cc9123f,34,2022-02-12_12h16.42.210,lexical_decision_task_DD_L3,2021.2.3,Win32,59.92329818,,,,,,,,,,,0.6933,1,,,,,,,,,,,,,,z,1,0.6933,,,,,,,,0.053703732,-0.233333355,0,0,0,,0,7,7,162,1,LEICH,C,old,z,./images/LEICH.png,,,,,,,,,,,,,,,,,,,,,,,,,,,,,,,,,,,
,,,,,,,,,,,,,,,,,5fc30c35704ddd267cc9123f,34,2022-02-12_12h16.42.210,lexical_decision_task_DD_L3,2021.2.3,Win32,59.92329818,,,,,,,,,,,0.6024,1,,,,,,,,,,,,,,m,1,0.6024,,,,,,,,0.053703732,-0.233333355,0,0,0,,0,8,8,28,1,FALCON,C,old,m,./images/FALCON.png,,,,,,,,,,,,,,,,,,,,,,,,,,,,,,,,,,,
,,,,,,,,,,,,,,,,,5fc30c35704ddd267cc9123f,34,2022-02-12_12h16.42.210,lexical_decision_task_DD_L3,2021.2.3,Win32,59.92329818,,,,,,,,,,,0.6224,1,,,,,,,,,,,,,,m,1,0.6224,,,,,,,,0.053703732,-0.233333355,0,0,0,,0,9,9,69,1,COOKER,LB,old,m,./images/COOKERLB.png,,,,,,,,,,,,,,,,,,,,,,,,,,,,,,,,,,,
,,,,,,,,,,,,,,,,,5fc30c35704ddd267cc9123f,34,2022-02-12_12h16.42.210,lexical_decision_task_DD_L3,2021.2.3,Win32,59.92329818,,,,,,,,,,,0.6826,1,,,,,,,,,,,,,,m,1,0.6826,,,,,,,,0.053703732,-0.233333355,0,0,0,,0,10,10,6,1,SQUARE,LB,old,m,./images/SQUARELB.png,,,,,,,,,,,,,,,,,,,,,,,,,,,,,,,,,,,
,,,,,,,,,,,,,,,,,5fc30c35704ddd267cc9123f,34,2022-02-12_12h16.42.210,lexical_decision_task_DD_L3,2021.2.3,Win32,59.92329818,,,,,,,,,,,0.6616,1,,,,,,,,,,,,,,m,1,0.6616,,,,,,,,0.053703732,-0.233333355,0,0,0,,0,11,11,63,1,MIRROR,LB,old,m,./images/MIRRORLB.png,,,,,,,,,,,,,,,,,,,,,,,,,,,,,,,,,,,
,,,,,,,,,,,,,,,,,5fc30c35704ddd267cc9123f,34,2022-02-12_12h16.42.210,lexical_decision_task_DD_L3,2021.2.3,Win32,59.92329818,,,,,,,,,,,0.925,1,,,,,,,,,,,,,,z,1,0.925,,,,,,,,0.053703732,-0.233333355,0,0,0,,0,12,12,155,1,CANGY,LB,old,z,./images/CANGYLB.png,,,,,,,,,,,,,,,,,,,,,,,,,,,,,,,,,,,
,,,,,,,,,,,,,,,,,5fc30c35704ddd267cc9123f,34,2022-02-12_12h16.42.210,lexical_decision_task_DD_L3,2021.2.3,Win32,59.92329818,,,,,,,,,,,0.9113,1,,,,,,,,,,,,,,m,1,0.9113,,,,,,,,0.053703732,-0.233333355,0,0,0,,0,13,13,20,1,CRADLE,HB,old,m,./images/CRADLEHB.png,,,,,,,,,,,,,,,,,,,,,,,,,,,,,,,,,,,
,,,,,,,,,,,,,,,,,5fc30c35704ddd267cc9123f,34,2022-02-12_12h16.42.210,lexical_decision_task_DD_L3,2021.2.3,Win32,59.92329818,,,,,,,,,,,0.8205,1,,,,,,,,,,,,,,z,1,0.8205,,,,,,,,0.053703732,-0.233333355,0,0,0,,0,14,14,149,1,VEASE,LB,old,z,./images/VEASELB.png,,,,,,,,,,,,,,,,,,,,,,,,,,,,,,,,,,,
,,,,,,,,,,,,,,,,,5fc30c35704ddd267cc9123f,34,2022-02-12_12h16.42.210,lexical_decision_task_DD_L3,2021.2.3,Win32,59.92329818,,,,,,,,,,,0.9893,0,,,,,,,,,,,,,,m,0,0.9893,,,,,,,,0.053703732,-0.233333355,0,0,0,,0,15,15,142,1,PLASK,HB,old,z,./images/PLASKHB.png,,,,,,,,,,,,,,,,,,,,,,,,,,,,,,,,,,,
,,,,,,,,,,,,,,,,,5fc30c35704ddd267cc9123f,34,2022-02-12_12h16.42.210,lexical_decision_task_DD_L3,2021.2.3,Win32,59.92329818,,,,,,,,,,,0.5934,1,,,,,,,,,,,,,,m,1,0.5934,,,,,,,,0.053703732,-0.233333355,0,0,0,,0,16,16,55,1,MUFFIN,C,old,m,./images/MUFFIN.png,,,,,,,,,,,,,,,,,,,,,,,,,,,,,,,,,,,
,,,,,,,,,,,,,,,,,5fc30c35704ddd267cc9123f,34,2022-02-12_12h16.42.210,lexical_decision_task_DD_L3,2021.2.3,Win32,59.92329818,,,,,,,,,,,0.7743,1,,,,,,,,,,,,,,z,1,0.7743,,,,,,,,0.053703732,-0.233333355,0,0,0,,0,17,17,141,1,PLEET,C,old,z,./images/PLEET.png,,,,,,,,,,,,,,,,,,,,,,,,,,,,,,,,,,,
,,,,,,,,,,,,,,,,,5fc30c35704ddd267cc9123f,34,2022-02-12_12h16.42.210,lexical_decision_task_DD_L3,2021.2.3,Win32,59.92329818,,,,,,,,,,,0.8963,1,,,,,,,,,,,,,,m,1,0.8963,,,,,,,,0.053703732,-0.233333355,0,0,0,,0,18,18,49,1,DRUMS,C,old,m,./images/DRUMS.png,,,,,,,,,,,,,,,,,,,,,,,,,,,,,,,,,,,
,,,,,,,,,,,,,,,,,5fc30c35704ddd267cc9123f,34,2022-02-12_12h16.42.210,lexical_decision_task_DD_L3,2021.2.3,Win32,59.92329818,,,,,,,,,,,0.8023,1,,,,,,,,,,,,,,z,1,0.8023,,,,,,,,0.053703732,-0.233333355,0,0,0,,0,19,19,92,1,PAIMS,LB,old,z,./images/PAIMSLB.png,,,,,,,,,,,,,,,,,,,,,,,,,,,,,,,,,,,
,,,,,,,,,,,,,,,,,5fc30c35704ddd267cc9123f,34,2022-02-12_12h16.42.210,lexical_decision_task_DD_L3,2021.2.3,Win32,59.92329818,,,,,,,,,,,1.0542,0,,,,,,,,,,,,,,m,0,1.0542,,,,,,,,0.053703732,-0.233333355,0,0,0,,0,20,20,157,1,INLER,HB,old,z,./images/INLERHB.png,,,,,,,,,,,,,,,,,,,,,,,,,,,,,,,,,,,
,,,,,,,,,,,,,,,,,5fc30c35704ddd267cc9123f,34,2022-02-12_12h16.42.210,lexical_decision_task_DD_L3,2021.2.3,Win32,59.92329818,,,,,,,,,,,0.5878,0,,,,,,,,,,,,,,z,0,0.5878,,,,,,,,0.053703732,-0.233333355,0,0,0,,0,21,21,72,1,NOOSE,LB,old,m,./images/NOOSELB.png,,,,,,,,,,,,,,,,,,,,,,,,,,,,,,,,,,,
,,,,,,,,,,,,,,,,,5fc30c35704ddd267cc9123f,34,2022-02-12_12h16.42.210,lexical_decision_task_DD_L3,2021.2.3,Win32,59.92329818,,,,,,,,,,,0.8551,1,,,,,,,,,,,,,,z,1,0.8551,,,,,,,,0.053703732,-0.233333355,0,0,0,,0,22,22,104,1,GITTY,LB,old,z,./images/GITTYLB.png,,,,,,,,,,,,,,,,,,,,,,,,,,,,,,,,,,,
,,,,,,,,,,,,,,,,,5fc30c35704ddd267cc9123f,34,2022-02-12_12h16.42.210,lexical_decision_task_DD_L3,2021.2.3,Win32,59.92329818,,,,,,,,,,,0.5625,1,,,,,,,,,,,,,,m,1,0.5625,,,,,,,,0.053703732,-0.233333355,0,0,0,,0,23,23,33,1,MAGGOT,LB,old,m,./images/MAGGOTLB.png,,,,,,,,,,,,,,,,,,,,,,,,,,,,,,,,,,,
,,,,,,,,,,,,,,,,,5fc30c35704ddd267cc9123f,34,2022-02-12_12h16.42.210,lexical_decision_task_DD_L3,2021.2.3,Win32,59.92329818,,,,,,,,,,,0.6009,1,,,,,,,,,,,,,,m,1,0.6009,,,,,,,,0.053703732,-0.233333355,0,0,0,,0,24,24,54,1,TRIPOD,LB,old,m,./images/TRIPODLB.png,,,,,,,,,,,,,,,,,,,,,,,,,,,,,,,,,,,
,,,,,,,,,,,,,,,,,5fc30c35704ddd267cc9123f,34,2022-02-12_12h16.42.210,lexical_decision_task_DD_L3,2021.2.3,Win32,59.92329818,,,,,,,,,,,0.6615,1,,,,,,,,,,,,,,z,1,0.6615,,,,,,,,0.053703732,-0.233333355,0,0,0,,0,25,25,117,1,STEEG,C,old,z,./images/STEEG.png,,,,,,,,,,,,,,,,,,,,,,,,,,,,,,,,,,,
,,,,,,,,,,,,,,,,,5fc30c35704ddd267cc9123f,34,2022-02-12_12h16.42.210,lexical_decision_task_DD_L3,2021.2.3,Win32,59.92329818,,,,,,,,,,,1.6419,1,,,,,,,,,,,,,,z,1,1.6419,,,,,,,,0.053703732,-0.233333355,0,0,0,,0,26,26,106,1,CLUMS,HB,old,z,./images/CLUMSHB.png,,,,,,,,,,,,,,,,,,,,,,,,,,,,,,,,,,,
,,,,,,,,,,,,,,,,,5fc30c35704ddd267cc9123f,34,2022-02-12_12h16.42.210,lexical_decision_task_DD_L3,2021.2.3,Win32,59.92329818,,,,,,,,,,,1.087,1,,,,,,,,,,,,,,z,1,1.087,,,,,,,,0.053703732,-0.233333355,0,0,0,,0,27,27,118,1,BAVEL,HB,old,z,./images/BAVELHB.png,,,,,,,,,,,,,,,,,,,,,,,,,,,,,,,,,,,
,,,,,,,,,,,,,,,,,5fc30c35704ddd267cc9123f,34,2022-02-12_12h16.42.210,lexical_decision_task_DD_L3,2021.2.3,Win32,59.92329818,,,,,,,,,,,0.7573,1,,,,,,,,,,,,,,z,1,0.7573,,,,,,,,0.053703732,-0.233333355,0,0,0,,0,28,28,96,1,KEAMS,C,old,z,./images/KEAMS.png,,,,,,,,,,,,,,,,,,,,,,,,,,,,,,,,,,,
,,,,,,,,,,,,,,,,,5fc30c35704ddd267cc9123f,34,2022-02-12_12h16.42.210,lexical_decision_task_DD_L3,2021.2.3,Win32,59.92329818,,,,,,,,,,,0.5563,1,,,,,,,,,,,,,,m,1,0.5563,,,,,,,,0.053703732,-0.233333355,0,0,0,,0,29,29,48,1,SPORT,LB,old,m,./images/SPORTLB.png,,,,,,,,,,,,,,,,,,,,,,,,,,,,,,,,,,,
,,,,,,,,,,,,,,,,,5fc30c35704ddd267cc9123f,34,2022-02-12_12h16.42.210,lexical_decision_task_DD_L3,2021.2.3,Win32,59.92329818,,,,,,,,,,,0.7859,1,,,,,,,,,,,,,,z,1,0.7859,,,,,,,,0.053703732,-0.233333355,0,0,0,,0,30,30,115,1,MAWNS,HB,old,z,./images/MAWNSHB.png,,,,,,,,,,,,,,,,,,,,,,,,,,,,,,,,,,,
,,,,,,,,,,,,,,,,,5fc30c35704ddd267cc9123f,34,2022-02-12_12h16.42.210,lexical_decision_task_DD_L3,2021.2.3,Win32,59.92329818,,,,,,,,,,,0.5698,1,,,,,,,,,,,,,,m,1,0.5698,,,,,,,,0.053703732,-0.233333355,0,0,0,,0,31,31,57,1,MOOSE,LB,old,m,./images/MOOSELB.png,,,,,,,,,,,,,,,,,,,,,,,,,,,,,,,,,,,
,,,,,,,,,,,,,,,,,5fc30c35704ddd267cc9123f,34,2022-02-12_12h16.42.210,lexical_decision_task_DD_L3,2021.2.3,Win32,59.92329818,,,,,,,,,,,0.7163,1,,,,,,,,,,,,,,m,1,0.7163,,,,,,,,0.053703732,-0.233333355,0,0,0,,0,32,32,25,1,WRIST,C,old,m,./images/WRIST.png,,,,,,,,,,,,,,,,,,,,,,,,,,,,,,,,,,,
,,,,,,,,,,,,,,,,,5fc30c35704ddd267cc9123f,34,2022-02-12_12h16.42.210,lexical_decision_task_DD_L3,2021.2.3,Win32,59.92329818,,,,,,,,,,,0.7974,1,,,,,,,,,,,,,,m,1,0.7974,,,,,,,,0.053703732,-0.233333355,0,0,0,,0,33,33,3,1,FINGER,LB,old,m,./images/FINGERLB.png,,,,,,,,,,,,,,,,,,,,,,,,,,,,,,,,,,,
,,,,,,,,,,,,,,,,,5fc30c35704ddd267cc9123f,34,2022-02-12_12h16.42.210,lexical_decision_task_DD_L3,2021.2.3,Win32,59.92329818,,,,,,,,,,,0.5596,1,,,,,,,,,,,,,,m,1,0.5596,,,,,,,,0.053703732,-0.233333355,0,0,0,,0,34,34,73,1,SNACK,C,old,m,./images/SNACK.png,,,,,,,,,,,,,,,,,,,,,,,,,,,,,,,,,,,
,,,,,,,,,,,,,,,,,5fc30c35704ddd267cc9123f,34,2022-02-12_12h16.42.210,lexical_decision_task_DD_L3,2021.2.3,Win32,59.92329818,,,,,,,,,,,0.7449,1,,,,,,,,,,,,,,m,1,0.7449,,,,,,,,0.053703732,-0.233333355,0,0,0,,0,35,35,41,1,STRING,HB,old,m,./images/STRINGHB.png,,,,,,,,,,,,,,,,,,,,,,,,,,,,,,,,,,,
,,,,,,,,,,,,,,,,,5fc30c35704ddd267cc9123f,34,2022-02-12_12h16.42.210,lexical_decision_task_DD_L3,2021.2.3,Win32,59.92329818,,,,,,,,,,,0.6386,1,,,,,,,,,,,,,,z,1,0.6386,,,,,,,,0.053703732,-0.233333355,0,0,0,,0,36,36,156,1,HIXES,C,old,z,./images/HIXES.png,,,,,,,,,,,,,,,,,,,,,,,,,,,,,,,,,,,
,,,,,,,,,,,,,,,,,5fc30c35704ddd267cc9123f,34,2022-02-12_12h16.42.210,lexical_decision_task_DD_L3,2021.2.3,Win32,59.92329818,,,,,,,,,,,0.8481,1,,,,,,,,,,,,,,z,1,0.8481,,,,,,,,0.053703732,-0.233333355,0,0,0,,0,37,37,98,1,BAMPS,LB,old,z,./images/BAMPSLB.png,,,,,,,,,,,,,,,,,,,,,,,,,,,,,,,,,,,
,,,,,,,,,,,,,,,,,5fc30c35704ddd267cc9123f,34,2022-02-12_12h16.42.210,lexical_decision_task_DD_L3,2021.2.3,Win32,59.92329818,,,,,,,,,,,1.2801,1,,,,,,,,,,,,,,z,1,1.2801,,,,,,,,0.053703732,-0.233333355,0,0,0,,0,38,38,91,1,SHENS,HB,old,z,./images/SHENSHB.png,,,,,,,,,,,,,,,,,,,,,,,,,,,,,,,,,,,
,,,,,,,,,,,,,,,,,5fc30c35704ddd267cc9123f,34,2022-02-12_12h16.42.210,lexical_decision_task_DD_L3,2021.2.3,Win32,59.92329818,,,,,,,,,,,0.7233,1,,,,,,,,,,,,,,z,1,0.7233,,,,,,,,0.053703732,-0.233333355,0,0,0,,0,39,39,108,1,GRUET,C,old,z,./images/GRUET.png,,,,,,,,,,,,,,,,,,,,,,,,,,,,,,,,,,,
,,,,,,,,,,,,,,,,,5fc30c35704ddd267cc9123f,34,2022-02-12_12h16.42.210,lexical_decision_task_DD_L3,2021.2.3,Win32,59.92329818,,,,,,,,,,,0.9161,1,,,,,,,,,,,,,,m,1,0.9161,,,,,,,,0.053703732,-0.233333355,0,0,0,,0,40,40,15,1,GREASE,LB,old,m,./images/GREASELB.png,,,,,,,,,,,,,,,,,,,,,,,,,,,,,,,,,,,
,,,,,,,,,,,,,,,,,5fc30c35704ddd267cc9123f,34,2022-02-12_12h16.42.210,lexical_decision_task_DD_L3,2021.2.3,Win32,59.92329818,,,,,,,,,,,0.6036,1,,,,,,,,,,,,,,m,1,0.6036,,,,,,,,0.053703732,-0.233333355,0,0,0,space,0,41,41,13,1,MOTOR,C,old,m,./images/MOTOR.png,15.1989,,,,,,,,,,,,,,,,,,,,,,,,,,,,,,,,,,
,,,,,,,,,,,,,,,,,5fc30c35704ddd267cc9123f,34,2022-02-12_12h16.42.210,lexical_decision_task_DD_L3,2021.2.3,Win32,59.92329818,,,,,,,,,,,1.359,1,,,,,,,,,,,,,,m,1,1.359,,,,,,,,0.425925954,-0.319444444,0,0,0,,0,42,42,47,1,BERRY,HB,old,m,./images/BERRYHB.png,,,,,,,,,,,,,,,,,,,,,,,,,,,,,,,,,,,
,,,,,,,,,,,,,,,,,5fc30c35704ddd267cc9123f,34,2022-02-12_12h16.42.210,lexical_decision_task_DD_L3,2021.2.3,Win32,59.92329818,,,,,,,,,,,0.7051,1,,,,,,,,,,,,,,m,1,0.7051,,,,,,,,0.425925954,-0.319444444,0,0,0,,0,43,43,83,1,JUNGLE,HB,old,m,./images/JUNGLEHB.png,,,,,,,,,,,,,,,,,,,,,,,,,,,,,,,,,,,
,,,,,,,,,,,,,,,,,5fc30c35704ddd267cc9123f,34,2022-02-12_12h16.42.210,lexical_decision_task_DD_L3,2021.2.3,Win32,59.92329818,,,,,,,,,,,1.185,1,,,,,,,,,,,,,,z,1,1.185,,,,,,,,0.425925954,-0.319444444,0,0,0,,0,44,44,139,1,BLEAR,HB,old,z,./images/BLEARHB.png,,,,,,,,,,,,,,,,,,,,,,,,,,,,,,,,,,,
,,,,,,,,,,,,,,,,,5fc30c35704ddd267cc9123f,34,2022-02-12_12h16.42.210,lexical_decision_task_DD_L3,2021.2.3,Win32,59.92329818,,,,,,,,,,,1.054,1,,,,,,,,,,,,,,m,1,1.054,,,,,,,,0.425925954,-0.319444444,0,0,0,,0,45,45,32,1,BARREL,HB,old,m,./images/BARRELHB.png,,,,,,,,,,,,,,,,,,,,,,,,,,,,,,,,,,,
,,,,,,,,,,,,,,,,,5fc30c35704ddd267cc9123f,34,2022-02-12_12h16.42.210,lexical_decision_task_DD_L3,2021.2.3,Win32,59.92329818,,,,,,,,,,,0.7025,1,,,,,,,,,,,,,,z,1,0.7025,,,,,,,,0.425925954,-0.319444444,0,0,0,,0,46,46,164,1,SGREW,LB,old,z,./images/SGREWLB.png,,,,,,,,,,,,,,,,,,,,,,,,,,,,,,,,,,,
,,,,,,,,,,,,,,,,,5fc30c35704ddd267cc9123f,34,2022-02-12_12h16.42.210,lexical_decision_task_DD_L3,2021.2.3,Win32,59.92329818,,,,,,,,,,,1.2026,0,,,,,,,,,,,,,,m,0,1.2026,,,,,,,,0.425925954,-0.319444444,0,0,0,,0,47,47,151,1,TINKY,HB,old,z,./images/TINKYHB.png,,,,,,,,,,,,,,,,,,,,,,,,,,,,,,,,,,,
,,,,,,,,,,,,,,,,,5fc30c35704ddd267cc9123f,34,2022-02-12_12h16.42.210,lexical_decision_task_DD_L3,2021.2.3,Win32,59.92329818,,,,,,,,,,,0.7703,1,,,,,,,,,,,,,,m,1,0.7703,,,,,,,,0.425925954,-0.319444444,0,0,0,,0,48,48,14,1,PICKLE,HB,old,m,./images/PICKLEHB.png,,,,,,,,,,,,,,,,,,,,,,,,,,,,,,,,,,,
,,,,,,,,,,,,,,,,,5fc30c35704ddd267cc9123f,34,2022-02-12_12h16.42.210,lexical_decision_task_DD_L3,2021.2.3,Win32,59.92329818,,,,,,,,,,,1.784,1,,,,,,,,,,,,,,z,1,1.784,,,,,,,,0.425925954,-0.319444444,0,0,0,,0,49,49,103,1,FLORT,HB,old,z,./images/FLORTHB.png,,,,,,,,,,,,,,,,,,,,,,,,,,,,,,,,,,,
,,,,,,,,,,,,,,,,,5fc30c35704ddd267cc9123f,34,2022-02-12_12h16.42.210,lexical_decision_task_DD_L3,2021.2.3,Win32,59.92329818,,,,,,,,,,,0.6684,1,,,,,,,,,,,,,,m,1,0.6684,,,,,,,,0.425925954,-0.319444444,0,0,0,,0,50,50,36,1,THROAT,LB,old,m,./images/THROATLB.png,,,,,,,,,,,,,,,,,,,,,,,,,,,,,,,,,,,
,,,,,,,,,,,,,,,,,5fc30c35704ddd267cc9123f,34,2022-02-12_12h16.42.210,lexical_decision_task_DD_L3,2021.2.3,Win32,59.92329818,,,,,,,,,,,1.1992,1,,,,,,,,,,,,,,m,1,1.1992,,,,,,,,0.425925954,-0.319444444,0,0,0,,0,51,51,23,1,WALRUS,HB,old,m,./images/WALRUSHB.png,,,,,,,,,,,,,,,,,,,,,,,,,,,,,,,,,,,
,,,,,,,,,,,,,,,,,5fc30c35704ddd267cc9123f,34,2022-02-12_12h16.42.210,lexical_decision_task_DD_L3,2021.2.3,Win32,59.92329818,,,,,,,,,,,1.3529,1,,,,,,,,,,,,,,z,1,1.3529,,,,,,,,0.425925954,-0.319444444,0,0,0,,0,52,52,145,1,LAMEL,HB,old,z,./images/LAMELHB.png,,,,,,,,,,,,,,,,,,,,,,,,,,,,,,,,,,,
,,,,,,,,,,,,,,,,,5fc30c35704ddd267cc9123f,34,2022-02-12_12h16.42.210,lexical_decision_task_DD_L3,2021.2.3,Win32,59.92329818,,,,,,,,,,,0.7922,1,,,,,,,,,,,,,,z,1,0.7922,,,,,,,,0.425925954,-0.319444444,0,0,0,,0,53,53,89,1,DRIEK,LB,old,z,./images/DRIEKLB.png,,,,,,,,,,,,,,,,,,,,,,,,,,,,,,,,,,,
,,,,,,,,,,,,,,,,,5fc30c35704ddd267cc9123f,34,2022-02-12_12h16.42.210,lexical_decision_task_DD_L3,2021.2.3,Win32,59.92329818,,,,,,,,,,,0.755,1,,,,,,,,,,,,,,z,1,0.755,,,,,,,,0.425925954,-0.319444444,0,0,0,,0,54,54,153,1,CLUPS,C,old,z,./images/CLUPS.png,,,,,,,,,,,,,,,,,,,,,,,,,,,,,,,,,,,
,,,,,,,,,,,,,,,,,5fc30c35704ddd267cc9123f,34,2022-02-12_12h16.42.210,lexical_decision_task_DD_L3,2021.2.3,Win32,59.92329818,,,,,,,,,,,0.7836,1,,,,,,,,,,,,,,m,1,0.7836,,,,,,,,0.425925954,-0.319444444,0,0,0,,0,55,55,59,1,BURIAL,HB,old,m,./images/BURIALHB.png,,,,,,,,,,,,,,,,,,,,,,,,,,,,,,,,,,,
,,,,,,,,,,,,,,,,,5fc30c35704ddd267cc9123f,34,2022-02-12_12h16.42.210,lexical_decision_task_DD_L3,2021.2.3,Win32,59.92329818,,,,,,,,,,,0.6198,1,,,,,,,,,,,,,,m,1,0.6198,,,,,,,,0.425925954,-0.319444444,0,0,0,,0,56,56,77,1,COUCH,HB,old,m,./images/COUCHHB.png,,,,,,,,,,,,,,,,,,,,,,,,,,,,,,,,,,,
,,,,,,,,,,,,,,,,,5fc30c35704ddd267cc9123f,34,2022-02-12_12h16.42.210,lexical_decision_task_DD_L3,2021.2.3,Win32,59.92329818,,,,,,,,,,,0.9024,1,,,,,,,,,,,,,,z,1,0.9024,,,,,,,,0.425925954,-0.319444444,0,0,0,,0,57,57,152,1,FRAIN,LB,old,z,./images/FRAINLB.png,,,,,,,,,,,,,,,,,,,,,,,,,,,,,,,,,,,
,,,,,,,,,,,,,,,,,5fc30c35704ddd267cc9123f,34,2022-02-12_12h16.42.210,lexical_decision_task_DD_L3,2021.2.3,Win32,59.92329818,,,,,,,,,,,1.1942,1,,,,,,,,,,,,,,m,1,1.1942,,,,,,,,0.425925954,-0.319444444,0,0,0,,0,58,58,26,1,SMOKER,HB,old,m,./images/SMOKERHB.png,,,,,,,,,,,,,,,,,,,,,,,,,,,,,,,,,,,
,,,,,,,,,,,,,,,,,5fc30c35704ddd267cc9123f,34,2022-02-12_12h16.42.210,lexical_decision_task_DD_L3,2021.2.3,Win32,59.92329818,,,,,,,,,,,2.031,1,,,,,,,,,,,,,,z,1,2.031,,,,,,,,0.425925954,-0.319444444,0,0,0,,0,59,59,146,1,MOOST,LB,old,z,./images/MOOSTLB.png,,,,,,,,,,,,,,,,,,,,,,,,,,,,,,,,,,,
,,,,,,,,,,,,,,,,,5fc30c35704ddd267cc9123f,34,2022-02-12_12h16.42.210,lexical_decision_task_DD_L3,2021.2.3,Win32,59.92329818,,,,,,,,,,,0.6711,1,,,,,,,,,,,,,,z,1,0.6711,,,,,,,,0.425925954,-0.319444444,0,0,0,,0,60,60,132,1,SCIFF,C,old,z,./images/SCIFF.png,,,,,,,,,,,,,,,,,,,,,,,,,,,,,,,,,,,
,,,,,,,,,,,,,,,,,5fc30c35704ddd267cc9123f,34,2022-02-12_12h16.42.210,lexical_decision_task_DD_L3,2021.2.3,Win32,59.92329818,,,,,,,,,,,1.3808,1,,,,,,,,,,,,,,z,1,1.3808,,,,,,,,0.425925954,-0.319444444,0,0,0,,0,61,61,154,1,THINT,HB,old,z,./images/THINTHB.png,,,,,,,,,,,,,,,,,,,,,,,,,,,,,,,,,,,
,,,,,,,,,,,,,,,,,5fc30c35704ddd267cc9123f,34,2022-02-12_12h16.42.210,lexical_decision_task_DD_L3,2021.2.3,Win32,59.92329818,,,,,,,,,,,1.3668,1,,,,,,,,,,,,,,m,1,1.3668,,,,,,,,0.425925954,-0.319444444,0,0,0,,0,62,62,29,1,CRUMB,HB,old,m,./images/CRUMBHB.png,,,,,,,,,,,,,,,,,,,,,,,,,,,,,,,,,,,
,,,,,,,,,,,,,,,,,5fc30c35704ddd267cc9123f,34,2022-02-12_12h16.42.210,lexical_decision_task_DD_L3,2021.2.3,Win32,59.92329818,,,,,,,,,,,0.8213,1,,,,,,,,,,,,,,z,1,0.8213,,,,,,,,0.425925954,-0.319444444,0,0,0,,0,63,63,102,1,DULLE,C,old,z,./images/DULLE.png,,,,,,,,,,,,,,,,,,,,,,,,,,,,,,,,,,,
,,,,,,,,,,,,,,,,,5fc30c35704ddd267cc9123f,34,2022-02-12_12h16.42.210,lexical_decision_task_DD_L3,2021.2.3,Win32,59.92329818,,,,,,,,,,,0.7197,1,,,,,,,,,,,,,,z,1,0.7197,,,,,,,,0.425925954,-0.319444444,0,0,0,,0,64,64,159,1,CUDDY,C,old,z,./images/CUDDY.png,,,,,,,,,,,,,,,,,,,,,,,,,,,,,,,,,,,
,,,,,,,,,,,,,,,,,5fc30c35704ddd267cc9123f,34,2022-02-12_12h16.42.210,lexical_decision_task_DD_L3,2021.2.3,Win32,59.92329818,,,,,,,,,,,0.6391,1,,,,,,,,,,,,,,z,1,0.6391,,,,,,,,0.425925954,-0.319444444,0,0,0,,0,65,65,116,1,BALGY,LB,old,z,./images/BALGYLB.png,,,,,,,,,,,,,,,,,,,,,,,,,,,,,,,,,,,
,,,,,,,,,,,,,,,,,5fc30c35704ddd267cc9123f,34,2022-02-12_12h16.42.210,lexical_decision_task_DD_L3,2021.2.3,Win32,59.92329818,,,,,,,,,,,0.8356,1,,,,,,,,,,,,,,z,1,0.8356,,,,,,,,0.425925954,-0.319444444,0,0,0,,0,66,66,165,1,TROWN,C,old,z,./images/TROWN.png,,,,,,,,,,,,,,,,,,,,,,,,,,,,,,,,,,,
,,,,,,,,,,,,,,,,,5fc30c35704ddd267cc9123f,34,2022-02-12_12h16.42.210,lexical_decision_task_DD_L3,2021.2.3,Win32,59.92329818,,,,,,,,,,,1.14,0,,,,,,,,,,,,,,m,0,1.14,,,,,,,,0.425925954,-0.319444444,0,0,0,,0,67,67,166,1,SHORY,HB,old,z,./images/SHORYHB.png,,,,,,,,,,,,,,,,,,,,,,,,,,,,,,,,,,,
,,,,,,,,,,,,,,,,,5fc30c35704ddd267cc9123f,34,2022-02-12_12h16.42.210,lexical_decision_task_DD_L3,2021.2.3,Win32,59.92329818,,,,,,,,,,,0.8042,1,,,,,,,,,,,,,,z,1,0.8042,,,,,,,,0.425925954,-0.319444444,0,0,0,,0,68,68,90,1,NEAST,C,old,z,./images/NEAST.png,,,,,,,,,,,,,,,,,,,,,,,,,,,,,,,,,,,
,,,,,,,,,,,,,,,,,5fc30c35704ddd267cc9123f,34,2022-02-12_12h16.42.210,lexical_decision_task_DD_L3,2021.2.3,Win32,59.92329818,,,,,,,,,,,0.9443,1,,,,,,,,,,,,,,z,1,0.9443,,,,,,,,0.425925954,-0.319444444,0,0,0,,0,69,69,137,1,JOOST,LB,old,z,./images/JOOSTLB.png,,,,,,,,,,,,,,,,,,,,,,,,,,,,,,,,,,,
,,,,,,,,,,,,,,,,,5fc30c35704ddd267cc9123f,34,2022-02-12_12h16.42.210,lexical_decision_task_DD_L3,2021.2.3,Win32,59.92329818,,,,,,,,,,,0.6536,1,,,,,,,,,,,,,,m,1,0.6536,,,,,,,,0.425925954,-0.319444444,0,0,0,,0,70,70,7,1,PAINT,C,old,m,./images/PAINT.png,,,,,,,,,,,,,,,,,,,,,,,,,,,,,,,,,,,
,,,,,,,,,,,,,,,,,5fc30c35704ddd267cc9123f,34,2022-02-12_12h16.42.210,lexical_decision_task_DD_L3,2021.2.3,Win32,59.92329818,,,,,,,,,,,0.7178,1,,,,,,,,,,,,,,z,1,0.7178,,,,,,,,0.425925954,-0.319444444,0,0,0,,0,71,71,138,1,PLICE,C,old,z,./images/PLICE.png,,,,,,,,,,,,,,,,,,,,,,,,,,,,,,,,,,,
,,,,,,,,,,,,,,,,,5fc30c35704ddd267cc9123f,34,2022-02-12_12h16.42.210,lexical_decision_task_DD_L3,2021.2.3,Win32,59.92329818,,,,,,,,,,,0.736,1,,,,,,,,,,,,,,m,1,0.736,,,,,,,,0.425925954,-0.319444444,0,0,0,,0,72,72,68,1,TORCH,HB,old,m,./images/TORCHHB.png,,,,,,,,,,,,,,,,,,,,,,,,,,,,,,,,,,,
,,,,,,,,,,,,,,,,,5fc30c35704ddd267cc9123f,34,2022-02-12_12h16.42.210,lexical_decision_task_DD_L3,2021.2.3,Win32,59.92329818,,,,,,,,,,,1.0455,1,,,,,,,,,,,,,,m,1,1.0455,,,,,,,,0.425925954,-0.319444444,0,0,0,,0,73,73,58,1,BABOON,C,old,m,./images/BABOON.png,,,,,,,,,,,,,,,,,,,,,,,,,,,,,,,,,,,
,,,,,,,,,,,,,,,,,5fc30c35704ddd267cc9123f,34,2022-02-12_12h16.42.210,lexical_decision_task_DD_L3,2021.2.3,Win32,59.92329818,,,,,,,,,,,0.6853,1,,,,,,,,,,,,,,z,1,0.6853,,,,,,,,0.425925954,-0.319444444,0,0,0,,0,74,74,99,1,BACKY,C,old,z,./images/BACKY.png,,,,,,,,,,,,,,,,,,,,,,,,,,,,,,,,,,,
,,,,,,,,,,,,,,,,,5fc30c35704ddd267cc9123f,34,2022-02-12_12h16.42.210,lexical_decision_task_DD_L3,2021.2.3,Win32,59.92329818,,,,,,,,,,,0.9213,1,,,,,,,,,,,,,,z,1,0.9213,,,,,,,,0.425925954,-0.319444444,0,0,0,,0,75,75,126,1,GUELS,C,old,z,./images/GUELS.png,,,,,,,,,,,,,,,,,,,,,,,,,,,,,,,,,,,
,,,,,,,,,,,,,,,,,5fc30c35704ddd267cc9123f,34,2022-02-12_12h16.42.210,lexical_decision_task_DD_L3,2021.2.3,Win32,59.92329818,,,,,,,,,,,1.1661,1,,,,,,,,,,,,,,m,1,1.1661,,,,,,,,0.425925954,-0.319444444,0,0,0,,0,76,76,71,1,PIMPLE,HB,old,m,./images/PIMPLEHB.png,,,,,,,,,,,,,,,,,,,,,,,,,,,,,,,,,,,
,,,,,,,,,,,,,,,,,5fc30c35704ddd267cc9123f,34,2022-02-12_12h16.42.210,lexical_decision_task_DD_L3,2021.2.3,Win32,59.92329818,,,,,,,,,,,0.7358,1,,,,,,,,,,,,,,m,1,0.7358,,,,,,,,0.425925954,-0.319444444,0,0,0,,0,77,77,67,1,SAILOR,C,old,m,./images/SAILOR.png,,,,,,,,,,,,,,,,,,,,,,,,,,,,,,,,,,,
,,,,,,,,,,,,,,,,,5fc30c35704ddd267cc9123f,34,2022-02-12_12h16.42.210,lexical_decision_task_DD_L3,2021.2.3,Win32,59.92329818,,,,,,,,,,,0.8875,1,,,,,,,,,,,,,,z,1,0.8875,,,,,,,,0.425925954,-0.319444444,0,0,0,,0,78,78,105,1,MOKER,C,old,z,./images/MOKER.png,,,,,,,,,,,,,,,,,,,,,,,,,,,,,,,,,,,
,,,,,,,,,,,,,,,,,5fc30c35704ddd267cc9123f,34,2022-02-12_12h16.42.210,lexical_decision_task_DD_L3,2021.2.3,Win32,59.92329818,,,,,,,,,,,0.9517,1,,,,,,,,,,,,,,m,1,0.9517,,,,,,,,0.425925954,-0.319444444,0,0,0,,0,79,79,5,1,PASTA,HB,old,m,./images/PASTAHB.png,,,,,,,,,,,,,,,,,,,,,,,,,,,,,,,,,,,
,,,,,,,,,,,,,,,,,5fc30c35704ddd267cc9123f,34,2022-02-12_12h16.42.210,lexical_decision_task_DD_L3,2021.2.3,Win32,59.92329818,,,,,,,,,,,1.0527,1,,,,,,,,,,,,,,m,1,1.0527,,,,,,,,0.425925954,-0.319444444,0,0,0,,0,80,80,74,1,CEMENT,HB,old,m,./images/CEMENTHB.png,,,,,,,,,,,,,,,,,,,,,,,,,,,,,,,,,,,
,,,,,,,,,,,,,,,,,5fc30c35704ddd267cc9123f,34,2022-02-12_12h16.42.210,lexical_decision_task_DD_L3,2021.2.3,Win32,59.92329818,,,,,,,,,,,1.385,1,,,,,,,,,,,,,,z,1,1.385,,,,,,,,0.425925954,-0.319444444,0,0,0,,0,81,81,127,1,NINDY,HB,old,z,./images/NINDYHB.png,,,,,,,,,,,,,,,,,,,,,,,,,,,,,,,,,,,
,,,,,,,,,,,,,,,,,5fc30c35704ddd267cc9123f,34,2022-02-12_12h16.42.210,lexical_decision_task_DD_L3,2021.2.3,Win32,59.92329818,,,,,,,,,,,0.6727,0,,,,,,,,,,,,,,m,0,0.6727,,,,,,,,0.425925954,-0.319444444,0,0,0,,0,82,82,120,1,RINED,C,old,z,./images/RINED.png,,,,,,,,,,,,,,,,,,,,,,,,,,,,,,,,,,,
,,,,,,,,,,,,,,,,,5fc30c35704ddd267cc9123f,34,2022-02-12_12h16.42.210,lexical_decision_task_DD_L3,2021.2.3,Win32,59.92329818,,,,,,,,,,,0.6252,1,,,,,,,,,,,,,,z,1,0.6252,,,,,,,,0.425925954,-0.319444444,0,0,0,space,0,83,83,144,1,NAIRY,C,old,z,./images/NAIRY.png,20.2453,,,,,,,,,,,,,,,,,,,,,,,,,,,,,,,,,,
,,,,,,,,,,,,,,,,,5fc30c35704ddd267cc9123f,34,2022-02-12_12h16.42.210,lexical_decision_task_DD_L3,2021.2.3,Win32,59.92329818,,,,,,,,,,,1.2339,1,,,,,,,,,,,,,,z,1,1.2339,,,,,,,,0.425925954,-0.319444444,0,0,0,,0,84,84,100,1,DRIBS,HB,old,z,./images/DRIBSHB.png,,,,,,,,,,,,,,,,,,,,,,,,,,,,,,,,,,,
,,,,,,,,,,,,,,,,,5fc30c35704ddd267cc9123f,34,2022-02-12_12h16.42.210,lexical_decision_task_DD_L3,2021.2.3,Win32,59.92329818,,,,,,,,,,,0.7554,1,,,,,,,,,,,,,,z,1,0.7554,,,,,,,,0.425925954,-0.319444444,0,0,0,,0,85,85,93,1,SMONE,C,old,z,./images/SMONE.png,,,,,,,,,,,,,,,,,,,,,,,,,,,,,,,,,,,
,,,,,,,,,,,,,,,,,5fc30c35704ddd267cc9123f,34,2022-02-12_12h16.42.210,lexical_decision_task_DD_L3,2021.2.3,Win32,59.92329818,,,,,,,,,,,0.5632,1,,,,,,,,,,,,,,m,1,0.5632,,,,,,,,0.425925954,-0.319444444,0,0,0,,0,86,86,75,1,GRAIN,LB,old,m,./images/GRAINLB.png,,,,,,,,,,,,,,,,,,,,,,,,,,,,,,,,,,,
,,,,,,,,,,,,,,,,,5fc30c35704ddd267cc9123f,34,2022-02-12_12h16.42.210,lexical_decision_task_DD_L3,2021.2.3,Win32,59.92329818,,,,,,,,,,,0.9905,0,,,,,,,,,,,,,,z,0,0.9905,,,,,,,,0.425925954,-0.319444444,0,0,0,,0,87,87,50,1,MALLET,HB,old,m,./images/MALLETHB.png,,,,,,,,,,,,,,,,,,,,,,,,,,,,,,,,,,,
,,,,,,,,,,,,,,,,,5fc30c35704ddd267cc9123f,34,2022-02-12_12h16.42.210,lexical_decision_task_DD_L3,2021.2.3,Win32,59.92329818,,,,,,,,,,,0.554,1,,,,,,,,,,,,,,m,1,0.554,,,,,,,,0.425925954,-0.319444444,0,0,0,,0,88,88,39,1,SHELF,LB,old,m,./images/SHELFLB.png,,,,,,,,,,,,,,,,,,,,,,,,,,,,,,,,,,,
,,,,,,,,,,,,,,,,,5fc30c35704ddd267cc9123f,34,2022-02-12_12h16.42.210,lexical_decision_task_DD_L3,2021.2.3,Win32,59.92329818,,,,,,,,,,,0.5816,1,,,,,,,,,,,,,,m,1,0.5816,,,,,,,,0.425925954,-0.319444444,0,0,0,,0,89,89,66,1,SWEAT,LB,old,m,./images/SWEATLB.png,,,,,,,,,,,,,,,,,,,,,,,,,,,,,,,,,,,
,,,,,,,,,,,,,,,,,5fc30c35704ddd267cc9123f,34,2022-02-12_12h16.42.210,lexical_decision_task_DD_L3,2021.2.3,Win32,59.92329818,,,,,,,,,,,0.6056,1,,,,,,,,,,,,,,m,1,0.6056,,,,,,,,0.425925954,-0.319444444,0,0,0,,0,90,90,10,1,BELLY,C,old,m,./images/BELLY.png,,,,,,,,,,,,,,,,,,,,,,,,,,,,,,,,,,,
,,,,,,,,,,,,,,,,,5fc30c35704ddd267cc9123f,34,2022-02-12_12h16.42.210,lexical_decision_task_DD_L3,2021.2.3,Win32,59.92329818,,,,,,,,,,,0.547,1,,,,,,,,,,,,,,m,1,0.547,,,,,,,,0.425925954,-0.319444444,0,0,0,,0,91,91,45,1,KITTEN,LB,old,m,./images/KITTENLB.png,,,,,,,,,,,,,,,,,,,,,,,,,,,,,,,,,,,
,,,,,,,,,,,,,,,,,5fc30c35704ddd267cc9123f,34,2022-02-12_12h16.42.210,lexical_decision_task_DD_L3,2021.2.3,Win32,59.92329818,,,,,,,,,,,1.1839,1,,,,,,,,,,,,,,z,1,1.1839,,,,,,,,0.425925954,-0.319444444,0,0,0,,0,92,92,94,1,BLANS,HB,old,z,./images/BLANSHB.png,,,,,,,,,,,,,,,,,,,,,,,,,,,,,,,,,,,
,,,,,,,,,,,,,,,,,5fc30c35704ddd267cc9123f,34,2022-02-12_12h16.42.210,lexical_decision_task_DD_L3,2021.2.3,Win32,59.92329818,,,,,,,,,,,0.7707,1,,,,,,,,,,,,,,z,1,0.7707,,,,,,,,0.425925954,-0.319444444,0,0,0,,0,93,93,140,1,DOVET,LB,old,z,./images/DOVETLB.png,,,,,,,,,,,,,,,,,,,,,,,,,,,,,,,,,,,
,,,,,,,,,,,,,,,,,5fc30c35704ddd267cc9123f,34,2022-02-12_12h16.42.210,lexical_decision_task_DD_L3,2021.2.3,Win32,59.92329818,,,,,,,,,,,0.6399,1,,,,,,,,,,,,,,z,1,0.6399,,,,,,,,0.425925954,-0.319444444,0,0,0,,0,94,94,129,1,PRANS,C,old,z,./images/PRANS.png,,,,,,,,,,,,,,,,,,,,,,,,,,,,,,,,,,,
,,,,,,,,,,,,,,,,,5fc30c35704ddd267cc9123f,34,2022-02-12_12h16.42.210,lexical_decision_task_DD_L3,2021.2.3,Win32,59.92329818,,,,,,,,,,,0.6228,1,,,,,,,,,,,,,,z,1,0.6228,,,,,,,,0.425925954,-0.319444444,0,0,0,,0,95,95,150,1,NOOLS,C,old,z,./images/NOOLS.png,,,,,,,,,,,,,,,,,,,,,,,,,,,,,,,,,,,
,,,,,,,,,,,,,,,,,5fc30c35704ddd267cc9123f,34,2022-02-12_12h16.42.210,lexical_decision_task_DD_L3,2021.2.3,Win32,59.92329818,,,,,,,,,,,0.6966,1,,,,,,,,,,,,,,z,1,0.6966,,,,,,,,0.425925954,-0.319444444,0,0,0,,0,96,96,161,1,BLAPS,LB,old,z,./images/BLAPSLB.png,,,,,,,,,,,,,,,,,,,,,,,,,,,,,,,,,,,
,,,,,,,,,,,,,,,,,5fc30c35704ddd267cc9123f,34,2022-02-12_12h16.42.210,lexical_decision_task_DD_L3,2021.2.3,Win32,59.92329818,,,,,,,,,,,0.5788,0,,,,,,,,,,,,,,m,0,0.5788,,,,,,,,0.425925954,-0.319444444,0,0,0,,0,97,97,128,1,GRIFT,LB,old,z,./images/GRIFTLB.png,,,,,,,,,,,,,,,,,,,,,,,,,,,,,,,,,,,
,,,,,,,,,,,,,,,,,5fc30c35704ddd267cc9123f,34,2022-02-12_12h16.42.210,lexical_decision_task_DD_L3,2021.2.3,Win32,59.92329818,,,,,,,,,,,1.1532,1,,,,,,,,,,,,,,m,1,1.1532,,,,,,,,0.425925954,-0.319444444,0,0,0,,0,98,98,16,1,PENCE,C,old,m,./images/PENCE.png,,,,,,,,,,,,,,,,,,,,,,,,,,,,,,,,,,,
,,,,,,,,,,,,,,,,,5fc30c35704ddd267cc9123f,34,2022-02-12_12h16.42.210,lexical_decision_task_DD_L3,2021.2.3,Win32,59.92329818,,,,,,,,,,,0.8962,1,,,,,,,,,,,,,,z,1,0.8962,,,,,,,,0.425925954,-0.319444444,0,0,0,,0,99,99,97,1,CHIDS,HB,old,z,./images/CHIDSHB.png,,,,,,,,,,,,,,,,,,,,,,,,,,,,,,,,,,,
,,,,,,,,,,,,,,,,,5fc30c35704ddd267cc9123f,34,2022-02-12_12h16.42.210,lexical_decision_task_DD_L3,2021.2.3,Win32,59.92329818,,,,,,,,,,,0.533,1,,,,,,,,,,,,,,m,1,0.533,,,,,,,,0.425925954,-0.319444444,0,0,0,,0,100,100,46,1,PEARL,C,old,m,./images/PEARL.png,,,,,,,,,,,,,,,,,,,,,,,,,,,,,,,,,,,
,,,,,,,,,,,,,,,,,5fc30c35704ddd267cc9123f,34,2022-02-12_12h16.42.210,lexical_decision_task_DD_L3,2021.2.3,Win32,59.92329818,,,,,,,,,,,1.0509,1,,,,,,,,,,,,,,z,1,1.0509,,,,,,,,0.425925954,-0.319444444,0,0,0,,0,101,101,130,1,CRILL,HB,old,z,./images/CRILLHB.png,,,,,,,,,,,,,,,,,,,,,,,,,,,,,,,,,,,
,,,,,,,,,,,,,,,,,5fc30c35704ddd267cc9123f,34,2022-02-12_12h16.42.210,lexical_decision_task_DD_L3,2021.2.3,Win32,59.92329818,,,,,,,,,,,0.8213,1,,,,,,,,,,,,,,z,1,0.8213,,,,,,,,0.425925954,-0.319444444,0,0,0,,0,102,102,158,1,EGECT,LB,old,z,./images/EGECTLB.png,,,,,,,,,,,,,,,,,,,,,,,,,,,,,,,,,,,
,,,,,,,,,,,,,,,,,5fc30c35704ddd267cc9123f,34,2022-02-12_12h16.42.210,lexical_decision_task_DD_L3,2021.2.3,Win32,59.92329818,,,,,,,,,,,1.6363,1,,,,,,,,,,,,,,z,1,1.6363,,,,,,,,0.425925954,-0.319444444,0,0,0,,0,103,103,107,1,FASKS,LB,old,z,./images/FASKSLB.png,,,,,,,,,,,,,,,,,,,,,,,,,,,,,,,,,,,
,,,,,,,,,,,,,,,,,5fc30c35704ddd267cc9123f,34,2022-02-12_12h16.42.210,lexical_decision_task_DD_L3,2021.2.3,Win32,59.92329818,,,,,,,,,,,0.6654,1,,,,,,,,,,,,,,m,1,0.6654,,,,,,,,0.425925954,-0.319444444,0,0,0,,0,104,104,80,1,WEASEL,HB,old,m,./images/WEASELHB.png,,,,,,,,,,,,,,,,,,,,,,,,,,,,,,,,,,,
,,,,,,,,,,,,,,,,,5fc30c35704ddd267cc9123f,34,2022-02-12_12h16.42.210,lexical_decision_task_DD_L3,2021.2.3,Win32,59.92329818,,,,,,,,,,,0.7849,1,,,,,,,,,,,,,,m,1,0.7849,,,,,,,,0.425925954,-0.319444444,0,0,0,,0,105,105,11,1,BONNET,HB,old,m,./images/BONNETHB.png,,,,,,,,,,,,,,,,,,,,,,,,,,,,,,,,,,,
,,,,,,,,,,,,,,,,,5fc30c35704ddd267cc9123f,34,2022-02-12_12h16.42.210,lexical_decision_task_DD_L3,2021.2.3,Win32,59.92329818,,,,,,,,,,,1.2721,1,,,,,,,,,,,,,,z,1,1.2721,,,,,,,,0.425925954,-0.319444444,0,0,0,,0,106,106,85,1,CHULK,HB,old,z,./images/CHULKHB.png,,,,,,,,,,,,,,,,,,,,,,,,,,,,,,,,,,,
,,,,,,,,,,,,,,,,,5fc30c35704ddd267cc9123f,34,2022-02-12_12h16.42.210,lexical_decision_task_DD_L3,2021.2.3,Win32,59.92329818,,,,,,,,,,,1.1133,1,,,,,,,,,,,,,,z,1,1.1133,,,,,,,,0.425925954,-0.319444444,0,0,0,,0,107,107,148,1,JOMS,HB,old,z,./images/JOMSHB.png,,,,,,,,,,,,,,,,,,,,,,,,,,,,,,,,,,,
,,,,,,,,,,,,,,,,,5fc30c35704ddd267cc9123f,34,2022-02-12_12h16.42.210,lexical_decision_task_DD_L3,2021.2.3,Win32,59.92329818,,,,,,,,,,,0.7184,1,,,,,,,,,,,,,,z,1,0.7184,,,,,,,,0.425925954,-0.319444444,0,0,0,,0,108,108,119,1,PAFER,LB,old,z,./images/PAFERLB.png,,,,,,,,,,,,,,,,,,,,,,,,,,,,,,,,,,,
,,,,,,,,,,,,,,,,,5fc30c35704ddd267cc9123f,34,2022-02-12_12h16.42.210,lexical_decision_task_DD_L3,2021.2.3,Win32,59.92329818,,,,,,,,,,,0.7039,1,,,,,,,,,,,,,,m,1,0.7039,,,,,,,,0.425925954,-0.319444444,0,0,0,,0,109,109,31,1,QUILL,C,old,m,./images/QUILL.png,,,,,,,,,,,,,,,,,,,,,,,,,,,,,,,,,,,
,,,,,,,,,,,,,,,,,5fc30c35704ddd267cc9123f,34,2022-02-12_12h16.42.210,lexical_decision_task_DD_L3,2021.2.3,Win32,59.92329818,,,,,,,,,,,0.7395,1,,,,,,,,,,,,,,z,1,0.7395,,,,,,,,0.425925954,-0.319444444,0,0,0,,0,110,110,143,1,MONGS,LB,old,z,./images/MONGSLB.png,,,,,,,,,,,,,,,,,,,,,,,,,,,,,,,,,,,
,,,,,,,,,,,,,,,,,5fc30c35704ddd267cc9123f,34,2022-02-12_12h16.42.210,lexical_decision_task_DD_L3,2021.2.3,Win32,59.92329818,,,,,,,,,,,0.7526,1,,,,,,,,,,,,,,z,1,0.7526,,,,,,,,0.425925954,-0.319444444,0,0,0,,0,111,111,122,1,BLOOT,LB,old,z,./images/BLOOTLB.png,,,,,,,,,,,,,,,,,,,,,,,,,,,,,,,,,,,
,,,,,,,,,,,,,,,,,5fc30c35704ddd267cc9123f,34,2022-02-12_12h16.42.210,lexical_decision_task_DD_L3,2021.2.3,Win32,59.92329818,,,,,,,,,,,0.7299,1,,,,,,,,,,,,,,z,1,0.7299,,,,,,,,0.425925954,-0.319444444,0,0,0,,0,112,112,134,1,TROSS,LB,old,z,./images/TROSSLB.png,,,,,,,,,,,,,,,,,,,,,,,,,,,,,,,,,,,
,,,,,,,,,,,,,,,,,5fc30c35704ddd267cc9123f,34,2022-02-12_12h16.42.210,lexical_decision_task_DD_L3,2021.2.3,Win32,59.92329818,,,,,,,,,,,0.7577,1,,,,,,,,,,,,,,m,1,0.7577,,,,,,,,0.425925954,-0.319444444,0,0,0,,0,113,113,76,1,INFANT,C,old,m,./images/INFANT.png,,,,,,,,,,,,,,,,,,,,,,,,,,,,,,,,,,,
,,,,,,,,,,,,,,,,,5fc30c35704ddd267cc9123f,34,2022-02-12_12h16.42.210,lexical_decision_task_DD_L3,2021.2.3,Win32,59.92329818,,,,,,,,,,,0.6714,1,,,,,,,,,,,,,,z,1,0.6714,,,,,,,,0.425925954,-0.319444444,0,0,0,,0,114,114,101,1,GLEET,LB,old,z,./images/GLEETLB.png,,,,,,,,,,,,,,,,,,,,,,,,,,,,,,,,,,,
,,,,,,,,,,,,,,,,,5fc30c35704ddd267cc9123f,34,2022-02-12_12h16.42.210,lexical_decision_task_DD_L3,2021.2.3,Win32,59.92329818,,,,,,,,,,,1.0001,1,,,,,,,,,,,,,,z,1,1.0001,,,,,,,,0.425925954,-0.319444444,0,0,0,,0,115,115,123,1,SEDGE,C,old,z,./images/SEDGE.png,,,,,,,,,,,,,,,,,,,,,,,,,,,,,,,,,,,
,,,,,,,,,,,,,,,,,5fc30c35704ddd267cc9123f,34,2022-02-12_12h16.42.210,lexical_decision_task_DD_L3,2021.2.3,Win32,59.92329818,,,,,,,,,,,0.583,1,,,,,,,,,,,,,,m,1,0.583,,,,,,,,0.425925954,-0.319444444,0,0,0,,0,116,116,70,1,URINE,C,old,m,./images/URINE.png,,,,,,,,,,,,,,,,,,,,,,,,,,,,,,,,,,,
,,,,,,,,,,,,,,,,,5fc30c35704ddd267cc9123f,34,2022-02-12_12h16.42.210,lexical_decision_task_DD_L3,2021.2.3,Win32,59.92329818,,,,,,,,,,,0.7129,1,,,,,,,,,,,,,,m,1,0.7129,,,,,,,,0.425925954,-0.319444444,0,0,0,,0,117,117,2,1,BEARD,HB,old,m,./images/BEARDHB.png,,,,,,,,,,,,,,,,,,,,,,,,,,,,,,,,,,,
,,,,,,,,,,,,,,,,,5fc30c35704ddd267cc9123f,34,2022-02-12_12h16.42.210,lexical_decision_task_DD_L3,2021.2.3,Win32,59.92329818,,,,,,,,,,,1.0514,1,,,,,,,,,,,,,,z,1,1.0514,,,,,,,,0.425925954,-0.319444444,0,0,0,,0,118,118,136,1,WERVE,HB,old,z,./images/WERVEHB.png,,,,,,,,,,,,,,,,,,,,,,,,,,,,,,,,,,,
,,,,,,,,,,,,,,,,,5fc30c35704ddd267cc9123f,34,2022-02-12_12h16.42.210,lexical_decision_task_DD_L3,2021.2.3,Win32,59.92329818,,,,,,,,,,,0.7191,1,,,,,,,,,,,,,,m,1,0.7191,,,,,,,,0.425925954,-0.319444444,0,0,0,,0,119,119,1,1,PLANK,C,old,m,./images/PLANK.png,,,,,,,,,,,,,,,,,,,,,,,,,,,,,,,,,,,
,,,,,,,,,,,,,,,,,5fc30c35704ddd267cc9123f,34,2022-02-12_12h16.42.210,lexical_decision_task_DD_L3,2021.2.3,Win32,59.92329818,,,,,,,,,,,0.6561,1,,,,,,,,,,,,,,m,1,0.6561,,,,,,,,0.425925954,-0.319444444,0,0,0,,0,120,120,51,1,ONION,LB,old,m,./images/ONIONLB.png,,,,,,,,,,,,,,,,,,,,,,,,,,,,,,,,,,,
,,,,,,,,,,,,,,,,,5fc30c35704ddd267cc9123f,34,2022-02-12_12h16.42.210,lexical_decision_task_DD_L3,2021.2.3,Win32,59.92329818,,,,,,,,,,,0.7728,1,,,,,,,,,,,,,,z,1,0.7728,,,,,,,,0.425925954,-0.319444444,0,0,0,,0,121,121,111,1,HOSSE,C,old,z,./images/HOSSE.png,,,,,,,,,,,,,,,,,,,,,,,,,,,,,,,,,,,
,,,,,,,,,,,,,,,,,5fc30c35704ddd267cc9123f,34,2022-02-12_12h16.42.210,lexical_decision_task_DD_L3,2021.2.3,Win32,59.92329818,,,,,,,,,,,0.9342,1,,,,,,,,,,,,,,m,1,0.9342,,,,,,,,0.425925954,-0.319444444,0,0,0,,0,122,122,17,1,SKIING,HB,old,m,./images/SKIINGHB.png,,,,,,,,,,,,,,,,,,,,,,,,,,,,,,,,,,,
,,,,,,,,,,,,,,,,,5fc30c35704ddd267cc9123f,34,2022-02-12_12h16.42.210,lexical_decision_task_DD_L3,2021.2.3,Win32,59.92329818,,,,,,,,,,,0.5845,1,,,,,,,,,,,,,,m,1,0.5845,,,,,,,,0.425925954,-0.319444444,0,0,0,,0,123,123,22,1,MELON,C,old,m,./images/MELON.png,,,,,,,,,,,,,,,,,,,,,,,,,,,,,,,,,,,
,,,,,,,,,,,,,,,,,5fc30c35704ddd267cc9123f,34,2022-02-12_12h16.42.210,lexical_decision_task_DD_L3,2021.2.3,Win32,59.92329818,,,,,,,,,,,0.6904,1,,,,,,,,,,,,,,z,1,0.6904,,,,,,,,0.425925954,-0.319444444,0,0,0,,0,124,124,131,1,NACES,LB,old,z,./images/NACESLB.png,,,,,,,,,,,,,,,,,,,,,,,,,,,,,,,,,,,
,,,,,,,,,,,,,,,,,5fc30c35704ddd267cc9123f,34,2022-02-12_12h16.42.210,lexical_decision_task_DD_L3,2021.2.3,Win32,59.92329818,,,,,,,,,,,0.7557,1,,,,,,,,,,,,,,z,1,0.7557,,,,,,,,0.425925954,-0.319444444,0,0,0,space,0,125,125,87,1,TRING,C,old,z,./images/TRING.png,28.2403,,,,,,,,,,,,,,,,,,,,,,,,,,,,,,,,,,
,,,,,,,,,,,,,,,,,5fc30c35704ddd267cc9123f,34,2022-02-12_12h16.42.210,lexical_decision_task_DD_L3,2021.2.3,Win32,59.92329818,,,,,,,,,,,0.6626,1,,,,,,,,,,,,,,m,1,0.6626,,,,,,,,0.425925954,-0.319444444,0,0,0,,0,126,126,64,1,JELLY,C,old,m,./images/JELLY.png,,,,,,,,,,,,,,,,,,,,,,,,,,,,,,,,,,,
,,,,,,,,,,,,,,,,,5fc30c35704ddd267cc9123f,34,2022-02-12_12h16.42.210,lexical_decision_task_DD_L3,2021.2.3,Win32,59.92329818,,,,,,,,,,,0.9374,1,,,,,,,,,,,,,,m,1,0.9374,,,,,,,,0.425925954,-0.319444444,0,0,0,,0,127,127,56,1,PACKET,HB,old,m,./images/PACKETHB.png,,,,,,,,,,,,,,,,,,,,,,,,,,,,,,,,,,,
,,,,,,,,,,,,,,,,,5fc30c35704ddd267cc9123f,34,2022-02-12_12h16.42.210,lexical_decision_task_DD_L3,2021.2.3,Win32,59.92329818,,,,,,,,,,,0.5842,1,,,,,,,,,,,,,,m,1,0.5842,,,,,,,,0.425925954,-0.319444444,0,0,0,,0,128,128,18,1,JAGUAR,LB,old,m,./images/JAGUARLB.png,,,,,,,,,,,,,,,,,,,,,,,,,,,,,,,,,,,
,,,,,,,,,,,,,,,,,5fc30c35704ddd267cc9123f,34,2022-02-12_12h16.42.210,lexical_decision_task_DD_L3,2021.2.3,Win32,59.92329818,,,,,,,,,,,0.7949,1,,,,,,,,,,,,,,m,1,0.7949,,,,,,,,0.425925954,-0.319444444,0,0,0,,0,129,129,38,1,LADDER,HB,old,m,./images/LADDERHB.png,,,,,,,,,,,,,,,,,,,,,,,,,,,,,,,,,,,
,,,,,,,,,,,,,,,,,5fc30c35704ddd267cc9123f,34,2022-02-12_12h16.42.210,lexical_decision_task_DD_L3,2021.2.3,Win32,59.92329818,,,,,,,,,,,0.8863,0,,,,,,,,,,,,,,m,0,0.8863,,,,,,,,0.425925954,-0.319444444,0,0,0,,0,130,130,110,1,CRUNK,LB,old,z,./images/CRUNKLB.png,,,,,,,,,,,,,,,,,,,,,,,,,,,,,,,,,,,
,,,,,,,,,,,,,,,,,5fc30c35704ddd267cc9123f,34,2022-02-12_12h16.42.210,lexical_decision_task_DD_L3,2021.2.3,Win32,59.92329818,,,,,,,,,,,0.6283,1,,,,,,,,,,,,,,z,1,0.6283,,,,,,,,0.425925954,-0.319444444,0,0,0,,0,131,131,147,1,ZOLES,C,old,z,./images/ZOLES.png,,,,,,,,,,,,,,,,,,,,,,,,,,,,,,,,,,,
,,,,,,,,,,,,,,,,,5fc30c35704ddd267cc9123f,34,2022-02-12_12h16.42.210,lexical_decision_task_DD_L3,2021.2.3,Win32,59.92329818,,,,,,,,,,,0.5423,1,,,,,,,,,,,,,,m,1,0.5423,,,,,,,,0.425925954,-0.319444444,0,0,0,,0,132,132,40,1,SWING,C,old,m,./images/SWING.png,,,,,,,,,,,,,,,,,,,,,,,,,,,,,,,,,,,
,,,,,,,,,,,,,,,,,5fc30c35704ddd267cc9123f,34,2022-02-12_12h16.42.210,lexical_decision_task_DD_L3,2021.2.3,Win32,59.92329818,,,,,,,,,,,0.6502,1,,,,,,,,,,,,,,z,1,0.6502,,,,,,,,0.425925954,-0.319444444,0,0,0,,0,133,133,86,1,AIFED,LB,old,z,./images/AIFEDLB.png,,,,,,,,,,,,,,,,,,,,,,,,,,,,,,,,,,,
,,,,,,,,,,,,,,,,,5fc30c35704ddd267cc9123f,34,2022-02-12_12h16.42.210,lexical_decision_task_DD_L3,2021.2.3,Win32,59.92329818,,,,,,,,,,,0.7409,1,,,,,,,,,,,,,,z,1,0.7409,,,,,,,,0.425925954,-0.319444444,0,0,0,,0,134,134,95,1,HANTY,LB,old,z,./images/HANTYLB.png,,,,,,,,,,,,,,,,,,,,,,,,,,,,,,,,,,,
,,,,,,,,,,,,,,,,,5fc30c35704ddd267cc9123f,34,2022-02-12_12h16.42.210,lexical_decision_task_DD_L3,2021.2.3,Win32,59.92329818,,,,,,,,,,,0.7525,1,,,,,,,,,,,,,,m,1,0.7525,,,,,,,,0.425925954,-0.319444444,0,0,0,,0,135,135,62,1,PURSE,HB,old,m,./images/PURSEHB.png,,,,,,,,,,,,,,,,,,,,,,,,,,,,,,,,,,,
,,,,,,,,,,,,,,,,,5fc30c35704ddd267cc9123f,34,2022-02-12_12h16.42.210,lexical_decision_task_DD_L3,2021.2.3,Win32,59.92329818,,,,,,,,,,,0.5884,1,,,,,,,,,,,,,,m,1,0.5884,,,,,,,,0.425925954,-0.319444444,0,0,0,,0,136,136,78,1,LITTER,LB,old,m,./images/LITTERLB.png,,,,,,,,,,,,,,,,,,,,,,,,,,,,,,,,,,,
,,,,,,,,,,,,,,,,,5fc30c35704ddd267cc9123f,34,2022-02-12_12h16.42.210,lexical_decision_task_DD_L3,2021.2.3,Win32,59.92329818,,,,,,,,,,,0.7633,1,,,,,,,,,,,,,,m,1,0.7633,,,,,,,,0.425925954,-0.319444444,0,0,0,,0,137,137,81,1,POODLE,LB,old,m,./images/POODLELB.png,,,,,,,,,,,,,,,,,,,,,,,,,,,,,,,,,,,
,,,,,,,,,,,,,,,,,5fc30c35704ddd267cc9123f,34,2022-02-12_12h16.42.210,lexical_decision_task_DD_L3,2021.2.3,Win32,59.92329818,,,,,,,,,,,0.9236,1,,,,,,,,,,,,,,m,1,0.9236,,,,,,,,0.425925954,-0.319444444,0,0,0,,0,138,138,21,1,KIDNEY,LB,old,m,./images/KIDNEYLB.png,,,,,,,,,,,,,,,,,,,,,,,,,,,,,,,,,,,
,,,,,,,,,,,,,,,,,5fc30c35704ddd267cc9123f,34,2022-02-12_12h16.42.210,lexical_decision_task_DD_L3,2021.2.3,Win32,59.92329818,,,,,,,,,,,0.7713,1,,,,,,,,,,,,,,m,1,0.7713,,,,,,,,0.425925954,-0.319444444,0,0,0,,0,139,139,35,1,PEACH,HB,old,m,./images/PEACHHB.png,,,,,,,,,,,,,,,,,,,,,,,,,,,,,,,,,,,
,,,,,,,,,,,,,,,,,5fc30c35704ddd267cc9123f,34,2022-02-12_12h16.42.210,lexical_decision_task_DD_L3,2021.2.3,Win32,59.92329818,,,,,,,,,,,0.5177,1,,,,,,,,,,,,,,m,1,0.5177,,,,,,,,0.425925954,-0.319444444,0,0,0,,0,140,140,61,1,CANDLE,C,old,m,./images/CANDLE.png,,,,,,,,,,,,,,,,,,,,,,,,,,,,,,,,,,,
,,,,,,,,,,,,,,,,,5fc30c35704ddd267cc9123f,34,2022-02-12_12h16.42.210,lexical_decision_task_DD_L3,2021.2.3,Win32,59.92329818,,,,,,,,,,,0.9335,1,,,,,,,,,,,,,,z,1,0.9335,,,,,,,,0.425925954,-0.319444444,0,0,0,,0,141,141,112,1,MYING,HB,old,z,./images/MYINGHB.png,,,,,,,,,,,,,,,,,,,,,,,,,,,,,,,,,,,
,,,,,,,,,,,,,,,,,5fc30c35704ddd267cc9123f,34,2022-02-12_12h16.42.210,lexical_decision_task_DD_L3,2021.2.3,Win32,59.92329818,,,,,,,,,,,0.5197,1,,,,,,,,,,,,,,m,1,0.5197,,,,,,,,0.425925954,-0.319444444,0,0,0,,0,142,142,82,1,SUNSET,C,old,m,./images/SUNSET.png,,,,,,,,,,,,,,,,,,,,,,,,,,,,,,,,,,,
,,,,,,,,,,,,,,,,,5fc30c35704ddd267cc9123f,34,2022-02-12_12h16.42.210,lexical_decision_task_DD_L3,2021.2.3,Win32,59.92329818,,,,,,,,,,,0.5691,1,,,,,,,,,,,,,,m,1,0.5691,,,,,,,,0.425925954,-0.319444444,0,0,0,,0,143,143,52,1,BANNER,C,old,m,./images/BANNER.png,,,,,,,,,,,,,,,,,,,,,,,,,,,,,,,,,,,
,,,,,,,,,,,,,,,,,5fc30c35704ddd267cc9123f,34,2022-02-12_12h16.42.210,lexical_decision_task_DD_L3,2021.2.3,Win32,59.92329818,,,,,,,,,,,0.6569,1,,,,,,,,,,,,,,z,1,0.6569,,,,,,,,0.425925954,-0.319444444,0,0,0,,0,144,144,125,1,MOOKY,LB,old,z,./images/MOOKYLB.png,,,,,,,,,,,,,,,,,,,,,,,,,,,,,,,,,,,
,,,,,,,,,,,,,,,,,5fc30c35704ddd267cc9123f,34,2022-02-12_12h16.42.210,lexical_decision_task_DD_L3,2021.2.3,Win32,59.92329818,,,,,,,,,,,0.5586,1,,,,,,,,,,,,,,m,1,0.5586,,,,,,,,0.425925954,-0.319444444,0,0,0,,0,145,145,34,1,CANYON,C,old,m,./images/CANYON.png,,,,,,,,,,,,,,,,,,,,,,,,,,,,,,,,,,,
,,,,,,,,,,,,,,,,,5fc30c35704ddd267cc9123f,34,2022-02-12_12h16.42.210,lexical_decision_task_DD_L3,2021.2.3,Win32,59.92329818,,,,,,,,,,,0.6632,1,,,,,,,,,,,,,,z,1,0.6632,,,,,,,,0.425925954,-0.319444444,0,0,0,,0,146,146,167,1,ZONET,LB,old,z,./images/ZONETLB.png,,,,,,,,,,,,,,,,,,,,,,,,,,,,,,,,,,,
,,,,,,,,,,,,,,,,,5fc30c35704ddd267cc9123f,34,2022-02-12_12h16.42.210,lexical_decision_task_DD_L3,2021.2.3,Win32,59.92329818,,,,,,,,,,,0.8558,1,,,,,,,,,,,,,,m,1,0.8558,,,,,,,,0.425925954,-0.319444444,0,0,0,,0,147,147,53,1,CARPET,HB,old,m,./images/CARPETHB.png,,,,,,,,,,,,,,,,,,,,,,,,,,,,,,,,,,,
,,,,,,,,,,,,,,,,,5fc30c35704ddd267cc9123f,34,2022-02-12_12h16.42.210,lexical_decision_task_DD_L3,2021.2.3,Win32,59.92329818,,,,,,,,,,,0.7257,1,,,,,,,,,,,,,,m,1,0.7257,,,,,,,,0.425925954,-0.319444444,0,0,0,,0,148,148,12,1,SHORE,LB,old,m,./images/SHORELB.png,,,,,,,,,,,,,,,,,,,,,,,,,,,,,,,,,,,
,,,,,,,,,,,,,,,,,5fc30c35704ddd267cc9123f,34,2022-02-12_12h16.42.210,lexical_decision_task_DD_L3,2021.2.3,Win32,59.92329818,,,,,,,,,,,1.319,1,,,,,,,,,,,,,,z,1,1.319,,,,,,,,0.425925954,-0.319444444,0,0,0,,0,149,149,163,1,GAMBA,HB,old,z,./images/GAMBAHB.png,,,,,,,,,,,,,,,,,,,,,,,,,,,,,,,,,,,
,,,,,,,,,,,,,,,,,5fc30c35704ddd267cc9123f,34,2022-02-12_12h16.42.210,lexical_decision_task_DD_L3,2021.2.3,Win32,59.92329818,,,,,,,,,,,0.8962,1,,,,,,,,,,,,,,z,1,0.8962,,,,,,,,0.425925954,-0.319444444,0,0,0,,0,150,150,124,1,TUNCH,HB,old,z,./images/TUNCHHB.png,,,,,,,,,,,,,,,,,,,,,,,,,,,,,,,,,,,
,,,,,,,,,,,,,,,,,5fc30c35704ddd267cc9123f,34,2022-02-12_12h16.42.210,lexical_decision_task_DD_L3,2021.2.3,Win32,59.92329818,,,,,,,,,,,0.5039,1,,,,,,,,,,,,,,m,1,0.5039,,,,,,,,0.425925954,-0.319444444,0,0,0,,0,151,151,4,1,MUSCLE,C,old,m,./images/MUSCLE.png,,,,,,,,,,,,,,,,,,,,,,,,,,,,,,,,,,,
,,,,,,,,,,,,,,,,,5fc30c35704ddd267cc9123f,34,2022-02-12_12h16.42.210,lexical_decision_task_DD_L3,2021.2.3,Win32,59.92329818,,,,,,,,,,,0.8001,0,,,,,,,,,,,,,,z,0,0.8001,,,,,,,,0.425925954,-0.319444444,0,0,0,,0,152,152,8,1,TULIP,HB,old,m,./images/TULIPHB.png,,,,,,,,,,,,,,,,,,,,,,,,,,,,,,,,,,,
,,,,,,,,,,,,,,,,,5fc30c35704ddd267cc9123f,34,2022-02-12_12h16.42.210,lexical_decision_task_DD_L3,2021.2.3,Win32,59.92329818,,,,,,,,,,,0.8805,1,,,,,,,,,,,,,,m,1,0.8805,,,,,,,,0.425925954,-0.319444444,0,0,0,,0,153,153,43,1,MOSQUE,C,old,m,./images/MOSQUE.png,,,,,,,,,,,,,,,,,,,,,,,,,,,,,,,,,,,
,,,,,,,,,,,,,,,,,5fc30c35704ddd267cc9123f,34,2022-02-12_12h16.42.210,lexical_decision_task_DD_L3,2021.2.3,Win32,59.92329818,,,,,,,,,,,0.6369,1,,,,,,,,,,,,,,z,1,0.6369,,,,,,,,0.425925954,-0.319444444,0,0,0,,0,154,154,114,1,RIKES,C,old,z,./images/RIKES.png,,,,,,,,,,,,,,,,,,,,,,,,,,,,,,,,,,,
,,,,,,,,,,,,,,,,,5fc30c35704ddd267cc9123f,34,2022-02-12_12h16.42.210,lexical_decision_task_DD_L3,2021.2.3,Win32,59.92329818,,,,,,,,,,,0.7189,1,,,,,,,,,,,,,,z,1,0.7189,,,,,,,,0.425925954,-0.319444444,0,0,0,,0,155,155,135,1,JOODY,C,old,z,./images/JOODY.png,,,,,,,,,,,,,,,,,,,,,,,,,,,,,,,,,,,
,,,,,,,,,,,,,,,,,5fc30c35704ddd267cc9123f,34,2022-02-12_12h16.42.210,lexical_decision_task_DD_L3,2021.2.3,Win32,59.92329818,,,,,,,,,,,0.6452,1,,,,,,,,,,,,,,m,1,0.6452,,,,,,,,0.425925954,-0.319444444,0,0,0,,0,156,156,24,1,SCREW,LB,old,m,./images/SCREWLB.png,,,,,,,,,,,,,,,,,,,,,,,,,,,,,,,,,,,
,,,,,,,,,,,,,,,,,5fc30c35704ddd267cc9123f,34,2022-02-12_12h16.42.210,lexical_decision_task_DD_L3,2021.2.3,Win32,59.92329818,,,,,,,,,,,0.634,1,,,,,,,,,,,,,,m,1,0.634,,,,,,,,0.425925954,-0.319444444,0,0,0,,0,157,157,42,1,FOLDER,LB,old,m,./images/FOLDERLB.png,,,,,,,,,,,,,,,,,,,,,,,,,,,,,,,,,,,
,,,,,,,,,,,,,,,,,5fc30c35704ddd267cc9123f,34,2022-02-12_12h16.42.210,lexical_decision_task_DD_L3,2021.2.3,Win32,59.92329818,,,,,,,,,,,0.9983,0,,,,,,,,,,,,,,z,0,0.9983,,,,,,,,0.425925954,-0.319444444,0,0,0,,0,158,158,44,1,LIZARD,HB,old,m,./images/LIZARDHB.png,,,,,,,,,,,,,,,,,,,,,,,,,,,,,,,,,,,
,,,,,,,,,,,,,,,,,5fc30c35704ddd267cc9123f,34,2022-02-12_12h16.42.210,lexical_decision_task_DD_L3,2021.2.3,Win32,59.92329818,,,,,,,,,,,0.6038,1,,,,,,,,,,,,,,m,1,0.6038,,,,,,,,0.425925954,-0.319444444,0,0,0,,0,159,159,19,1,DOUGH,C,old,m,./images/DOUGH.png,,,,,,,,,,,,,,,,,,,,,,,,,,,,,,,,,,,
,,,,,,,,,,,,,,,,,5fc30c35704ddd267cc9123f,34,2022-02-12_12h16.42.210,lexical_decision_task_DD_L3,2021.2.3,Win32,59.92329818,,,,,,,,,,,0.7179,1,,,,,,,,,,,,,,m,1,0.7179,,,,,,,,0.425925954,-0.319444444,0,0,0,,0,160,160,27,1,ATTIC,LB,old,m,./images/ATTICLB.png,,,,,,,,,,,,,,,,,,,,,,,,,,,,,,,,,,,
,,,,,,,,,,,,,,,,,5fc30c35704ddd267cc9123f,34,2022-02-12_12h16.42.210,lexical_decision_task_DD_L3,2021.2.3,Win32,59.92329818,,,,,,,,,,,1.0377,0,,,,,,,,,,,,,,m,0,1.0377,,,,,,,,0.425925954,-0.319444444,0,0,0,,0,161,161,121,1,CEERS,HB,old,z,./images/CEERSHB.png,,,,,,,,,,,,,,,,,,,,,,,,,,,,,,,,,,,
,,,,,,,,,,,,,,,,,5fc30c35704ddd267cc9123f,34,2022-02-12_12h16.42.210,lexical_decision_task_DD_L3,2021.2.3,Win32,59.92329818,,,,,,,,,,,0.5708,1,,,,,,,,,,,,,,m,1,0.5708,,,,,,,,0.425925954,-0.319444444,0,0,0,,0,162,162,60,1,TWINS,LB,old,m,./images/TWINSLB.png,,,,,,,,,,,,,,,,,,,,,,,,,,,,,,,,,,,
,,,,,,,,,,,,,,,,,5fc30c35704ddd267cc9123f,34,2022-02-12_12h16.42.210,lexical_decision_task_DD_L3,2021.2.3,Win32,59.92329818,,,,,,,,,,,0.5866,1,,,,,,,,,,,,,,m,1,0.5866,,,,,,,,0.425925954,-0.319444444,0,0,0,,0,163,163,30,1,STORM,LB,old,m,./images/STORMLB.png,,,,,,,,,,,,,,,,,,,,,,,,,,,,,,,,,,,
,,,,,,,,,,,,,,,,,5fc30c35704ddd267cc9123f,34,2022-02-12_12h16.42.210,lexical_decision_task_DD_L3,2021.2.3,Win32,59.92329818,,,,,,,,,,,0.4988,1,,,,,,,,,,,,,,m,1,0.4988,,,,,,,,0.425925954,-0.319444444,0,0,0,,0,164,164,37,1,BIRTH,C,old,m,./images/BIRTH.png,,,,,,,,,,,,,,,,,,,,,,,,,,,,,,,,,,,
,,,,,,,,,,,,,,,,,5fc30c35704ddd267cc9123f,34,2022-02-12_12h16.42.210,lexical_decision_task_DD_L3,2021.2.3,Win32,59.92329818,,,,,,,,,,,1.0356,1,,,,,,,,,,,,,,z,1,1.0356,,,,,,,,0.425925954,-0.319444444,0,0,0,,0,165,165,133,1,POWDY,HB,old,z,./images/POWDYHB.png,,,,,,,,,,,,,,,,,,,,,,,,,,,,,,,,,,,
,,,,,,,,,,,,,,,,,5fc30c35704ddd267cc9123f,34,2022-02-12_12h16.42.210,lexical_decision_task_DD_L3,2021.2.3,Win32,59.92329818,,,,,,,,,,,0.9002,1,,,,,,,,,,,,,,z,1,0.9002,,,,,,,,0.425925954,-0.319444444,0,0,0,,0,166,166,109,1,BURGE,HB,old,z,./images/BURGEHB.png,,,,,,,,,,,,,,,,,,,,,,,,,,,,,,,,,,,
,,,,,,,,,,,,,,,,,5fc30c35704ddd267cc9123f,34,2022-02-12_12h16.42.210,lexical_decision_task_DD_L3,2021.2.3,Win32,59.92329818,,,,,,,,,,,0.6509,1,,,,,,,,,,,,,,z,1,0.6509,,,,,,,,0.425925954,-0.319444444,0,0,0,,0,167,167,113,1,LINEW,LB,old,z,./images/LINEWLB.png,,,,,,,,,,,,,,,,,,,,,,,,,,,,,,,,,,,
,,,,,,,,,,,,,,,,,5fc30c35704ddd267cc9123f,34,2022-02-12_12h16.42.210,lexical_decision_task_DD_L3,2021.2.3,Win32,59.92329818,,,,,,,,,,,,,,,,,,,,,,,,,,,,,,,,,,,,,,,,,,,,,,,,How likely will it be that you will recognize the words presented very blurred on a scale of 0 (not likely) to 100 (most likely)?,,,,,-0.000925843,-0.42129638,1,0,0,jol_adv,4,5.8462,0,0,0,2,1,,,,,,,,,,,,,,,,,,,,,
,,,,,,,,,,,,,,,,,5fc30c35704ddd267cc9123f,34,2022-02-12_12h16.42.210,lexical_decision_task_DD_L3,2021.2.3,Win32,59.92329818,,,,,,,,,,,,,,,,,,,,,,,,,,,,,,,,,,,,,,,,,,,,,,,,How likely will it be that you will recognize the words presented clearly on a scale of 0 (not likely) to 100 (most likely)?,,,,,,,,,,,4,1.6845,0,1,1,0,1,,,,,,,,,,,,,,,,,,,,,
,,,,,,,,,,,,,,,,,5fc30c35704ddd267cc9123f,34,2022-02-12_12h16.42.210,lexical_decision_task_DD_L3,2021.2.3,Win32,59.92329818,,,,,,,,,,,,,,,,,,,,,,,,,,,,,,,,,,,,,,,,,,,,,,,,How likely will it be that you will recognize the words presented slighly blurred on a scale of 0 (not likely) to 100 (most likely)?,,,,,,,,,,,5,6.4486,0,2,2,1,1,,,,,,,,,,,,,,,,,,,,,
space,55.2611,0.396296335,-0.190740761,0,0,0,,,,,,1,test,"In the next phase you will be presented with the words from the the first phase. Your job is to decide whether you remember seeing the word or not. If you remember seeing the word press ""old"" or type ""m"". If you do not remember seeing the word press ""new"" or type ""z"". Please press the space bar or click on continue to begin. ",,,5fc30c35704ddd267cc9123f,34,2022-02-12_12h16.42.210,lexical_decision_task_DD_L3,2021.2.3,Win32,59.92329818,,,,,,,,,,,,,,,,,,,,,,,,,,,,,,,,,,,,,,,,,,,,,,,,,,,,,,,,,,,,,,,,,,0,0,0,0,1,,,,,,,,,,,,,,,,
,,0.02129638,-0.39629638,1,0,0,,,,,,1,test,"In the next phase you will be presented with the words from the the first phase. Your job is to decide whether you remember seeing the word or not. If you remember seeing the word press ""old"" or type ""m"". If you do not remember seeing the word press ""new"" or type ""z"". Please press the space bar or click on continue to begin. ",,,5fc30c35704ddd267cc9123f,34,2022-02-12_12h16.42.210,lexical_decision_task_DD_L3,2021.2.3,Win32,59.92329818,,,,,,,,,,,,,,,,,,,,,,,,,,,,,,,,,,,,,,,,,,,,,,,,,,,,,,,,,,,,,,,,,,1,0,1,0,1,instr_done_button,,,,,,,,,,,,,,,
,,0.02129638,-0.39629638,1,0,0,,,,,,1,test,"In the next phase you will be presented with the words from the the first phase. Your job is to decide whether you remember seeing the word or not. If you remember seeing the word press ""old"" or type ""m"". If you do not remember seeing the word press ""new"" or type ""z"". Please press the space bar or click on continue to begin. ",,,5fc30c35704ddd267cc9123f,34,2022-02-12_12h16.42.210,lexical_decision_task_DD_L3,2021.2.3,Win32,59.92329818,,,,,,,,,,,,,,,,,,,,,,,,,,,,,,,,,,,,,,,,,,,,,,,,,,,,,,,,,,,,,,,,,,2,0,2,0,1,instr_done_button,,,,,,,,,,,,,,,
,,0.093518575,-0.398148176,1,0,0,,,,,,1,test,"In the next phase you will be presented with the words from the the first phase. Your job is to decide whether you remember seeing the word or not. If you remember seeing the word press ""old"" or type ""m"". If you do not remember seeing the word press ""new"" or type ""z"". Please press the space bar or click on continue to begin. ",,,5fc30c35704ddd267cc9123f,34,2022-02-12_12h16.42.210,lexical_decision_task_DD_L3,2021.2.3,Win32,59.92329818,,,,,,,,,,,,,,,,,,,,,,,,,,,,,,,,,,,,,,,,,,,,,,,,,,,,,,,,,,,,,,,,,,3,0,3,0,1,instr_done_button,,,,,,,,,,,,,,,
,,-0.012036954,-0.424074158,1,0,0,,,,,,1,test,"In the next phase you will be presented with the words from the the first phase. Your job is to decide whether you remember seeing the word or not. If you remember seeing the word press ""old"" or type ""m"". If you do not remember seeing the word press ""new"" or type ""z"". Please press the space bar or click on continue to begin. ",,,5fc30c35704ddd267cc9123f,34,2022-02-12_12h16.42.210,lexical_decision_task_DD_L3,2021.2.3,Win32,59.92329818,,,,,,,,,,,,,,,,,,,,,,,,,,,,,,,,,,,,,,,,,,,,,,,,,,,,,,,,,,,,,,,,,,4,0,4,0,1,instr_done_button,,,,,,,,,,,,,,,
,,,,,,,,,,,,,,,,,5fc30c35704ddd267cc9123f,34,2022-02-12_12h16.42.210,lexical_decision_task_DD_L3,2021.2.3,Win32,59.92329818,,,,,,,,,,,0.8843,1,,,,,,,,,,,,,,,,,,,,,,,,-0.012036954,-0.424074158,0,0,0,,,,,,,TORCH,HB,m,m,./images/TORCHHB.png,,,,,,,,,,,,,,,,,,,,,m,1,0.8843,,,,,,,,0,0,0,68,1
,,,,,,,,,,,,,,,,,5fc30c35704ddd267cc9123f,34,2022-02-12_12h16.42.210,lexical_decision_task_DD_L3,2021.2.3,Win32,59.92329818,,,,,,,,,,,0.616,1,,,,,,,,,,,,,,,,,,,,,,,,-0.012036954,-0.424074158,0,0,0,,,,,,,SKIING,HB,m,m,./images/SKIINGHB.png,,,,,,,,,,,,,,,,,,,,,m,1,0.616,,,,,,,,0,1,1,17,1
,,,,,,,,,,,,,,,,,5fc30c35704ddd267cc9123f,34,2022-02-12_12h16.42.210,lexical_decision_task_DD_L3,2021.2.3,Win32,59.92329818,,,,,,,,,,,0.6727,0,,,,,,,,,,,,,,,,,,,,,,,,-0.012036954,-0.424074158,0,0,0,,,,,,,TIGER,C,z,m,./images/TIGER.png,,,,,,,,,,,,,,,,,,,,,m,0,0.6727,,,,,,,,0,2,2,121,1
,,,,,,,,,,,,,,,,,5fc30c35704ddd267cc9123f,34,2022-02-12_12h16.42.210,lexical_decision_task_DD_L3,2021.2.3,Win32,59.92329818,,,,,,,,,,,1.337,0,,,,,,,,,,,,,,,,,,,,,,,,-0.012036954,-0.424074158,0,0,0,,,,,,,JUMPER,HB,z,m,./images/JUMPERHB.png,,,,,,,,,,,,,,,,,,,,,m,0,1.337,,,,,,,,0,3,3,158,1
,,,,,,,,,,,,,,,,,5fc30c35704ddd267cc9123f,34,2022-02-12_12h16.42.210,lexical_decision_task_DD_L3,2021.2.3,Win32,59.92329818,,,,,,,,,,,0.5687,1,,,,,,,,,,,,,,,,,,,,,,,,-0.012036954,-0.424074158,0,0,0,,,,,,,CEMENT,HB,m,m,./images/CEMENTHB.png,,,,,,,,,,,,,,,,,,,,,m,1,0.5687,,,,,,,,0,4,4,74,1
,,,,,,,,,,,,,,,,,5fc30c35704ddd267cc9123f,34,2022-02-12_12h16.42.210,lexical_decision_task_DD_L3,2021.2.3,Win32,59.92329818,,,,,,,,,,,0.6932,1,,,,,,,,,,,,,,,,,,,,,,,,-0.012036954,-0.424074158,0,0,0,,,,,,,WHISKY,HB,z,m,./images/WHISKYHB.png,,,,,,,,,,,,,,,,,,,,,z,1,0.6932,,,,,,,,0,5,5,167,1
,,,,,,,,,,,,,,,,,5fc30c35704ddd267cc9123f,34,2022-02-12_12h16.42.210,lexical_decision_task_DD_L3,2021.2.3,Win32,59.92329818,,,,,,,,,,,0.7237,1,,,,,,,,,,,,,,,,,,,,,,,,-0.012036954,-0.424074158,0,0,0,,,,,,,URINE,C,m,m,./images/URINE.png,,,,,,,,,,,,,,,,,,,,,m,1,0.7237,,,,,,,,0,6,6,70,1
,,,,,,,,,,,,,,,,,5fc30c35704ddd267cc9123f,34,2022-02-12_12h16.42.210,lexical_decision_task_DD_L3,2021.2.3,Win32,59.92329818,,,,,,,,,,,0.7414,1,,,,,,,,,,,,,,,,,,,,,,,,-0.012036954,-0.424074158,0,0,0,,,,,,,MEDAL,HB,z,m,./images/MEDALHB.png,,,,,,,,,,,,,,,,,,,,,z,1,0.7414,,,,,,,,0,7,7,95,1
,,,,,,,,,,,,,,,,,5fc30c35704ddd267cc9123f,34,2022-02-12_12h16.42.210,lexical_decision_task_DD_L3,2021.2.3,Win32,59.92329818,,,,,,,,,,,0.852,0,,,,,,,,,,,,,,,,,,,,,,,,-0.012036954,-0.424074158,0,0,0,,,,,,,RAZOR,C,z,m,./images/RAZOR.png,,,,,,,,,,,,,,,,,,,,,m,0,0.852,,,,,,,,0,8,8,118,1
,,,,,,,,,,,,,,,,,5fc30c35704ddd267cc9123f,34,2022-02-12_12h16.42.210,lexical_decision_task_DD_L3,2021.2.3,Win32,59.92329818,,,,,,,,,,,0.8043,1,,,,,,,,,,,,,,,,,,,,,,,,-0.012036954,-0.424074158,0,0,0,,,,,,,BONNET,HB,m,m,./images/BONNETHB.png,,,,,,,,,,,,,,,,,,,,,m,1,0.8043,,,,,,,,0,9,9,11,1
,,,,,,,,,,,,,,,,,5fc30c35704ddd267cc9123f,34,2022-02-12_12h16.42.210,lexical_decision_task_DD_L3,2021.2.3,Win32,59.92329818,,,,,,,,,,,0.9857,1,,,,,,,,,,,,,,,,,,,,,,,,-0.012036954,-0.424074158,0,0,0,,,,,,,FENCE,HB,z,m,./images/FENCEHB.png,,,,,,,,,,,,,,,,,,,,,z,1,0.9857,,,,,,,,0,10,10,98,1
,,,,,,,,,,,,,,,,,5fc30c35704ddd267cc9123f,34,2022-02-12_12h16.42.210,lexical_decision_task_DD_L3,2021.2.3,Win32,59.92329818,,,,,,,,,,,1.0285,1,,,,,,,,,,,,,,,,,,,,,,,,-0.012036954,-0.424074158,0,0,0,,,,,,,ALLEY,C,z,m,./images/ALLEY.png,,,,,,,,,,,,,,,,,,,,,z,1,1.0285,,,,,,,,0,11,11,139,1
,,,,,,,,,,,,,,,,,5fc30c35704ddd267cc9123f,34,2022-02-12_12h16.42.210,lexical_decision_task_DD_L3,2021.2.3,Win32,59.92329818,,,,,,,,,,,0.9405,0,,,,,,,,,,,,,,,,,,,,,,,,-0.012036954,-0.424074158,0,0,0,,,,,,,PAINT,C,m,m,./images/PAINT.png,,,,,,,,,,,,,,,,,,,,,z,0,0.9405,,,,,,,,0,12,12,7,1
,,,,,,,,,,,,,,,,,5fc30c35704ddd267cc9123f,34,2022-02-12_12h16.42.210,lexical_decision_task_DD_L3,2021.2.3,Win32,59.92329818,,,,,,,,,,,0.7239,1,,,,,,,,,,,,,,,,,,,,,,,,-0.012036954,-0.424074158,0,0,0,,,,,,,PASTA,HB,m,m,./images/PASTAHB.png,,,,,,,,,,,,,,,,,,,,,m,1,0.7239,,,,,,,,0,13,13,5,1
,,,,,,,,,,,,,,,,,5fc30c35704ddd267cc9123f,34,2022-02-12_12h16.42.210,lexical_decision_task_DD_L3,2021.2.3,Win32,59.92329818,,,,,,,,,,,0.5746,1,,,,,,,,,,,,,,,,,,,,,,,,-0.012036954,-0.424074158,0,0,0,,,,,,,MUFFIN,C,m,m,./images/MUFFIN.png,,,,,,,,,,,,,,,,,,,,,m,1,0.5746,,,,,,,,0,14,14,55,1
,,,,,,,,,,,,,,,,,5fc30c35704ddd267cc9123f,34,2022-02-12_12h16.42.210,lexical_decision_task_DD_L3,2021.2.3,Win32,59.92329818,,,,,,,,,,,0.7011,1,,,,,,,,,,,,,,,,,,,,,,,,-0.012036954,-0.424074158,0,0,0,,,,,,,GRAPE,C,z,m,./images/GRAPE.png,,,,,,,,,,,,,,,,,,,,,z,1,0.7011,,,,,,,,0,15,15,100,1
,,,,,,,,,,,,,,,,,5fc30c35704ddd267cc9123f,34,2022-02-12_12h16.42.210,lexical_decision_task_DD_L3,2021.2.3,Win32,59.92329818,,,,,,,,,,,0.6168,1,,,,,,,,,,,,,,,,,,,,,,,,-0.012036954,-0.424074158,0,0,0,,,,,,,JAGUAR,LB,m,m,./images/JAGUARLB.png,,,,,,,,,,,,,,,,,,,,,m,1,0.6168,,,,,,,,0,16,16,18,1
,,,,,,,,,,,,,,,,,5fc30c35704ddd267cc9123f,34,2022-02-12_12h16.42.210,lexical_decision_task_DD_L3,2021.2.3,Win32,59.92329818,,,,,,,,,,,0.9019,1,,,,,,,,,,,,,,,,,,,,,,,,-0.012036954,-0.424074158,0,0,0,,,,,,,MONKEY,LB,z,m,./images/MONKEYLB.png,,,,,,,,,,,,,,,,,,,,,z,1,0.9019,,,,,,,,0,17,17,129,1
,,,,,,,,,,,,,,,,,5fc30c35704ddd267cc9123f,34,2022-02-12_12h16.42.210,lexical_decision_task_DD_L3,2021.2.3,Win32,59.92329818,,,,,,,,,,,1.0391,1,,,,,,,,,,,,,,,,,,,,,,,,-0.012036954,-0.424074158,0,0,0,,,,,,,PARCEL,LB,z,m,./images/PARCELLB.png,,,,,,,,,,,,,,,,,,,,,z,1,1.0391,,,,,,,,0,18,18,102,1
,,,,,,,,,,,,,,,,,5fc30c35704ddd267cc9123f,34,2022-02-12_12h16.42.210,lexical_decision_task_DD_L3,2021.2.3,Win32,59.92329818,,,,,,,,,,,0.7814,1,,,,,,,,,,,,,,,,,,,,,,,,-0.012036954,-0.424074158,0,0,0,,,,,,,SHORE,LB,m,m,./images/SHORELB.png,,,,,,,,,,,,,,,,,,,,,m,1,0.7814,,,,,,,,0,19,19,12,1
,,,,,,,,,,,,,,,,,5fc30c35704ddd267cc9123f,34,2022-02-12_12h16.42.210,lexical_decision_task_DD_L3,2021.2.3,Win32,59.92329818,,,,,,,,,,,0.7405,0,,,,,,,,,,,,,,,,,,,,,,,,-0.012036954,-0.424074158,0,0,0,,,,,,,MELON,C,m,m,./images/MELON.png,,,,,,,,,,,,,,,,,,,,,z,0,0.7405,,,,,,,,0,20,20,22,1
,,,,,,,,,,,,,,,,,5fc30c35704ddd267cc9123f,34,2022-02-12_12h16.42.210,lexical_decision_task_DD_L3,2021.2.3,Win32,59.92329818,,,,,,,,,,,0.5539,1,,,,,,,,,,,,,,,,,,,,,,,,-0.012036954,-0.424074158,0,0,0,,,,,,,SAILOR,C,m,m,./images/SAILOR.png,,,,,,,,,,,,,,,,,,,,,m,1,0.5539,,,,,,,,0,21,21,67,1
,,,,,,,,,,,,,,,,,5fc30c35704ddd267cc9123f,34,2022-02-12_12h16.42.210,lexical_decision_task_DD_L3,2021.2.3,Win32,59.92329818,,,,,,,,,,,0.957,0,,,,,,,,,,,,,,,,,,,,,,,,-0.012036954,-0.424074158,0,0,0,,,,,,,BAKER,LB,z,m,./images/BAKERLB.png,,,,,,,,,,,,,,,,,,,,,m,0,0.957,,,,,,,,0,22,22,147,1
,,,,,,,,,,,,,,,,,5fc30c35704ddd267cc9123f,34,2022-02-12_12h16.42.210,lexical_decision_task_DD_L3,2021.2.3,Win32,59.92329818,,,,,,,,,,,0.8687,1,,,,,,,,,,,,,,,,,,,,,,,,-0.012036954,-0.424074158,0,0,0,,,,,,,PENCE,C,m,m,./images/PENCE.png,,,,,,,,,,,,,,,,,,,,,m,1,0.8687,,,,,,,,0,23,23,16,1
,,,,,,,,,,,,,,,,,5fc30c35704ddd267cc9123f,34,2022-02-12_12h16.42.210,lexical_decision_task_DD_L3,2021.2.3,Win32,59.92329818,,,,,,,,,,,0.7692,1,,,,,,,,,,,,,,,,,,,,,,,,-0.012036954,-0.424074158,0,0,0,,,,,,,MUSCLE,C,m,m,./images/MUSCLE.png,,,,,,,,,,,,,,,,,,,,,m,1,0.7692,,,,,,,,0,24,24,4,1
,,,,,,,,,,,,,,,,,5fc30c35704ddd267cc9123f,34,2022-02-12_12h16.42.210,lexical_decision_task_DD_L3,2021.2.3,Win32,59.92329818,,,,,,,,,,,1.0856,0,,,,,,,,,,,,,,,,,,,,,,,,-0.012036954,-0.424074158,0,0,0,,,,,,,CRUMB,HB,m,m,./images/CRUMBHB.png,,,,,,,,,,,,,,,,,,,,,z,0,1.0856,,,,,,,,0,25,25,29,1
,,,,,,,,,,,,,,,,,5fc30c35704ddd267cc9123f,34,2022-02-12_12h16.42.210,lexical_decision_task_DD_L3,2021.2.3,Win32,59.92329818,,,,,,,,,,,0.7521,1,,,,,,,,,,,,,,,,,,,,,,,,-0.012036954,-0.424074158,0,0,0,,,,,,,SWING,C,m,m,./images/SWING.png,,,,,,,,,,,,,,,,,,,,,m,1,0.7521,,,,,,,,0,26,26,40,1
,,,,,,,,,,,,,,,,,5fc30c35704ddd267cc9123f,34,2022-02-12_12h16.42.210,lexical_decision_task_DD_L3,2021.2.3,Win32,59.92329818,,,,,,,,,,,0.7666,0,,,,,,,,,,,,,,,,,,,,,,,,-0.012036954,-0.424074158,0,0,0,,,,,,,CLOUD,HB,z,m,./images/CLOUDHB.png,,,,,,,,,,,,,,,,,,,,,m,0,0.7666,,,,,,,,0,27,27,110,1
,,,,,,,,,,,,,,,,,5fc30c35704ddd267cc9123f,34,2022-02-12_12h16.42.210,lexical_decision_task_DD_L3,2021.2.3,Win32,59.92329818,,,,,,,,,,,0.9866,0,,,,,,,,,,,,,,,,,,,,,,,,-0.012036954,-0.424074158,0,0,0,,,,,,,SLOPE,LB,z,m,./images/SLOPELB.png,,,,,,,,,,,,,,,,,,,,,m,0,0.9866,,,,,,,,0,28,28,114,1
,,,,,,,,,,,,,,,,,5fc30c35704ddd267cc9123f,34,2022-02-12_12h16.42.210,lexical_decision_task_DD_L3,2021.2.3,Win32,59.92329818,,,,,,,,,,,0.568,1,,,,,,,,,,,,,,,,,,,,,,,,-0.012036954,-0.424074158,0,0,0,,,,,,,THROAT,LB,m,m,./images/THROATLB.png,,,,,,,,,,,,,,,,,,,,,m,1,0.568,,,,,,,,0,29,29,36,1
,,,,,,,,,,,,,,,,,5fc30c35704ddd267cc9123f,34,2022-02-12_12h16.42.210,lexical_decision_task_DD_L3,2021.2.3,Win32,59.92329818,,,,,,,,,,,0.4351,1,,,,,,,,,,,,,,,,,,,,,,,,-0.012036954,-0.424074158,0,0,0,,,,,,,SQUARE,LB,m,m,./images/SQUARELB.png,,,,,,,,,,,,,,,,,,,,,m,1,0.4351,,,,,,,,0,30,30,6,1
,,,,,,,,,,,,,,,,,5fc30c35704ddd267cc9123f,34,2022-02-12_12h16.42.210,lexical_decision_task_DD_L3,2021.2.3,Win32,59.92329818,,,,,,,,,,,0.535,1,,,,,,,,,,,,,,,,,,,,,,,,-0.012036954,-0.424074158,0,0,0,,,,,,,LITTER,LB,m,m,./images/LITTERLB.png,,,,,,,,,,,,,,,,,,,,,m,1,0.535,,,,,,,,0,31,31,78,1
,,,,,,,,,,,,,,,,,5fc30c35704ddd267cc9123f,34,2022-02-12_12h16.42.210,lexical_decision_task_DD_L3,2021.2.3,Win32,59.92329818,,,,,,,,,,,0.7683,0,,,,,,,,,,,,,,,,,,,,,,,,-0.012036954,-0.424074158,0,0,0,,,,,,,BUTTER,LB,z,m,./images/BUTTERLB.png,,,,,,,,,,,,,,,,,,,,,m,0,0.7683,,,,,,,,0,32,32,111,1
,,,,,,,,,,,,,,,,,5fc30c35704ddd267cc9123f,34,2022-02-12_12h16.42.210,lexical_decision_task_DD_L3,2021.2.3,Win32,59.92329818,,,,,,,,,,,0.8016,1,,,,,,,,,,,,,,,,,,,,,,,,-0.012036954,-0.424074158,0,0,0,,,,,,,MUMMY,C,z,m,./images/MUMMY.png,,,,,,,,,,,,,,,,,,,,,z,1,0.8016,,,,,,,,0,33,33,130,1
,,,,,,,,,,,,,,,,,5fc30c35704ddd267cc9123f,34,2022-02-12_12h16.42.210,lexical_decision_task_DD_L3,2021.2.3,Win32,59.92329818,,,,,,,,,,,0.8854,1,,,,,,,,,,,,,,,,,,,,,,,,-0.012036954,-0.424074158,0,0,0,,,,,,,PLANK,C,m,m,./images/PLANK.png,,,,,,,,,,,,,,,,,,,,,m,1,0.8854,,,,,,,,0,34,34,1,1
,,,,,,,,,,,,,,,,,5fc30c35704ddd267cc9123f,34,2022-02-12_12h16.42.210,lexical_decision_task_DD_L3,2021.2.3,Win32,59.92329818,,,,,,,,,,,0.7022,0,,,,,,,,,,,,,,,,,,,,,,,,-0.012036954,-0.424074158,0,0,0,,,,,,,BAMBOO,HB,z,m,./images/BAMBOOHB.png,,,,,,,,,,,,,,,,,,,,,m,0,0.7022,,,,,,,,0,35,35,89,1
,,,,,,,,,,,,,,,,,5fc30c35704ddd267cc9123f,34,2022-02-12_12h16.42.210,lexical_decision_task_DD_L3,2021.2.3,Win32,59.92329818,,,,,,,,,,,0.7199,1,,,,,,,,,,,,,,,,,,,,,,,,-0.012036954,-0.424074158,0,0,0,,,,,,,FARMER,HB,m,m,./images/FARMERHB.png,,,,,,,,,,,,,,,,,,,,,m,1,0.7199,,,,,,,,0,36,36,65,1
,,,,,,,,,,,,,,,,,5fc30c35704ddd267cc9123f,34,2022-02-12_12h16.42.210,lexical_decision_task_DD_L3,2021.2.3,Win32,59.92329818,,,,,,,,,,,0.8737,0,,,,,,,,,,,,,,,,,,,,,,,,-0.012036954,-0.424074158,0,0,0,,,,,,,STEAK,C,z,m,./images/STEAK.png,,,,,,,,,,,,,,,,,,,,,m,0,0.8737,,,,,,,,0,37,37,115,1
,,,,,,,,,,,,,,,,,5fc30c35704ddd267cc9123f,34,2022-02-12_12h16.42.210,lexical_decision_task_DD_L3,2021.2.3,Win32,59.92329818,,,,,,,,,,,0.7207,1,,,,,,,,,,,,,,,,,,,,,,,,-0.012036954,-0.424074158,0,0,0,,,,,,,STORM,LB,m,m,./images/STORMLB.png,,,,,,,,,,,,,,,,,,,,,m,1,0.7207,,,,,,,,0,38,38,30,1
,,,,,,,,,,,,,,,,,5fc30c35704ddd267cc9123f,34,2022-02-12_12h16.42.210,lexical_decision_task_DD_L3,2021.2.3,Win32,59.92329818,,,,,,,,,,,0.7215,1,,,,,,,,,,,,,,,,,,,,,,,,-0.012036954,-0.424074158,0,0,0,,,,,,,BANANA,C,z,m,./images/BANANA.png,,,,,,,,,,,,,,,,,,,,,z,1,0.7215,,,,,,,,0,39,39,154,1
,,,,,,,,,,,,,,,,,5fc30c35704ddd267cc9123f,34,2022-02-12_12h16.42.210,lexical_decision_task_DD_L3,2021.2.3,Win32,59.92329818,,,,,,,,,,,0.952,1,,,,,,,,,,,,,,,,,,,,,,,,-0.012036954,-0.424074158,0,0,0,,,,,,,BUBBLE,HB,z,m,./images/BUBBLEHB.png,,,,,,,,,,,,,,,,,,,,,z,1,0.952,,,,,,,,0,40,40,155,1
,,,,,,,,,,,,,,,,,5fc30c35704ddd267cc9123f,34,2022-02-12_12h16.42.210,lexical_decision_task_DD_L3,2021.2.3,Win32,59.92329818,,,,,,,,,,,0.7013,1,,,,,,,,,,,,,,,,,,,,,,,,-0.012036954,-0.424074158,0,0,0,space,,,,,,ONION,LB,m,m,./images/ONIONLB.png,1.1827,,,,,,,,,,,,,,,,,,,,m,1,0.7013,,,,,,,,0,41,41,51,1
,,,,,,,,,,,,,,,,,5fc30c35704ddd267cc9123f,34,2022-02-12_12h16.42.210,lexical_decision_task_DD_L3,2021.2.3,Win32,59.92329818,,,,,,,,,,,1.2708,1,,,,,,,,,,,,,,,,,,,,,,,,-0.012036954,-0.424074158,0,0,0,,,,,,,TULIP,HB,m,m,./images/TULIPHB.png,,,,,,,,,,,,,,,,,,,,,m,1,1.2708,,,,,,,,0,42,42,8,1
,,,,,,,,,,,,,,,,,5fc30c35704ddd267cc9123f,34,2022-02-12_12h16.42.210,lexical_decision_task_DD_L3,2021.2.3,Win32,59.92329818,,,,,,,,,,,1.0877,1,,,,,,,,,,,,,,,,,,,,,,,,-0.012036954,-0.424074158,0,0,0,,,,,,,STOVE,HB,z,m,./images/STOVEHB.png,,,,,,,,,,,,,,,,,,,,,z,1,1.0877,,,,,,,,0,43,43,86,1
,,,,,,,,,,,,,,,,,5fc30c35704ddd267cc9123f,34,2022-02-12_12h16.42.210,lexical_decision_task_DD_L3,2021.2.3,Win32,59.92329818,,,,,,,,,,,1.4838,0,,,,,,,,,,,,,,,,,,,,,,,,-0.012036954,-0.424074158,0,0,0,,,,,,,BELLY,C,m,m,./images/BELLY.png,,,,,,,,,,,,,,,,,,,,,z,0,1.4838,,,,,,,,0,44,44,10,1
,,,,,,,,,,,,,,,,,5fc30c35704ddd267cc9123f,34,2022-02-12_12h16.42.210,lexical_decision_task_DD_L3,2021.2.3,Win32,59.92329818,,,,,,,,,,,0.8016,1,,,,,,,,,,,,,,,,,,,,,,,,-0.012036954,-0.424074158,0,0,0,,,,,,,JELLY,C,m,m,./images/JELLY.png,,,,,,,,,,,,,,,,,,,,,m,1,0.8016,,,,,,,,0,45,45,64,1
,,,,,,,,,,,,,,,,,5fc30c35704ddd267cc9123f,34,2022-02-12_12h16.42.210,lexical_decision_task_DD_L3,2021.2.3,Win32,59.92329818,,,,,,,,,,,0.8522,0,,,,,,,,,,,,,,,,,,,,,,,,-0.012036954,-0.424074158,0,0,0,,,,,,,STRING,HB,m,m,./images/STRINGHB.png,,,,,,,,,,,,,,,,,,,,,z,0,0.8522,,,,,,,,0,46,46,41,1
,,,,,,,,,,,,,,,,,5fc30c35704ddd267cc9123f,34,2022-02-12_12h16.42.210,lexical_decision_task_DD_L3,2021.2.3,Win32,59.92329818,,,,,,,,,,,0.6186,0,,,,,,,,,,,,,,,,,,,,,,,,-0.012036954,-0.424074158,0,0,0,,,,,,,CANDY,LB,z,m,./images/CANDYLB.png,,,,,,,,,,,,,,,,,,,,,m,0,0.6186,,,,,,,,0,47,47,123,1
,,,,,,,,,,,,,,,,,5fc30c35704ddd267cc9123f,34,2022-02-12_12h16.42.210,lexical_decision_task_DD_L3,2021.2.3,Win32,59.92329818,,,,,,,,,,,0.6173,1,,,,,,,,,,,,,,,,,,,,,,,,-0.012036954,-0.424074158,0,0,0,,,,,,,COOKER,LB,m,m,./images/COOKERLB.png,,,,,,,,,,,,,,,,,,,,,m,1,0.6173,,,,,,,,0,48,48,69,1
,,,,,,,,,,,,,,,,,5fc30c35704ddd267cc9123f,34,2022-02-12_12h16.42.210,lexical_decision_task_DD_L3,2021.2.3,Win32,59.92329818,,,,,,,,,,,0.8171,1,,,,,,,,,,,,,,,,,,,,,,,,-0.012036954,-0.424074158,0,0,0,,,,,,,MAMMAL,HB,z,m,./images/MAMMALHB.png,,,,,,,,,,,,,,,,,,,,,z,1,0.8171,,,,,,,,0,49,49,146,1
,,,,,,,,,,,,,,,,,5fc30c35704ddd267cc9123f,34,2022-02-12_12h16.42.210,lexical_decision_task_DD_L3,2021.2.3,Win32,59.92329818,,,,,,,,,,,1.0304,1,,,,,,,,,,,,,,,,,,,,,,,,-0.012036954,-0.424074158,0,0,0,,,,,,,LIZARD,HB,m,m,./images/LIZARDHB.png,,,,,,,,,,,,,,,,,,,,,m,1,1.0304,,,,,,,,0,50,50,44,1
,,,,,,,,,,,,,,,,,5fc30c35704ddd267cc9123f,34,2022-02-12_12h16.42.210,lexical_decision_task_DD_L3,2021.2.3,Win32,59.92329818,,,,,,,,,,,0.7057,1,,,,,,,,,,,,,,,,,,,,,,,,-0.012036954,-0.424074158,0,0,0,,,,,,,MOOSE,LB,m,m,./images/MOOSELB.png,,,,,,,,,,,,,,,,,,,,,m,1,0.7057,,,,,,,,0,51,51,57,1
,,,,,,,,,,,,,,,,,5fc30c35704ddd267cc9123f,34,2022-02-12_12h16.42.210,lexical_decision_task_DD_L3,2021.2.3,Win32,59.92329818,,,,,,,,,,,0.7382,0,,,,,,,,,,,,,,,,,,,,,,,,-0.012036954,-0.424074158,0,0,0,,,,,,,FLESH,LB,z,m,./images/FLESHLB.png,,,,,,,,,,,,,,,,,,,,,m,0,0.7382,,,,,,,,0,52,52,108,1
,,,,,,,,,,,,,,,,,5fc30c35704ddd267cc9123f,34,2022-02-12_12h16.42.210,lexical_decision_task_DD_L3,2021.2.3,Win32,59.92329818,,,,,,,,,,,0.7866,0,,,,,,,,,,,,,,,,,,,,,,,,-0.012036954,-0.424074158,0,0,0,,,,,,,BOILER,LB,z,m,./images/BOILERLB.png,,,,,,,,,,,,,,,,,,,,,m,0,0.7866,,,,,,,,0,53,53,120,1
,,,,,,,,,,,,,,,,,5fc30c35704ddd267cc9123f,34,2022-02-12_12h16.42.210,lexical_decision_task_DD_L3,2021.2.3,Win32,59.92329818,,,,,,,,,,,0.568,1,,,,,,,,,,,,,,,,,,,,,,,,-0.012036954,-0.424074158,0,0,0,,,,,,,BARREL,HB,m,m,./images/BARRELHB.png,,,,,,,,,,,,,,,,,,,,,m,1,0.568,,,,,,,,0,54,54,32,1
,,,,,,,,,,,,,,,,,5fc30c35704ddd267cc9123f,34,2022-02-12_12h16.42.210,lexical_decision_task_DD_L3,2021.2.3,Win32,59.92329818,,,,,,,,,,,0.9194,1,,,,,,,,,,,,,,,,,,,,,,,,-0.012036954,-0.424074158,0,0,0,,,,,,,JUNGLE,HB,m,m,./images/JUNGLEHB.png,,,,,,,,,,,,,,,,,,,,,m,1,0.9194,,,,,,,,0,55,55,83,1
,,,,,,,,,,,,,,,,,5fc30c35704ddd267cc9123f,34,2022-02-12_12h16.42.210,lexical_decision_task_DD_L3,2021.2.3,Win32,59.92329818,,,,,,,,,,,1.1036,1,,,,,,,,,,,,,,,,,,,,,,,,-0.012036954,-0.424074158,0,0,0,,,,,,,SNAKE,C,z,m,./images/SNAKE.png,,,,,,,,,,,,,,,,,,,,,z,1,1.1036,,,,,,,,0,56,56,124,1
,,,,,,,,,,,,,,,,,5fc30c35704ddd267cc9123f,34,2022-02-12_12h16.42.210,lexical_decision_task_DD_L3,2021.2.3,Win32,59.92329818,,,,,,,,,,,0.8528,1,,,,,,,,,,,,,,,,,,,,,,,,-0.012036954,-0.424074158,0,0,0,,,,,,,WRIST,C,m,m,./images/WRIST.png,,,,,,,,,,,,,,,,,,,,,m,1,0.8528,,,,,,,,0,57,57,25,1
,,,,,,,,,,,,,,,,,5fc30c35704ddd267cc9123f,34,2022-02-12_12h16.42.210,lexical_decision_task_DD_L3,2021.2.3,Win32,59.92329818,,,,,,,,,,,0.7404,0,,,,,,,,,,,,,,,,,,,,,,,,-0.012036954,-0.424074158,0,0,0,,,,,,,LAGOON,HB,z,m,./images/LAGOONHB.png,,,,,,,,,,,,,,,,,,,,,m,0,0.7404,,,,,,,,0,58,58,131,1
,,,,,,,,,,,,,,,,,5fc30c35704ddd267cc9123f,34,2022-02-12_12h16.42.210,lexical_decision_task_DD_L3,2021.2.3,Win32,59.92329818,,,,,,,,,,,1.6956,1,,,,,,,,,,,,,,,,,,,,,,,,-0.012036954,-0.424074158,0,0,0,,,,,,,CLIFF,HB,z,m,./images/CLIFFHB.png,,,,,,,,,,,,,,,,,,,,,z,1,1.6956,,,,,,,,0,59,59,92,1
,,,,,,,,,,,,,,,,,5fc30c35704ddd267cc9123f,34,2022-02-12_12h16.42.210,lexical_decision_task_DD_L3,2021.2.3,Win32,59.92329818,,,,,,,,,,,0.7356,0,,,,,,,,,,,,,,,,,,,,,,,,-0.012036954,-0.424074158,0,0,0,,,,,,,WAGON,C,z,m,./images/WAGON.png,,,,,,,,,,,,,,,,,,,,,m,0,0.7356,,,,,,,,0,60,60,91,1
,,,,,,,,,,,,,,,,,5fc30c35704ddd267cc9123f,34,2022-02-12_12h16.42.210,lexical_decision_task_DD_L3,2021.2.3,Win32,59.92329818,,,,,,,,,,,1.1625,1,,,,,,,,,,,,,,,,,,,,,,,,-0.012036954,-0.424074158,0,0,0,,,,,,,HEATER,HB,z,m,./images/HEATERHB.png,,,,,,,,,,,,,,,,,,,,,z,1,1.1625,,,,,,,,0,61,61,140,1
,,,,,,,,,,,,,,,,,5fc30c35704ddd267cc9123f,34,2022-02-12_12h16.42.210,lexical_decision_task_DD_L3,2021.2.3,Win32,59.92329818,,,,,,,,,,,0.6143,0,,,,,,,,,,,,,,,,,,,,,,,,-0.012036954,-0.424074158,0,0,0,,,,,,,DIVER,LB,z,m,./images/DIVERLB.png,,,,,,,,,,,,,,,,,,,,,m,0,0.6143,,,,,,,,0,62,62,93,1
,,,,,,,,,,,,,,,,,5fc30c35704ddd267cc9123f,34,2022-02-12_12h16.42.210,lexical_decision_task_DD_L3,2021.2.3,Win32,59.92329818,,,,,,,,,,,0.8411,1,,,,,,,,,,,,,,,,,,,,,,,,-0.012036954,-0.424074158,0,0,0,,,,,,,DRUMS,C,m,m,./images/DRUMS.png,,,,,,,,,,,,,,,,,,,,,m,1,0.8411,,,,,,,,0,63,63,49,1
,,,,,,,,,,,,,,,,,5fc30c35704ddd267cc9123f,34,2022-02-12_12h16.42.210,lexical_decision_task_DD_L3,2021.2.3,Win32,59.92329818,,,,,,,,,,,0.6355,1,,,,,,,,,,,,,,,,,,,,,,,,-0.012036954,-0.424074158,0,0,0,,,,,,,PICKLE,HB,m,m,./images/PICKLEHB.png,,,,,,,,,,,,,,,,,,,,,m,1,0.6355,,,,,,,,0,64,64,14,1
,,,,,,,,,,,,,,,,,5fc30c35704ddd267cc9123f,34,2022-02-12_12h16.42.210,lexical_decision_task_DD_L3,2021.2.3,Win32,59.92329818,,,,,,,,,,,0.903,1,,,,,,,,,,,,,,,,,,,,,,,,-0.012036954,-0.424074158,0,0,0,,,,,,,FINGER,LB,m,m,./images/FINGERLB.png,,,,,,,,,,,,,,,,,,,,,m,1,0.903,,,,,,,,0,65,65,3,1
,,,,,,,,,,,,,,,,,5fc30c35704ddd267cc9123f,34,2022-02-12_12h16.42.210,lexical_decision_task_DD_L3,2021.2.3,Win32,59.92329818,,,,,,,,,,,1.2707,0,,,,,,,,,,,,,,,,,,,,,,,,-0.012036954,-0.424074158,0,0,0,,,,,,,CURRY,LB,z,m,./images/CURRYLB.png,,,,,,,,,,,,,,,,,,,,,m,0,1.2707,,,,,,,,0,66,66,144,1
,,,,,,,,,,,,,,,,,5fc30c35704ddd267cc9123f,34,2022-02-12_12h16.42.210,lexical_decision_task_DD_L3,2021.2.3,Win32,59.92329818,,,,,,,,,,,0.7853,0,,,,,,,,,,,,,,,,,,,,,,,,-0.012036954,-0.424074158,0,0,0,,,,,,,BUNNY,C,z,m,./images/BUNNY.png,,,,,,,,,,,,,,,,,,,,,m,0,0.7853,,,,,,,,0,67,67,97,1
,,,,,,,,,,,,,,,,,5fc30c35704ddd267cc9123f,34,2022-02-12_12h16.42.210,lexical_decision_task_DD_L3,2021.2.3,Win32,59.92329818,,,,,,,,,,,0.6248,1,,,,,,,,,,,,,,,,,,,,,,,,-0.012036954,-0.424074158,0,0,0,,,,,,,INFANT,C,m,m,./images/INFANT.png,,,,,,,,,,,,,,,,,,,,,m,1,0.6248,,,,,,,,0,68,68,76,1
,,,,,,,,,,,,,,,,,5fc30c35704ddd267cc9123f,34,2022-02-12_12h16.42.210,lexical_decision_task_DD_L3,2021.2.3,Win32,59.92329818,,,,,,,,,,,0.635,1,,,,,,,,,,,,,,,,,,,,,,,,-0.012036954,-0.424074158,0,0,0,,,,,,,BURIAL,HB,m,m,./images/BURIALHB.png,,,,,,,,,,,,,,,,,,,,,m,1,0.635,,,,,,,,0,69,69,59,1
,,,,,,,,,,,,,,,,,5fc30c35704ddd267cc9123f,34,2022-02-12_12h16.42.210,lexical_decision_task_DD_L3,2021.2.3,Win32,59.92329818,,,,,,,,,,,0.6468,1,,,,,,,,,,,,,,,,,,,,,,,,-0.012036954,-0.424074158,0,0,0,,,,,,,PEARL,C,m,m,./images/PEARL.png,,,,,,,,,,,,,,,,,,,,,m,1,0.6468,,,,,,,,0,70,70,46,1
,,,,,,,,,,,,,,,,,5fc30c35704ddd267cc9123f,34,2022-02-12_12h16.42.210,lexical_decision_task_DD_L3,2021.2.3,Win32,59.92329818,,,,,,,,,,,0.7018,0,,,,,,,,,,,,,,,,,,,,,,,,-0.012036954,-0.424074158,0,0,0,,,,,,,GREASE,LB,m,m,./images/GREASELB.png,,,,,,,,,,,,,,,,,,,,,z,0,0.7018,,,,,,,,0,71,71,15,1
,,,,,,,,,,,,,,,,,5fc30c35704ddd267cc9123f,34,2022-02-12_12h16.42.210,lexical_decision_task_DD_L3,2021.2.3,Win32,59.92329818,,,,,,,,,,,0.7075,1,,,,,,,,,,,,,,,,,,,,,,,,-0.012036954,-0.424074158,0,0,0,,,,,,,BANNER,C,m,m,./images/BANNER.png,,,,,,,,,,,,,,,,,,,,,m,1,0.7075,,,,,,,,0,72,72,52,1
,,,,,,,,,,,,,,,,,5fc30c35704ddd267cc9123f,34,2022-02-12_12h16.42.210,lexical_decision_task_DD_L3,2021.2.3,Win32,59.92329818,,,,,,,,,,,0.6023,1,,,,,,,,,,,,,,,,,,,,,,,,-0.012036954,-0.424074158,0,0,0,,,,,,,PIMPLE,HB,m,m,./images/PIMPLEHB.png,,,,,,,,,,,,,,,,,,,,,m,1,0.6023,,,,,,,,0,73,73,71,1
,,,,,,,,,,,,,,,,,5fc30c35704ddd267cc9123f,34,2022-02-12_12h16.42.210,lexical_decision_task_DD_L3,2021.2.3,Win32,59.92329818,,,,,,,,,,,0.7227,0,,,,,,,,,,,,,,,,,,,,,,,,-0.012036954,-0.424074158,0,0,0,,,,,,,PLANET,HB,z,m,./images/PLANETHB.png,,,,,,,,,,,,,,,,,,,,,m,0,0.7227,,,,,,,,0,74,74,164,1
,,,,,,,,,,,,,,,,,5fc30c35704ddd267cc9123f,34,2022-02-12_12h16.42.210,lexical_decision_task_DD_L3,2021.2.3,Win32,59.92329818,,,,,,,,,,,0.8402,1,,,,,,,,,,,,,,,,,,,,,,,,-0.012036954,-0.424074158,0,0,0,,,,,,,BRUSH,HB,z,m,./images/BRUSHHB.png,,,,,,,,,,,,,,,,,,,,,z,1,0.8402,,,,,,,,0,75,75,143,1
,,,,,,,,,,,,,,,,,5fc30c35704ddd267cc9123f,34,2022-02-12_12h16.42.210,lexical_decision_task_DD_L3,2021.2.3,Win32,59.92329818,,,,,,,,,,,0.7249,1,,,,,,,,,,,,,,,,,,,,,,,,-0.012036954,-0.424074158,0,0,0,,,,,,,VALLEY,HB,z,m,./images/VALLEYHB.png,,,,,,,,,,,,,,,,,,,,,z,1,0.7249,,,,,,,,0,76,76,152,1
,,,,,,,,,,,,,,,,,5fc30c35704ddd267cc9123f,34,2022-02-12_12h16.42.210,lexical_decision_task_DD_L3,2021.2.3,Win32,59.92329818,,,,,,,,,,,0.6758,1,,,,,,,,,,,,,,,,,,,,,,,,-0.012036954,-0.424074158,0,0,0,,,,,,,SCREW,LB,m,m,./images/SCREWLB.png,,,,,,,,,,,,,,,,,,,,,m,1,0.6758,,,,,,,,0,77,77,24,1
,,,,,,,,,,,,,,,,,5fc30c35704ddd267cc9123f,34,2022-02-12_12h16.42.210,lexical_decision_task_DD_L3,2021.2.3,Win32,59.92329818,,,,,,,,,,,0.802,0,,,,,,,,,,,,,,,,,,,,,,,,-0.012036954,-0.424074158,0,0,0,,,,,,,DESERT,C,z,m,./images/DESERT.png,,,,,,,,,,,,,,,,,,,,,m,0,0.802,,,,,,,,0,78,78,136,1
,,,,,,,,,,,,,,,,,5fc30c35704ddd267cc9123f,34,2022-02-12_12h16.42.210,lexical_decision_task_DD_L3,2021.2.3,Win32,59.92329818,,,,,,,,,,,0.6888,1,,,,,,,,,,,,,,,,,,,,,,,,-0.012036954,-0.424074158,0,0,0,,,,,,,MOTOR,C,m,m,./images/MOTOR.png,,,,,,,,,,,,,,,,,,,,,m,1,0.6888,,,,,,,,0,79,79,13,1
,,,,,,,,,,,,,,,,,5fc30c35704ddd267cc9123f,34,2022-02-12_12h16.42.210,lexical_decision_task_DD_L3,2021.2.3,Win32,59.92329818,,,,,,,,,,,0.5863,1,,,,,,,,,,,,,,,,,,,,,,,,-0.012036954,-0.424074158,0,0,0,,,,,,,BISHOP,C,z,m,./images/BISHOP.png,,,,,,,,,,,,,,,,,,,,,z,1,0.5863,,,,,,,,0,80,80,133,1
,,,,,,,,,,,,,,,,,5fc30c35704ddd267cc9123f,34,2022-02-12_12h16.42.210,lexical_decision_task_DD_L3,2021.2.3,Win32,59.92329818,,,,,,,,,,,0.8534,1,,,,,,,,,,,,,,,,,,,,,,,,-0.012036954,-0.424074158,0,0,0,,,,,,,CANDLE,C,m,m,./images/CANDLE.png,,,,,,,,,,,,,,,,,,,,,m,1,0.8534,,,,,,,,0,81,81,61,1
,,,,,,,,,,,,,,,,,5fc30c35704ddd267cc9123f,34,2022-02-12_12h16.42.210,lexical_decision_task_DD_L3,2021.2.3,Win32,59.92329818,,,,,,,,,,,0.8358,1,,,,,,,,,,,,,,,,,,,,,,,,-0.012036954,-0.424074158,0,0,0,,,,,,,SPINE,HB,z,m,./images/SPINEHB.png,,,,,,,,,,,,,,,,,,,,,z,1,0.8358,,,,,,,,0,82,82,149,1
,,,,,,,,,,,,,,,,,5fc30c35704ddd267cc9123f,34,2022-02-12_12h16.42.210,lexical_decision_task_DD_L3,2021.2.3,Win32,59.92329818,,,,,,,,,,,0.6388,0,,,,,,,,,,,,,,,,,,,,,,,,-0.012036954,-0.424074158,0,0,0,space,,,,,,GLOVE,C,z,m,./images/GLOVE.png,1.1142,,,,,,,,,,,,,,,,,,,,m,0,0.6388,,,,,,,,0,83,83,157,1
,,,,,,,,,,,,,,,,,5fc30c35704ddd267cc9123f,34,2022-02-12_12h16.42.210,lexical_decision_task_DD_L3,2021.2.3,Win32,59.92329818,,,,,,,,,,,0.7187,1,,,,,,,,,,,,,,,,,,,,,,,,-0.012036954,-0.424074158,0,0,0,,,,,,,SWEAT,LB,m,m,./images/SWEATLB.png,,,,,,,,,,,,,,,,,,,,,m,1,0.7187,,,,,,,,0,84,84,66,1
,,,,,,,,,,,,,,,,,5fc30c35704ddd267cc9123f,34,2022-02-12_12h16.42.210,lexical_decision_task_DD_L3,2021.2.3,Win32,59.92329818,,,,,,,,,,,0.613,1,,,,,,,,,,,,,,,,,,,,,,,,-0.012036954,-0.424074158,0,0,0,,,,,,,PEACH,HB,m,m,./images/PEACHHB.png,,,,,,,,,,,,,,,,,,,,,m,1,0.613,,,,,,,,0,85,85,35,1
,,,,,,,,,,,,,,,,,5fc30c35704ddd267cc9123f,34,2022-02-12_12h16.42.210,lexical_decision_task_DD_L3,2021.2.3,Win32,59.92329818,,,,,,,,,,,0.5774,1,,,,,,,,,,,,,,,,,,,,,,,,-0.012036954,-0.424074158,0,0,0,,,,,,,ATTIC,LB,m,m,./images/ATTICLB.png,,,,,,,,,,,,,,,,,,,,,m,1,0.5774,,,,,,,,0,86,86,27,1
,,,,,,,,,,,,,,,,,5fc30c35704ddd267cc9123f,34,2022-02-12_12h16.42.210,lexical_decision_task_DD_L3,2021.2.3,Win32,59.92329818,,,,,,,,,,,0.8696,1,,,,,,,,,,,,,,,,,,,,,,,,-0.012036954,-0.424074158,0,0,0,,,,,,,POSTER,HB,z,m,./images/POSTERHB.png,,,,,,,,,,,,,,,,,,,,,z,1,0.8696,,,,,,,,0,87,87,137,1
,,,,,,,,,,,,,,,,,5fc30c35704ddd267cc9123f,34,2022-02-12_12h16.42.210,lexical_decision_task_DD_L3,2021.2.3,Win32,59.92329818,,,,,,,,,,,0.7018,1,,,,,,,,,,,,,,,,,,,,,,,,-0.012036954,-0.424074158,0,0,0,,,,,,,BLOKE,LB,z,m,./images/BLOKELB.png,,,,,,,,,,,,,,,,,,,,,z,1,0.7018,,,,,,,,0,88,88,96,1
,,,,,,,,,,,,,,,,,5fc30c35704ddd267cc9123f,34,2022-02-12_12h16.42.210,lexical_decision_task_DD_L3,2021.2.3,Win32,59.92329818,,,,,,,,,,,0.6291,0,,,,,,,,,,,,,,,,,,,,,,,,-0.012036954,-0.424074158,0,0,0,,,,,,,POKER,C,z,m,./images/POKER.png,,,,,,,,,,,,,,,,,,,,,m,0,0.6291,,,,,,,,0,89,89,151,1
,,,,,,,,,,,,,,,,,5fc30c35704ddd267cc9123f,34,2022-02-12_12h16.42.210,lexical_decision_task_DD_L3,2021.2.3,Win32,59.92329818,,,,,,,,,,,0.7025,1,,,,,,,,,,,,,,,,,,,,,,,,-0.012036954,-0.424074158,0,0,0,,,,,,,BOXER,C,z,m,./images/BOXER.png,,,,,,,,,,,,,,,,,,,,,z,1,0.7025,,,,,,,,0,90,90,88,1
,,,,,,,,,,,,,,,,,5fc30c35704ddd267cc9123f,34,2022-02-12_12h16.42.210,lexical_decision_task_DD_L3,2021.2.3,Win32,59.92329818,,,,,,,,,,,0.7817,1,,,,,,,,,,,,,,,,,,,,,,,,-0.012036954,-0.424074158,0,0,0,,,,,,,TWINS,LB,m,m,./images/TWINSLB.png,,,,,,,,,,,,,,,,,,,,,m,1,0.7817,,,,,,,,0,91,91,60,1
,,,,,,,,,,,,,,,,,5fc30c35704ddd267cc9123f,34,2022-02-12_12h16.42.210,lexical_decision_task_DD_L3,2021.2.3,Win32,59.92329818,,,,,,,,,,,0.6013,1,,,,,,,,,,,,,,,,,,,,,,,,-0.012036954,-0.424074158,0,0,0,,,,,,,WEASEL,HB,m,m,./images/WEASELHB.png,,,,,,,,,,,,,,,,,,,,,m,1,0.6013,,,,,,,,0,92,92,80,1
,,,,,,,,,,,,,,,,,5fc30c35704ddd267cc9123f,34,2022-02-12_12h16.42.210,lexical_decision_task_DD_L3,2021.2.3,Win32,59.92329818,,,,,,,,,,,0.8865,1,,,,,,,,,,,,,,,,,,,,,,,,-0.012036954,-0.424074158,0,0,0,,,,,,,GRAIN,LB,m,m,./images/GRAINLB.png,,,,,,,,,,,,,,,,,,,,,m,1,0.8865,,,,,,,,0,93,93,75,1
,,,,,,,,,,,,,,,,,5fc30c35704ddd267cc9123f,34,2022-02-12_12h16.42.210,lexical_decision_task_DD_L3,2021.2.3,Win32,59.92329818,,,,,,,,,,,0.9414,0,,,,,,,,,,,,,,,,,,,,,,,,-0.012036954,-0.424074158,0,0,0,,,,,,,DANCER,LB,z,m,./images/DANCERLB.png,,,,,,,,,,,,,,,,,,,,,m,0,0.9414,,,,,,,,0,94,94,105,1
,,,,,,,,,,,,,,,,,5fc30c35704ddd267cc9123f,34,2022-02-12_12h16.42.210,lexical_decision_task_DD_L3,2021.2.3,Win32,59.92329818,,,,,,,,,,,0.8519,1,,,,,,,,,,,,,,,,,,,,,,,,-0.012036954,-0.424074158,0,0,0,,,,,,,WHEEL,HB,z,m,./images/WHEELHB.png,,,,,,,,,,,,,,,,,,,,,z,1,0.8519,,,,,,,,0,95,95,161,1
,,,,,,,,,,,,,,,,,5fc30c35704ddd267cc9123f,34,2022-02-12_12h16.42.210,lexical_decision_task_DD_L3,2021.2.3,Win32,59.92329818,,,,,,,,,,,0.6171,1,,,,,,,,,,,,,,,,,,,,,,,,-0.012036954,-0.424074158,0,0,0,,,,,,,CRUST,C,m,m,./images/CRUST.png,,,,,,,,,,,,,,,,,,,,,m,1,0.6171,,,,,,,,0,96,96,79,1
,,,,,,,,,,,,,,,,,5fc30c35704ddd267cc9123f,34,2022-02-12_12h16.42.210,lexical_decision_task_DD_L3,2021.2.3,Win32,59.92329818,,,,,,,,,,,0.6699,1,,,,,,,,,,,,,,,,,,,,,,,,-0.012036954,-0.424074158,0,0,0,,,,,,,BABOON,C,m,m,./images/BABOON.png,,,,,,,,,,,,,,,,,,,,,m,1,0.6699,,,,,,,,0,97,97,58,1
,,,,,,,,,,,,,,,,,5fc30c35704ddd267cc9123f,34,2022-02-12_12h16.42.210,lexical_decision_task_DD_L3,2021.2.3,Win32,59.92329818,,,,,,,,,,,0.7765,0,,,,,,,,,,,,,,,,,,,,,,,,-0.012036954,-0.424074158,0,0,0,,,,,,,FLASK,LB,z,m,./images/FLASKLB.png,,,,,,,,,,,,,,,,,,,,,m,0,0.7765,,,,,,,,0,98,98,156,1
,,,,,,,,,,,,,,,,,5fc30c35704ddd267cc9123f,34,2022-02-12_12h16.42.210,lexical_decision_task_DD_L3,2021.2.3,Win32,59.92329818,,,,,,,,,,,1.0199,1,,,,,,,,,,,,,,,,,,,,,,,,-0.012036954,-0.424074158,0,0,0,,,,,,,STAIN,LB,z,m,./images/STAINLB.png,,,,,,,,,,,,,,,,,,,,,z,1,1.0199,,,,,,,,0,99,99,90,1
,,,,,,,,,,,,,,,,,5fc30c35704ddd267cc9123f,34,2022-02-12_12h16.42.210,lexical_decision_task_DD_L3,2021.2.3,Win32,59.92329818,,,,,,,,,,,0.6394,0,,,,,,,,,,,,,,,,,,,,,,,,-0.012036954,-0.424074158,0,0,0,,,,,,,HAMMER,LB,z,m,./images/HAMMERLB.png,,,,,,,,,,,,,,,,,,,,,m,0,0.6394,,,,,,,,0,100,100,159,1
,,,,,,,,,,,,,,,,,5fc30c35704ddd267cc9123f,34,2022-02-12_12h16.42.210,lexical_decision_task_DD_L3,2021.2.3,Win32,59.92329818,,,,,,,,,,,0.704,0,,,,,,,,,,,,,,,,,,,,,,,,-0.012036954,-0.424074158,0,0,0,,,,,,,SAUCE,LB,z,m,./images/SAUCELB.png,,,,,,,,,,,,,,,,,,,,,m,0,0.704,,,,,,,,0,101,101,135,1
,,,,,,,,,,,,,,,,,5fc30c35704ddd267cc9123f,34,2022-02-12_12h16.42.210,lexical_decision_task_DD_L3,2021.2.3,Win32,59.92329818,,,,,,,,,,,0.8359,1,,,,,,,,,,,,,,,,,,,,,,,,-0.012036954,-0.424074158,0,0,0,,,,,,,CASINO,C,z,m,./images/CASINO.png,,,,,,,,,,,,,,,,,,,,,z,1,0.8359,,,,,,,,0,102,102,112,1
,,,,,,,,,,,,,,,,,5fc30c35704ddd267cc9123f,34,2022-02-12_12h16.42.210,lexical_decision_task_DD_L3,2021.2.3,Win32,59.92329818,,,,,,,,,,,1.4324,0,,,,,,,,,,,,,,,,,,,,,,,,-0.012036954,-0.424074158,0,0,0,,,,,,,TOMATO,LB,m,m,./images/TOMATOLB.png,,,,,,,,,,,,,,,,,,,,,z,0,1.4324,,,,,,,,0,103,103,0,1
,,,,,,,,,,,,,,,,,5fc30c35704ddd267cc9123f,34,2022-02-12_12h16.42.210,lexical_decision_task_DD_L3,2021.2.3,Win32,59.92329818,,,,,,,,,,,1.0394,1,,,,,,,,,,,,,,,,,,,,,,,,-0.012036954,-0.424074158,0,0,0,,,,,,,BIRTH,C,m,m,./images/BIRTH.png,,,,,,,,,,,,,,,,,,,,,m,1,1.0394,,,,,,,,0,104,104,37,1
,,,,,,,,,,,,,,,,,5fc30c35704ddd267cc9123f,34,2022-02-12_12h16.42.210,lexical_decision_task_DD_L3,2021.2.3,Win32,59.92329818,,,,,,,,,,,0.785,0,,,,,,,,,,,,,,,,,,,,,,,,-0.012036954,-0.424074158,0,0,0,,,,,,,PACKET,HB,m,m,./images/PACKETHB.png,,,,,,,,,,,,,,,,,,,,,z,0,0.785,,,,,,,,0,105,105,56,1
,,,,,,,,,,,,,,,,,5fc30c35704ddd267cc9123f,34,2022-02-12_12h16.42.210,lexical_decision_task_DD_L3,2021.2.3,Win32,59.92329818,,,,,,,,,,,1.4846,1,,,,,,,,,,,,,,,,,,,,,,,,-0.012036954,-0.424074158,0,0,0,,,,,,,FOLDER,LB,m,m,./images/FOLDERLB.png,,,,,,,,,,,,,,,,,,,,,m,1,1.4846,,,,,,,,0,106,106,42,1
,,,,,,,,,,,,,,,,,5fc30c35704ddd267cc9123f,34,2022-02-12_12h16.42.210,lexical_decision_task_DD_L3,2021.2.3,Win32,59.92329818,,,,,,,,,,,0.8062,0,,,,,,,,,,,,,,,,,,,,,,,,-0.012036954,-0.424074158,0,0,0,,,,,,,MIDGET,C,z,m,./images/MIDGET.png,,,,,,,,,,,,,,,,,,,,,m,0,0.8062,,,,,,,,0,107,107,160,1
,,,,,,,,,,,,,,,,,5fc30c35704ddd267cc9123f,34,2022-02-12_12h16.42.210,lexical_decision_task_DD_L3,2021.2.3,Win32,59.92329818,,,,,,,,,,,0.8551,1,,,,,,,,,,,,,,,,,,,,,,,,-0.012036954,-0.424074158,0,0,0,,,,,,,SAUNA,LB,z,m,./images/SAUNALB.png,,,,,,,,,,,,,,,,,,,,,z,1,0.8551,,,,,,,,0,108,108,117,1
,,,,,,,,,,,,,,,,,5fc30c35704ddd267cc9123f,34,2022-02-12_12h16.42.210,lexical_decision_task_DD_L3,2021.2.3,Win32,59.92329818,,,,,,,,,,,0.8055,1,,,,,,,,,,,,,,,,,,,,,,,,-0.012036954,-0.424074158,0,0,0,,,,,,,COUCH,HB,m,m,./images/COUCHHB.png,,,,,,,,,,,,,,,,,,,,,m,1,0.8055,,,,,,,,0,109,109,77,1
,,,,,,,,,,,,,,,,,5fc30c35704ddd267cc9123f,34,2022-02-12_12h16.42.210,lexical_decision_task_DD_L3,2021.2.3,Win32,59.92329818,,,,,,,,,,,0.7688,0,,,,,,,,,,,,,,,,,,,,,,,,-0.012036954,-0.424074158,0,0,0,,,,,,,STREAM,HB,z,m,./images/STREAMHB.png,,,,,,,,,,,,,,,,,,,,,m,0,0.7688,,,,,,,,0,110,110,125,1
,,,,,,,,,,,,,,,,,5fc30c35704ddd267cc9123f,34,2022-02-12_12h16.42.210,lexical_decision_task_DD_L3,2021.2.3,Win32,59.92329818,,,,,,,,,,,1.5095,0,,,,,,,,,,,,,,,,,,,,,,,,-0.012036954,-0.424074158,0,0,0,,,,,,,PISTOL,HB,z,m,./images/PISTOLHB.png,,,,,,,,,,,,,,,,,,,,,m,0,1.5095,,,,,,,,0,111,111,113,1
,,,,,,,,,,,,,,,,,5fc30c35704ddd267cc9123f,34,2022-02-12_12h16.42.210,lexical_decision_task_DD_L3,2021.2.3,Win32,59.92329818,,,,,,,,,,,1.0196,1,,,,,,,,,,,,,,,,,,,,,,,,-0.012036954,-0.424074158,0,0,0,,,,,,,CLOTH,HB,z,m,./images/CLOTHHB.png,,,,,,,,,,,,,,,,,,,,,z,1,1.0196,,,,,,,,0,112,112,107,1
,,,,,,,,,,,,,,,,,5fc30c35704ddd267cc9123f,34,2022-02-12_12h16.42.210,lexical_decision_task_DD_L3,2021.2.3,Win32,59.92329818,,,,,,,,,,,0.6851,1,,,,,,,,,,,,,,,,,,,,,,,,-0.012036954,-0.424074158,0,0,0,,,,,,,NOOSE,LB,m,m,./images/NOOSELB.png,,,,,,,,,,,,,,,,,,,,,m,1,0.6851,,,,,,,,0,113,113,72,1
,,,,,,,,,,,,,,,,,5fc30c35704ddd267cc9123f,34,2022-02-12_12h16.42.210,lexical_decision_task_DD_L3,2021.2.3,Win32,59.92329818,,,,,,,,,,,0.9463,0,,,,,,,,,,,,,,,,,,,,,,,,-0.012036954,-0.424074158,0,0,0,,,,,,,CHALK,C,z,m,./images/CHALK.png,,,,,,,,,,,,,,,,,,,,,m,0,0.9463,,,,,,,,0,114,114,109,1
,,,,,,,,,,,,,,,,,5fc30c35704ddd267cc9123f,34,2022-02-12_12h16.42.210,lexical_decision_task_DD_L3,2021.2.3,Win32,59.92329818,,,,,,,,,,,0.4057,1,,,,,,,,,,,,,,,,,,,,,,,,-0.012036954,-0.424074158,0,0,0,,,,,,,MIRROR,LB,m,m,./images/MIRRORLB.png,,,,,,,,,,,,,,,,,,,,,m,1,0.4057,,,,,,,,0,115,115,63,1
,,,,,,,,,,,,,,,,,5fc30c35704ddd267cc9123f,34,2022-02-12_12h16.42.210,lexical_decision_task_DD_L3,2021.2.3,Win32,59.92329818,,,,,,,,,,,1.016,1,,,,,,,,,,,,,,,,,,,,,,,,-0.012036954,-0.424074158,0,0,0,,,,,,,DRILL,LB,z,m,./images/DRILLLB.png,,,,,,,,,,,,,,,,,,,,,z,1,1.016,,,,,,,,0,116,116,165,1
,,,,,,,,,,,,,,,,,5fc30c35704ddd267cc9123f,34,2022-02-12_12h16.42.210,lexical_decision_task_DD_L3,2021.2.3,Win32,59.92329818,,,,,,,,,,,0.7181,0,,,,,,,,,,,,,,,,,,,,,,,,-0.012036954,-0.424074158,0,0,0,,,,,,,WALNUT,LB,z,m,./images/WALNUTLB.png,,,,,,,,,,,,,,,,,,,,,m,0,0.7181,,,,,,,,0,117,117,84,1
,,,,,,,,,,,,,,,,,5fc30c35704ddd267cc9123f,34,2022-02-12_12h16.42.210,lexical_decision_task_DD_L3,2021.2.3,Win32,59.92329818,,,,,,,,,,,0.6727,0,,,,,,,,,,,,,,,,,,,,,,,,-0.012036954,-0.424074158,0,0,0,,,,,,,FERRY,LB,z,m,./images/FERRYLB.png,,,,,,,,,,,,,,,,,,,,,m,0,0.6727,,,,,,,,0,118,118,141,1
,,,,,,,,,,,,,,,,,5fc30c35704ddd267cc9123f,34,2022-02-12_12h16.42.210,lexical_decision_task_DD_L3,2021.2.3,Win32,59.92329818,,,,,,,,,,,0.8692,0,,,,,,,,,,,,,,,,,,,,,,,,-0.012036954,-0.424074158,0,0,0,,,,,,,STOOL,C,z,m,./images/STOOL.png,,,,,,,,,,,,,,,,,,,,,m,0,0.8692,,,,,,,,0,119,119,127,1
,,,,,,,,,,,,,,,,,5fc30c35704ddd267cc9123f,34,2022-02-12_12h16.42.210,lexical_decision_task_DD_L3,2021.2.3,Win32,59.92329818,,,,,,,,,,,0.6854,0,,,,,,,,,,,,,,,,,,,,,,,,-0.012036954,-0.424074158,0,0,0,,,,,,,SHELF,LB,m,m,./images/SHELFLB.png,,,,,,,,,,,,,,,,,,,,,z,0,0.6854,,,,,,,,0,120,120,39,1
,,,,,,,,,,,,,,,,,5fc30c35704ddd267cc9123f,34,2022-02-12_12h16.42.210,lexical_decision_task_DD_L3,2021.2.3,Win32,59.92329818,,,,,,,,,,,0.4997,0,,,,,,,,,,,,,,,,,,,,,,,,-0.012036954,-0.424074158,0,0,0,,,,,,,ARROW,LB,z,m,./images/ARROWLB.png,,,,,,,,,,,,,,,,,,,,,m,0,0.4997,,,,,,,,0,121,121,153,1
,,,,,,,,,,,,,,,,,5fc30c35704ddd267cc9123f,34,2022-02-12_12h16.42.210,lexical_decision_task_DD_L3,2021.2.3,Win32,59.92329818,,,,,,,,,,,0.4704,1,,,,,,,,,,,,,,,,,,,,,,,,-0.012036954,-0.424074158,0,0,0,,,,,,,DOUGH,C,m,m,./images/DOUGH.png,,,,,,,,,,,,,,,,,,,,,m,1,0.4704,,,,,,,,0,122,122,19,1
,,,,,,,,,,,,,,,,,5fc30c35704ddd267cc9123f,34,2022-02-12_12h16.42.210,lexical_decision_task_DD_L3,2021.2.3,Win32,59.92329818,,,,,,,,,,,0.9693,0,,,,,,,,,,,,,,,,,,,,,,,,-0.012036954,-0.424074158,0,0,0,,,,,,,CRATER,LB,z,m,./images/CRATERLB.png,,,,,,,,,,,,,,,,,,,,,m,0,0.9693,,,,,,,,0,123,123,87,1
,,,,,,,,,,,,,,,,,5fc30c35704ddd267cc9123f,34,2022-02-12_12h16.42.210,lexical_decision_task_DD_L3,2021.2.3,Win32,59.92329818,,,,,,,,,,,0.6853,1,,,,,,,,,,,,,,,,,,,,,,,,-0.012036954,-0.424074158,0,0,0,,,,,,,CARPET,HB,m,m,./images/CARPETHB.png,,,,,,,,,,,,,,,,,,,,,m,1,0.6853,,,,,,,,0,124,124,53,1
,,,,,,,,,,,,,,,,,5fc30c35704ddd267cc9123f,34,2022-02-12_12h16.42.210,lexical_decision_task_DD_L3,2021.2.3,Win32,59.92329818,,,,,,,,,,,0.7532,1,,,,,,,,,,,,,,,,,,,,,,,,-0.012036954,-0.424074158,0,0,0,space,,,,,,CHAIN,LB,z,m,./images/CHAINLB.png,2.1903,,,,,,,,,,,,,,,,,,,,z,1,0.7532,,,,,,,,0,125,125,126,1
,,,,,,,,,,,,,,,,,5fc30c35704ddd267cc9123f,34,2022-02-12_12h16.42.210,lexical_decision_task_DD_L3,2021.2.3,Win32,59.92329818,,,,,,,,,,,0.8918,0,,,,,,,,,,,,,,,,,,,,,,,,-0.012036954,-0.424074158,0,0,0,,,,,,,CHERRY,LB,z,m,./images/CHERRYLB.png,,,,,,,,,,,,,,,,,,,,,m,0,0.8918,,,,,,,,0,126,126,138,1
,,,,,,,,,,,,,,,,,5fc30c35704ddd267cc9123f,34,2022-02-12_12h16.42.210,lexical_decision_task_DD_L3,2021.2.3,Win32,59.92329818,,,,,,,,,,,0.354,0,,,,,,,,,,,,,,,,,,,,,,,,-0.012036954,-0.424074158,0,0,0,,,,,,,STATUE,LB,z,m,./images/STATUELB.png,,,,,,,,,,,,,,,,,,,,,m,0,0.354,,,,,,,,0,127,127,150,1
,,,,,,,,,,,,,,,,,5fc30c35704ddd267cc9123f,34,2022-02-12_12h16.42.210,lexical_decision_task_DD_L3,2021.2.3,Win32,59.92329818,,,,,,,,,,,1.1706,0,,,,,,,,,,,,,,,,,,,,,,,,-0.012036954,-0.424074158,0,0,0,,,,,,,MALLET,HB,m,m,./images/MALLETHB.png,,,,,,,,,,,,,,,,,,,,,z,0,1.1706,,,,,,,,0,128,128,50,1
,,,,,,,,,,,,,,,,,5fc30c35704ddd267cc9123f,34,2022-02-12_12h16.42.210,lexical_decision_task_DD_L3,2021.2.3,Win32,59.92329818,,,,,,,,,,,0.546,0,,,,,,,,,,,,,,,,,,,,,,,,-0.012036954,-0.424074158,0,0,0,,,,,,,CLOWN,C,z,m,./images/CLOWN.png,,,,,,,,,,,,,,,,,,,,,m,0,0.546,,,,,,,,0,129,129,106,1
,,,,,,,,,,,,,,,,,5fc30c35704ddd267cc9123f,34,2022-02-12_12h16.42.210,lexical_decision_task_DD_L3,2021.2.3,Win32,59.92329818,,,,,,,,,,,0.6212,1,,,,,,,,,,,,,,,,,,,,,,,,-0.012036954,-0.424074158,0,0,0,,,,,,,KITTEN,LB,m,m,./images/KITTENLB.png,,,,,,,,,,,,,,,,,,,,,m,1,0.6212,,,,,,,,0,130,130,45,1
