key_resp.keys,key_resp.rt,instr_done_touch.x,instr_done_touch.y,instr_done_touch.leftButton,instr_done_touch.midButton,instr_done_touch.rightButton,instruction_pages.thisRepN,instruction_pages.thisTrialN,instruction_pages.thisN,instruction_pages.thisIndex,instruction_pages.ran,pageN,phase,instruct_text,has_image,instruct_image,participant,age,date,expName,psychopyVersion,OS,frameRate,response.keys,response.corr,response.rt,touch_resp.x,touch_resp.y,touch_resp.leftButton,touch_resp.midButton,touch_resp.rightButton,touch_resp.time,touch_resp.clicked_name,rt,corr,practrials.thisRepN,practrials.thisTrialN,practrials.thisN,practrials.thisIndex,practrials.ran,TrialID,Target,corrAns,end_of_practice_trials_pages.thisRepN,end_of_practice_trials_pages.thisTrialN,end_of_practice_trials_pages.thisN,end_of_practice_trials_pages.thisIndex,end_of_practice_trials_pages.ran,key_resp_2.keys,key_resp_2.corr,key_resp_2.rt,targ_click.x,targ_click.y,targ_click.leftButton,targ_click.midButton,targ_click.rightButton,targ_click.time,targ_click.clicked_name,break_done_touch.x,break_done_touch.y,break_done_touch.leftButton,break_done_touch.midButton,break_done_touch.rightButton,break_done_keyboard.keys,maintrials.thisRepN,maintrials.thisTrialN,maintrials.thisN,maintrials.thisIndex,maintrials.ran,string,blur,study,lex,stim_path,break_done_keyboard.rt,mouse_2.x,mouse_2.y,mouse_2.leftButton,mouse_2.midButton,mouse_2.rightButton,mouse_2.clicked_name,slider.response,slider.rt,trials.thisRepN,trials.thisTrialN,trials.thisN,trials.thisIndex,trials.ran,instr_done_touch.clicked_name,test_instructions.thisRepN,test_instructions.thisTrialN,test_instructions.thisN,test_instructions.thisIndex,test_instructions.ran,key_resp_3.keys,key_resp_3.corr,key_resp_3.rt,test_click.x,test_click.y,test_click.leftButton,test_click.midButton,test_click.rightButton,test_click.time,test_click.clicked_name,test_phase.thisRepN,test_phase.thisTrialN,test_phase.thisN,test_phase.thisIndex,test_phase.ran
space,44.5935,0.64288199,-0.178472285,0,0,0,0,0,0,0,1,1,instructions,"INSTRUCTIONS
At the start of each trial, look at the plus sign  (+) in the center of the screen.  This tells you that a trial is about to begin and where to look. Second, the plus sign will disappear and a string of letters will appear. Your task is to determine if the string of letters is a word or not. If the item is a word press the M key (on keyboard)  or touch the word button (phone/tablet).  If the item is not a word,  press the  Z key (on keyboard)  or touch the nonword button (on phone/tablet). 
Press the space bar or touch  continue.",0,,5fe82ba8ad8fba6fea2d72a3,47,2022-02-12_14h46.55.612,lexical_decision_task_DD_L3,2021.2.3,Win32,59.96282305,,,,,,,,,,,,,,,,,,,,,,,,,,,,,,,,,,,,,,,,,,,,,,,,,,,,,,,,,,,,,,,,,,,,,,,,,,,,,,,,,,,,,,
space,28.4763,0.652604213,-0.167361131,0,0,0,0,1,1,1,1,2,instructions,"If your device has a keyboard, press the 'Z' key for nonwords and the 'M' key for words.





Press the space bar or touch the button below to continue.",0,keyboard-example.gif,5fe82ba8ad8fba6fea2d72a3,47,2022-02-12_14h46.55.612,lexical_decision_task_DD_L3,2021.2.3,Win32,59.96282305,,,,,,,,,,,,,,,,,,,,,,,,,,,,,,,,,,,,,,,,,,,,,,,,,,,,,,,,,,,,,,,,,,,,,,,,,,,,,,,,,,,,,,
space,6.4149,0.652604213,-0.167361131,0,0,0,0,2,2,2,1,3,instructions,"If you are using a touchscreen only device, use the buttons on the screen. Do not use the mouse.





Press the space bar or touch the button below to continue.",0,touchscreen-example.gif,5fe82ba8ad8fba6fea2d72a3,47,2022-02-12_14h46.55.612,lexical_decision_task_DD_L3,2021.2.3,Win32,59.96282305,,,,,,,,,,,,,,,,,,,,,,,,,,,,,,,,,,,,,,,,,,,,,,,,,,,,,,,,,,,,,,,,,,,,,,,,,,,,,,,,,,,,,,
space,18.6595,0.652604213,-0.167361131,0,0,0,0,3,3,3,1,4,instructions,"It is very important that you respond as quickly and accurately as possible, as each letter string will only be on the screen for two seconds. If you do not respond within this time, the message 'Too slow!' will be displayed and the experiment will progress to the next letter string. The first 20 trials will be practice trials and you will receive feedback on your answers. 

Press the space bar or touch the button below to start the practice trials.",0,,5fe82ba8ad8fba6fea2d72a3,47,2022-02-12_14h46.55.612,lexical_decision_task_DD_L3,2021.2.3,Win32,59.96282305,,,,,,,,,,,,,,,,,,,,,,,,,,,,,,,,,,,,,,,,,,,,,,,,,,,,,,,,,,,,,,,,,,,,,,,,,,,,,,,,,,,,,,
,,,,,,,,,,,,,,,,,5fe82ba8ad8fba6fea2d72a3,47,2022-02-12_14h46.55.612,lexical_decision_task_DD_L3,2021.2.3,Win32,59.96282305,m,0,2.2222,,,,,,,,2.2222,0,0,0,0,10,1,1001,INLADE,z,,,,,,,,,,,,,,,,,,,,,,,,,,,,,,,,,,,,,,,,,,,,,,,,,,,,,,,,,,,,,,,,,,
,,,,,,,,,,,,,,,,,5fe82ba8ad8fba6fea2d72a3,47,2022-02-12_14h46.55.612,lexical_decision_task_DD_L3,2021.2.3,Win32,59.96282305,m,1,1.4991,0.652604213,-0.167361131,1,0,0,0.7326,,1.4991,1,0,1,1,0,1,1001,UTOPIA,m,,,,,,,,,,,,,,,,,,,,,,,,,,,,,,,,,,,,,,,,,,,,,,,,,,,,,,,,,,,,,,,,,,
,,,,,,,,,,,,,,,,,5fe82ba8ad8fba6fea2d72a3,47,2022-02-12_14h46.55.612,lexical_decision_task_DD_L3,2021.2.3,Win32,59.96282305,z,1,0.835,,,,,,,,0.835,1,0,2,2,13,1,1001,ROUPET,z,,,,,,,,,,,,,,,,,,,,,,,,,,,,,,,,,,,,,,,,,,,,,,,,,,,,,,,,,,,,,,,,,,
,,,,,,,,,,,,,,,,,5fe82ba8ad8fba6fea2d72a3,47,2022-02-12_14h46.55.612,lexical_decision_task_DD_L3,2021.2.3,Win32,59.96282305,z,1,1.0334,,,,,,,,1.0334,1,0,3,3,12,1,1001,SPRINY,z,,,,,,,,,,,,,,,,,,,,,,,,,,,,,,,,,,,,,,,,,,,,,,,,,,,,,,,,,,,,,,,,,,
,,,,,,,,,,,,,,,,,5fe82ba8ad8fba6fea2d72a3,47,2022-02-12_14h46.55.612,lexical_decision_task_DD_L3,2021.2.3,Win32,59.96282305,m,1,0.7347,,,,,,,,0.7347,1,0,4,4,2,1,1001,ALMOND,m,,,,,,,,,,,,,,,,,,,,,,,,,,,,,,,,,,,,,,,,,,,,,,,,,,,,,,,,,,,,,,,,,,
,,,,,,,,,,,,,,,,,5fe82ba8ad8fba6fea2d72a3,47,2022-02-12_14h46.55.612,lexical_decision_task_DD_L3,2021.2.3,Win32,59.96282305,z,1,0.771,,,,,,,,0.771,1,0,5,5,11,1,1001,RASHET,z,,,,,,,,,,,,,,,,,,,,,,,,,,,,,,,,,,,,,,,,,,,,,,,,,,,,,,,,,,,,,,,,,,
,,,,,,,,,,,,,,,,,5fe82ba8ad8fba6fea2d72a3,47,2022-02-12_14h46.55.612,lexical_decision_task_DD_L3,2021.2.3,Win32,59.96282305,m,1,0.8861,,,,,,,,0.8861,1,0,6,6,4,1,1001,SQUEAK,m,,,,,,,,,,,,,,,,,,,,,,,,,,,,,,,,,,,,,,,,,,,,,,,,,,,,,,,,,,,,,,,,,,
,,,,,,,,,,,,,,,,,5fe82ba8ad8fba6fea2d72a3,47,2022-02-12_14h46.55.612,lexical_decision_task_DD_L3,2021.2.3,Win32,59.96282305,m,1,0.8493,,,,,,,,0.8493,1,0,7,7,6,1,1001,ZOMBIE,m,,,,,,,,,,,,,,,,,,,,,,,,,,,,,,,,,,,,,,,,,,,,,,,,,,,,,,,,,,,,,,,,,,
,,,,,,,,,,,,,,,,,5fe82ba8ad8fba6fea2d72a3,47,2022-02-12_14h46.55.612,lexical_decision_task_DD_L3,2021.2.3,Win32,59.96282305,z,1,0.7513,,,,,,,,0.7513,1,0,8,8,9,1,1001,FARINY,z,,,,,,,,,,,,,,,,,,,,,,,,,,,,,,,,,,,,,,,,,,,,,,,,,,,,,,,,,,,,,,,,,,
,,,,,,,,,,,,,,,,,5fe82ba8ad8fba6fea2d72a3,47,2022-02-12_14h46.55.612,lexical_decision_task_DD_L3,2021.2.3,Win32,59.96282305,z,1,0.7489,,,,,,,,0.7489,1,0,9,9,14,1,1001,THRALE,z,,,,,,,,,,,,,,,,,,,,,,,,,,,,,,,,,,,,,,,,,,,,,,,,,,,,,,,,,,,,,,,,,,
,,,,,,,,,,,,,,,,,5fe82ba8ad8fba6fea2d72a3,47,2022-02-12_14h46.55.612,lexical_decision_task_DD_L3,2021.2.3,Win32,59.96282305,z,1,0.6175,,,,,,,,0.6175,1,0,10,10,15,1,1001,WHAISE,z,,,,,,,,,,,,,,,,,,,,,,,,,,,,,,,,,,,,,,,,,,,,,,,,,,,,,,,,,,,,,,,,,,
,,,,,,,,,,,,,,,,,5fe82ba8ad8fba6fea2d72a3,47,2022-02-12_14h46.55.612,lexical_decision_task_DD_L3,2021.2.3,Win32,59.96282305,m,1,1.0631,,,,,,,,1.0631,1,0,11,11,7,1,1001,VOLUME,m,,,,,,,,,,,,,,,,,,,,,,,,,,,,,,,,,,,,,,,,,,,,,,,,,,,,,,,,,,,,,,,,,,
,,,,,,,,,,,,,,,,,5fe82ba8ad8fba6fea2d72a3,47,2022-02-12_14h46.55.612,lexical_decision_task_DD_L3,2021.2.3,Win32,59.96282305,m,1,0.8856,,,,,,,,0.8856,1,0,12,12,3,1,1001,MATRIX,m,,,,,,,,,,,,,,,,,,,,,,,,,,,,,,,,,,,,,,,,,,,,,,,,,,,,,,,,,,,,,,,,,,
,,,,,,,,,,,,,,,,,5fe82ba8ad8fba6fea2d72a3,47,2022-02-12_14h46.55.612,lexical_decision_task_DD_L3,2021.2.3,Win32,59.96282305,m,1,0.7256,,,,,,,,0.7256,1,0,13,13,1,1,1001,ADJUST,m,,,,,,,,,,,,,,,,,,,,,,,,,,,,,,,,,,,,,,,,,,,,,,,,,,,,,,,,,,,,,,,,,,
,,,,,,,,,,,,,,,,,5fe82ba8ad8fba6fea2d72a3,47,2022-02-12_14h46.55.612,lexical_decision_task_DD_L3,2021.2.3,Win32,59.96282305,m,1,0.7735,,,,,,,,0.7735,1,0,14,14,5,1,1001,OBTAIN,m,,,,,,,,,,,,,,,,,,,,,,,,,,,,,,,,,,,,,,,,,,,,,,,,,,,,,,,,,,,,,,,,,,
,,,,,,,,,,,,,,,,,5fe82ba8ad8fba6fea2d72a3,47,2022-02-12_14h46.55.612,lexical_decision_task_DD_L3,2021.2.3,Win32,59.96282305,z,1,0.8849,,,,,,,,0.8849,1,0,15,15,8,1,1001,ASLERT,z,,,,,,,,,,,,,,,,,,,,,,,,,,,,,,,,,,,,,,,,,,,,,,,,,,,,,,,,,,,,,,,,,,
space,15.5614,0.654687546,-0.168055618,0,0,0,,,,,,1,end_of_practice,"You have completed the practice trials. During the experimental trials, you will not receive feedback. 
Before you begin, please ensure that you are in a comfortable and quiet location and will not be disturbed for about 15 minutes, as we cannot use your data if you do not complete all the trials. 
 When you are ready to start the experimental trials, please press space or touch the button below.",,,5fe82ba8ad8fba6fea2d72a3,47,2022-02-12_14h46.55.612,lexical_decision_task_DD_L3,2021.2.3,Win32,59.96282305,,,,,,,,,,,,,,,,,,,,,0,0,0,0,1,,,,,,,,,,,,,,,,,,,,,,,,,,,,,,,,,,,,,,,,,,,,,,,,,,,,,,,,,,,,,
,,,,,,,,,,,,,,,,,5fe82ba8ad8fba6fea2d72a3,47,2022-02-12_14h46.55.612,lexical_decision_task_DD_L3,2021.2.3,Win32,59.96282305,,,,,,,,,,,1.5145,1,,,,,,,,,,,,,,z,1,1.5145,,,,,,,,0.654687546,-0.168055618,0,0,0,,0,0,0,113,1,LINEW,LB,old,z,./images/LINEWLB.png,,,,,,,,,,,,,,,,,,,,,,,,,,,,,,,,,,,
,,,,,,,,,,,,,,,,,5fe82ba8ad8fba6fea2d72a3,47,2022-02-12_14h46.55.612,lexical_decision_task_DD_L3,2021.2.3,Win32,59.96282305,,,,,,,,,,,1.0121,0,,,,,,,,,,,,,,m,0,1.0121,,,,,,,,0.654687546,-0.168055618,0,0,0,,0,1,1,162,1,LEICH,C,old,z,./images/LEICH.png,,,,,,,,,,,,,,,,,,,,,,,,,,,,,,,,,,,
,,,,,,,,,,,,,,,,,5fe82ba8ad8fba6fea2d72a3,47,2022-02-12_14h46.55.612,lexical_decision_task_DD_L3,2021.2.3,Win32,59.96282305,,,,,,,,,,,1.1691,1,,,,,,,,,,,,,,z,1,1.1691,,,,,,,,0.654687546,-0.168055618,0,0,0,,0,2,2,147,1,ZOLES,C,old,z,./images/ZOLES.png,,,,,,,,,,,,,,,,,,,,,,,,,,,,,,,,,,,
,,,,,,,,,,,,,,,,,5fe82ba8ad8fba6fea2d72a3,47,2022-02-12_14h46.55.612,lexical_decision_task_DD_L3,2021.2.3,Win32,59.96282305,,,,,,,,,,,1.7642,0,,,,,,,,,,,,,,m,0,1.7642,,,,,,,,0.654687546,-0.168055618,0,0,0,,0,3,3,151,1,TINKY,HB,old,z,./images/TINKYHB.png,,,,,,,,,,,,,,,,,,,,,,,,,,,,,,,,,,,
,,,,,,,,,,,,,,,,,5fe82ba8ad8fba6fea2d72a3,47,2022-02-12_14h46.55.612,lexical_decision_task_DD_L3,2021.2.3,Win32,59.96282305,,,,,,,,,,,1.035,1,,,,,,,,,,,,,,m,1,1.035,,,,,,,,0.654687546,-0.168055618,0,0,0,,0,4,4,53,1,CARPET,HB,old,m,./images/CARPETHB.png,,,,,,,,,,,,,,,,,,,,,,,,,,,,,,,,,,,
,,,,,,,,,,,,,,,,,5fe82ba8ad8fba6fea2d72a3,47,2022-02-12_14h46.55.612,lexical_decision_task_DD_L3,2021.2.3,Win32,59.96282305,,,,,,,,,,,0.7808,1,,,,,,,,,,,,,,m,1,0.7808,,,,,,,,0.654687546,-0.168055618,0,0,0,,0,5,5,27,1,ATTIC,LB,old,m,./images/ATTICLB.png,,,,,,,,,,,,,,,,,,,,,,,,,,,,,,,,,,,
,,,,,,,,,,,,,,,,,5fe82ba8ad8fba6fea2d72a3,47,2022-02-12_14h46.55.612,lexical_decision_task_DD_L3,2021.2.3,Win32,59.96282305,,,,,,,,,,,0.9688,1,,,,,,,,,,,,,,m,1,0.9688,,,,,,,,0.654687546,-0.168055618,0,0,0,,0,6,6,20,1,CRADLE,HB,old,m,./images/CRADLEHB.png,,,,,,,,,,,,,,,,,,,,,,,,,,,,,,,,,,,
,,,,,,,,,,,,,,,,,5fe82ba8ad8fba6fea2d72a3,47,2022-02-12_14h46.55.612,lexical_decision_task_DD_L3,2021.2.3,Win32,59.96282305,,,,,,,,,,,1.089,1,,,,,,,,,,,,,,m,1,1.089,,,,,,,,0.654687546,-0.168055618,0,0,0,,0,7,7,76,1,INFANT,C,old,m,./images/INFANT.png,,,,,,,,,,,,,,,,,,,,,,,,,,,,,,,,,,,
,,,,,,,,,,,,,,,,,5fe82ba8ad8fba6fea2d72a3,47,2022-02-12_14h46.55.612,lexical_decision_task_DD_L3,2021.2.3,Win32,59.96282305,,,,,,,,,,,0.7137,1,,,,,,,,,,,,,,m,1,0.7137,,,,,,,,0.654687546,-0.168055618,0,0,0,,0,8,8,4,1,MUSCLE,C,old,m,./images/MUSCLE.png,,,,,,,,,,,,,,,,,,,,,,,,,,,,,,,,,,,
,,,,,,,,,,,,,,,,,5fe82ba8ad8fba6fea2d72a3,47,2022-02-12_14h46.55.612,lexical_decision_task_DD_L3,2021.2.3,Win32,59.96282305,,,,,,,,,,,0.9915,1,,,,,,,,,,,,,,z,1,0.9915,,,,,,,,0.654687546,-0.168055618,0,0,0,,0,9,9,117,1,STEEG,C,old,z,./images/STEEG.png,,,,,,,,,,,,,,,,,,,,,,,,,,,,,,,,,,,
,,,,,,,,,,,,,,,,,5fe82ba8ad8fba6fea2d72a3,47,2022-02-12_14h46.55.612,lexical_decision_task_DD_L3,2021.2.3,Win32,59.96282305,,,,,,,,,,,1.802,1,,,,,,,,,,,,,,z,1,1.802,,,,,,,,0.654687546,-0.168055618,0,0,0,,0,10,10,130,1,CRILL,HB,old,z,./images/CRILLHB.png,,,,,,,,,,,,,,,,,,,,,,,,,,,,,,,,,,,
,,,,,,,,,,,,,,,,,5fe82ba8ad8fba6fea2d72a3,47,2022-02-12_14h46.55.612,lexical_decision_task_DD_L3,2021.2.3,Win32,59.96282305,,,,,,,,,,,0.9642,1,,,,,,,,,,,,,,z,1,0.9642,,,,,,,,0.654687546,-0.168055618,0,0,0,,0,11,11,143,1,MONGS,LB,old,z,./images/MONGSLB.png,,,,,,,,,,,,,,,,,,,,,,,,,,,,,,,,,,,
,,,,,,,,,,,,,,,,,5fe82ba8ad8fba6fea2d72a3,47,2022-02-12_14h46.55.612,lexical_decision_task_DD_L3,2021.2.3,Win32,59.96282305,,,,,,,,,,,1.4322,1,,,,,,,,,,,,,,z,1,1.4322,,,,,,,,0.654687546,-0.168055618,0,0,0,,0,12,12,142,1,PLASK,HB,old,z,./images/PLASKHB.png,,,,,,,,,,,,,,,,,,,,,,,,,,,,,,,,,,,
,,,,,,,,,,,,,,,,,5fe82ba8ad8fba6fea2d72a3,47,2022-02-12_14h46.55.612,lexical_decision_task_DD_L3,2021.2.3,Win32,59.96282305,,,,,,,,,,,0.6993,1,,,,,,,,,,,,,,m,1,0.6993,,,,,,,,0.654687546,-0.168055618,0,0,0,,0,13,13,37,1,BIRTH,C,old,m,./images/BIRTH.png,,,,,,,,,,,,,,,,,,,,,,,,,,,,,,,,,,,
,,,,,,,,,,,,,,,,,5fe82ba8ad8fba6fea2d72a3,47,2022-02-12_14h46.55.612,lexical_decision_task_DD_L3,2021.2.3,Win32,59.96282305,,,,,,,,,,,1.4245,1,,,,,,,,,,,,,,z,1,1.4245,,,,,,,,0.654687546,-0.168055618,0,0,0,,0,14,14,145,1,LAMEL,HB,old,z,./images/LAMELHB.png,,,,,,,,,,,,,,,,,,,,,,,,,,,,,,,,,,,
,,,,,,,,,,,,,,,,,5fe82ba8ad8fba6fea2d72a3,47,2022-02-12_14h46.55.612,lexical_decision_task_DD_L3,2021.2.3,Win32,59.96282305,,,,,,,,,,,0.8461,1,,,,,,,,,,,,,,z,1,0.8461,,,,,,,,0.654687546,-0.168055618,0,0,0,,0,15,15,104,1,GITTY,LB,old,z,./images/GITTYLB.png,,,,,,,,,,,,,,,,,,,,,,,,,,,,,,,,,,,
,,,,,,,,,,,,,,,,,5fe82ba8ad8fba6fea2d72a3,47,2022-02-12_14h46.55.612,lexical_decision_task_DD_L3,2021.2.3,Win32,59.96282305,,,,,,,,,,,1.2185,1,,,,,,,,,,,,,,m,1,1.2185,,,,,,,,0.654687546,-0.168055618,0,0,0,,0,16,16,32,1,BARREL,HB,old,m,./images/BARRELHB.png,,,,,,,,,,,,,,,,,,,,,,,,,,,,,,,,,,,
,,,,,,,,,,,,,,,,,5fe82ba8ad8fba6fea2d72a3,47,2022-02-12_14h46.55.612,lexical_decision_task_DD_L3,2021.2.3,Win32,59.96282305,,,,,,,,,,,1.1226,1,,,,,,,,,,,,,,m,1,1.1226,,,,,,,,0.654687546,-0.168055618,0,0,0,,0,17,17,31,1,QUILL,C,old,m,./images/QUILL.png,,,,,,,,,,,,,,,,,,,,,,,,,,,,,,,,,,,
,,,,,,,,,,,,,,,,,5fe82ba8ad8fba6fea2d72a3,47,2022-02-12_14h46.55.612,lexical_decision_task_DD_L3,2021.2.3,Win32,59.96282305,,,,,,,,,,,0.9525,1,,,,,,,,,,,,,,z,1,0.9525,,,,,,,,0.654687546,-0.168055618,0,0,0,,0,18,18,144,1,NAIRY,C,old,z,./images/NAIRY.png,,,,,,,,,,,,,,,,,,,,,,,,,,,,,,,,,,,
,,,,,,,,,,,,,,,,,5fe82ba8ad8fba6fea2d72a3,47,2022-02-12_14h46.55.612,lexical_decision_task_DD_L3,2021.2.3,Win32,59.96282305,,,,,,,,,,,0.9943,0,,,,,,,,,,,,,,m,0,0.9943,,,,,,,,0.654687546,-0.168055618,0,0,0,,0,19,19,128,1,GRIFT,LB,old,z,./images/GRIFTLB.png,,,,,,,,,,,,,,,,,,,,,,,,,,,,,,,,,,,
,,,,,,,,,,,,,,,,,5fe82ba8ad8fba6fea2d72a3,47,2022-02-12_14h46.55.612,lexical_decision_task_DD_L3,2021.2.3,Win32,59.96282305,,,,,,,,,,,1.0763,1,,,,,,,,,,,,,,z,1,1.0763,,,,,,,,0.654687546,-0.168055618,0,0,0,,0,20,20,84,1,HAXES,C,old,z,./images/HAXES.png,,,,,,,,,,,,,,,,,,,,,,,,,,,,,,,,,,,
,,,,,,,,,,,,,,,,,5fe82ba8ad8fba6fea2d72a3,47,2022-02-12_14h46.55.612,lexical_decision_task_DD_L3,2021.2.3,Win32,59.96282305,,,,,,,,,,,0.7281,1,,,,,,,,,,,,,,m,1,0.7281,,,,,,,,0.654687546,-0.168055618,0,0,0,,0,21,21,73,1,SNACK,C,old,m,./images/SNACK.png,,,,,,,,,,,,,,,,,,,,,,,,,,,,,,,,,,,
,,,,,,,,,,,,,,,,,5fe82ba8ad8fba6fea2d72a3,47,2022-02-12_14h46.55.612,lexical_decision_task_DD_L3,2021.2.3,Win32,59.96282305,,,,,,,,,,,1.1987,0,,,,,,,,,,,,,,m,0,1.1987,,,,,,,,0.654687546,-0.168055618,0,0,0,,0,22,22,160,1,VEETS,HB,old,z,./images/VEETSHB.png,,,,,,,,,,,,,,,,,,,,,,,,,,,,,,,,,,,
,,,,,,,,,,,,,,,,,5fe82ba8ad8fba6fea2d72a3,47,2022-02-12_14h46.55.612,lexical_decision_task_DD_L3,2021.2.3,Win32,59.96282305,,,,,,,,,,,2.0186,1,,,,,,,,,,,,,,z,1,2.0186,,,,,,,,0.654687546,-0.168055618,0,0,0,,0,23,23,88,1,GLUSH,HB,old,z,./images/GLUSHHB.png,,,,,,,,,,,,,,,,,,,,,,,,,,,,,,,,,,,
,,,,,,,,,,,,,,,,,5fe82ba8ad8fba6fea2d72a3,47,2022-02-12_14h46.55.612,lexical_decision_task_DD_L3,2021.2.3,Win32,59.96282305,,,,,,,,,,,0.6936,1,,,,,,,,,,,,,,m,1,0.6936,,,,,,,,0.654687546,-0.168055618,0,0,0,,0,24,24,82,1,SUNSET,C,old,m,./images/SUNSET.png,,,,,,,,,,,,,,,,,,,,,,,,,,,,,,,,,,,
,,,,,,,,,,,,,,,,,5fe82ba8ad8fba6fea2d72a3,47,2022-02-12_14h46.55.612,lexical_decision_task_DD_L3,2021.2.3,Win32,59.96282305,,,,,,,,,,,1.1812,1,,,,,,,,,,,,,,m,1,1.1812,,,,,,,,0.654687546,-0.168055618,0,0,0,,0,25,25,29,1,CRUMB,HB,old,m,./images/CRUMBHB.png,,,,,,,,,,,,,,,,,,,,,,,,,,,,,,,,,,,
,,,,,,,,,,,,,,,,,5fe82ba8ad8fba6fea2d72a3,47,2022-02-12_14h46.55.612,lexical_decision_task_DD_L3,2021.2.3,Win32,59.96282305,,,,,,,,,,,1.0863,1,,,,,,,,,,,,,,m,1,1.0863,,,,,,,,0.654687546,-0.168055618,0,0,0,,0,26,26,41,1,STRING,HB,old,m,./images/STRINGHB.png,,,,,,,,,,,,,,,,,,,,,,,,,,,,,,,,,,,
,,,,,,,,,,,,,,,,,5fe82ba8ad8fba6fea2d72a3,47,2022-02-12_14h46.55.612,lexical_decision_task_DD_L3,2021.2.3,Win32,59.96282305,,,,,,,,,,,0.7514,1,,,,,,,,,,,,,,z,1,0.7514,,,,,,,,0.654687546,-0.168055618,0,0,0,,0,27,27,149,1,VEASE,LB,old,z,./images/VEASELB.png,,,,,,,,,,,,,,,,,,,,,,,,,,,,,,,,,,,
,,,,,,,,,,,,,,,,,5fe82ba8ad8fba6fea2d72a3,47,2022-02-12_14h46.55.612,lexical_decision_task_DD_L3,2021.2.3,Win32,59.96282305,,,,,,,,,,,1.7991,1,,,,,,,,,,,,,,z,1,1.7991,,,,,,,,0.654687546,-0.168055618,0,0,0,,0,28,28,100,1,DRIBS,HB,old,z,./images/DRIBSHB.png,,,,,,,,,,,,,,,,,,,,,,,,,,,,,,,,,,,
,,,,,,,,,,,,,,,,,5fe82ba8ad8fba6fea2d72a3,47,2022-02-12_14h46.55.612,lexical_decision_task_DD_L3,2021.2.3,Win32,59.96282305,,,,,,,,,,,0.5843,1,,,,,,,,,,,,,,m,1,0.5843,,,,,,,,0.654687546,-0.168055618,0,0,0,,0,29,29,42,1,FOLDER,LB,old,m,./images/FOLDERLB.png,,,,,,,,,,,,,,,,,,,,,,,,,,,,,,,,,,,
,,,,,,,,,,,,,,,,,5fe82ba8ad8fba6fea2d72a3,47,2022-02-12_14h46.55.612,lexical_decision_task_DD_L3,2021.2.3,Win32,59.96282305,,,,,,,,,,,0.7907,1,,,,,,,,,,,,,,z,1,0.7907,,,,,,,,0.654687546,-0.168055618,0,0,0,,0,30,30,131,1,NACES,LB,old,z,./images/NACESLB.png,,,,,,,,,,,,,,,,,,,,,,,,,,,,,,,,,,,
,,,,,,,,,,,,,,,,,5fe82ba8ad8fba6fea2d72a3,47,2022-02-12_14h46.55.612,lexical_decision_task_DD_L3,2021.2.3,Win32,59.96282305,,,,,,,,,,,1.7855,1,,,,,,,,,,,,,,z,1,1.7855,,,,,,,,0.654687546,-0.168055618,0,0,0,,0,31,31,133,1,POWDY,HB,old,z,./images/POWDYHB.png,,,,,,,,,,,,,,,,,,,,,,,,,,,,,,,,,,,
,,,,,,,,,,,,,,,,,5fe82ba8ad8fba6fea2d72a3,47,2022-02-12_14h46.55.612,lexical_decision_task_DD_L3,2021.2.3,Win32,59.96282305,,,,,,,,,,,0.6123,1,,,,,,,,,,,,,,m,1,0.6123,,,,,,,,0.654687546,-0.168055618,0,0,0,,0,32,32,13,1,MOTOR,C,old,m,./images/MOTOR.png,,,,,,,,,,,,,,,,,,,,,,,,,,,,,,,,,,,
,,,,,,,,,,,,,,,,,5fe82ba8ad8fba6fea2d72a3,47,2022-02-12_14h46.55.612,lexical_decision_task_DD_L3,2021.2.3,Win32,59.96282305,,,,,,,,,,,1.5979,1,,,,,,,,,,,,,,z,1,1.5979,,,,,,,,0.654687546,-0.168055618,0,0,0,,0,33,33,163,1,GAMBA,HB,old,z,./images/GAMBAHB.png,,,,,,,,,,,,,,,,,,,,,,,,,,,,,,,,,,,
,,,,,,,,,,,,,,,,,5fe82ba8ad8fba6fea2d72a3,47,2022-02-12_14h46.55.612,lexical_decision_task_DD_L3,2021.2.3,Win32,59.96282305,,,,,,,,,,,0.6002,1,,,,,,,,,,,,,,m,1,0.6002,,,,,,,,0.654687546,-0.168055618,0,0,0,,0,34,34,7,1,PAINT,C,old,m,./images/PAINT.png,,,,,,,,,,,,,,,,,,,,,,,,,,,,,,,,,,,
,,,,,,,,,,,,,,,,,5fe82ba8ad8fba6fea2d72a3,47,2022-02-12_14h46.55.612,lexical_decision_task_DD_L3,2021.2.3,Win32,59.96282305,,,,,,,,,,,0.7821,1,,,,,,,,,,,,,,z,1,0.7821,,,,,,,,0.654687546,-0.168055618,0,0,0,,0,35,35,135,1,JOODY,C,old,z,./images/JOODY.png,,,,,,,,,,,,,,,,,,,,,,,,,,,,,,,,,,,
,,,,,,,,,,,,,,,,,5fe82ba8ad8fba6fea2d72a3,47,2022-02-12_14h46.55.612,lexical_decision_task_DD_L3,2021.2.3,Win32,59.96282305,,,,,,,,,,,0.6305,1,,,,,,,,,,,,,,m,1,0.6305,,,,,,,,0.654687546,-0.168055618,0,0,0,,0,36,36,75,1,GRAIN,LB,old,m,./images/GRAINLB.png,,,,,,,,,,,,,,,,,,,,,,,,,,,,,,,,,,,
,,,,,,,,,,,,,,,,,5fe82ba8ad8fba6fea2d72a3,47,2022-02-12_14h46.55.612,lexical_decision_task_DD_L3,2021.2.3,Win32,59.96282305,,,,,,,,,,,0.6633,1,,,,,,,,,,,,,,m,1,0.6633,,,,,,,,0.654687546,-0.168055618,0,0,0,,0,37,37,30,1,STORM,LB,old,m,./images/STORMLB.png,,,,,,,,,,,,,,,,,,,,,,,,,,,,,,,,,,,
,,,,,,,,,,,,,,,,,5fe82ba8ad8fba6fea2d72a3,47,2022-02-12_14h46.55.612,lexical_decision_task_DD_L3,2021.2.3,Win32,59.96282305,,,,,,,,,,,1.5616,1,,,,,,,,,,,,,,m,1,1.5616,,,,,,,,0.654687546,-0.168055618,0,0,0,,0,38,38,80,1,WEASEL,HB,old,m,./images/WEASELHB.png,,,,,,,,,,,,,,,,,,,,,,,,,,,,,,,,,,,
,,,,,,,,,,,,,,,,,5fe82ba8ad8fba6fea2d72a3,47,2022-02-12_14h46.55.612,lexical_decision_task_DD_L3,2021.2.3,Win32,59.96282305,,,,,,,,,,,0.6534,1,,,,,,,,,,,,,,m,1,0.6534,,,,,,,,0.654687546,-0.168055618,0,0,0,,0,39,39,21,1,KIDNEY,LB,old,m,./images/KIDNEYLB.png,,,,,,,,,,,,,,,,,,,,,,,,,,,,,,,,,,,
,,,,,,,,,,,,,,,,,5fe82ba8ad8fba6fea2d72a3,47,2022-02-12_14h46.55.612,lexical_decision_task_DD_L3,2021.2.3,Win32,59.96282305,,,,,,,,,,,1.8033,1,,,,,,,,,,,,,,z,1,1.8033,,,,,,,,0.654687546,-0.168055618,0,0,0,,0,40,40,109,1,BURGE,HB,old,z,./images/BURGEHB.png,,,,,,,,,,,,,,,,,,,,,,,,,,,,,,,,,,,
,,,,,,,,,,,,,,,,,5fe82ba8ad8fba6fea2d72a3,47,2022-02-12_14h46.55.612,lexical_decision_task_DD_L3,2021.2.3,Win32,59.96282305,,,,,,,,,,,0.6979,1,,,,,,,,,,,,,,m,1,0.6979,,,,,,,,0.654687546,-0.168055618,0,0,0,space,0,41,41,81,1,POODLE,LB,old,m,./images/POODLELB.png,18.1601,,,,,,,,,,,,,,,,,,,,,,,,,,,,,,,,,,
,,,,,,,,,,,,,,,,,5fe82ba8ad8fba6fea2d72a3,47,2022-02-12_14h46.55.612,lexical_decision_task_DD_L3,2021.2.3,Win32,59.96282305,,,,,,,,,,,1.848,1,,,,,,,,,,,,,,z,1,1.848,,,,,,,,0.654687546,-0.168055618,0,0,0,,0,42,42,106,1,CLUMS,HB,old,z,./images/CLUMSHB.png,,,,,,,,,,,,,,,,,,,,,,,,,,,,,,,,,,,
,,,,,,,,,,,,,,,,,5fe82ba8ad8fba6fea2d72a3,47,2022-02-12_14h46.55.612,lexical_decision_task_DD_L3,2021.2.3,Win32,59.96282305,,,,,,,,,,,1.083,1,,,,,,,,,,,,,,z,1,1.083,,,,,,,,0.654687546,-0.168055618,0,0,0,,0,43,43,125,1,MOOKY,LB,old,z,./images/MOOKYLB.png,,,,,,,,,,,,,,,,,,,,,,,,,,,,,,,,,,,
,,,,,,,,,,,,,,,,,5fe82ba8ad8fba6fea2d72a3,47,2022-02-12_14h46.55.612,lexical_decision_task_DD_L3,2021.2.3,Win32,59.96282305,,,,,,,,,,,0.7457,1,,,,,,,,,,,,,,z,1,0.7457,,,,,,,,0.654687546,-0.168055618,0,0,0,,0,44,44,108,1,GRUET,C,old,z,./images/GRUET.png,,,,,,,,,,,,,,,,,,,,,,,,,,,,,,,,,,,
,,,,,,,,,,,,,,,,,5fe82ba8ad8fba6fea2d72a3,47,2022-02-12_14h46.55.612,lexical_decision_task_DD_L3,2021.2.3,Win32,59.96282305,,,,,,,,,,,0.7912,1,,,,,,,,,,,,,,z,1,0.7912,,,,,,,,0.654687546,-0.168055618,0,0,0,,0,45,45,105,1,MOKER,C,old,z,./images/MOKER.png,,,,,,,,,,,,,,,,,,,,,,,,,,,,,,,,,,,
,,,,,,,,,,,,,,,,,5fe82ba8ad8fba6fea2d72a3,47,2022-02-12_14h46.55.612,lexical_decision_task_DD_L3,2021.2.3,Win32,59.96282305,,,,,,,,,,,0.6933,1,,,,,,,,,,,,,,z,1,0.6933,,,,,,,,0.654687546,-0.168055618,0,0,0,,0,46,46,101,1,GLEET,LB,old,z,./images/GLEETLB.png,,,,,,,,,,,,,,,,,,,,,,,,,,,,,,,,,,,
,,,,,,,,,,,,,,,,,5fe82ba8ad8fba6fea2d72a3,47,2022-02-12_14h46.55.612,lexical_decision_task_DD_L3,2021.2.3,Win32,59.96282305,,,,,,,,,,,0.6443,1,,,,,,,,,,,,,,m,1,0.6443,,,,,,,,0.654687546,-0.168055618,0,0,0,,0,47,47,67,1,SAILOR,C,old,m,./images/SAILOR.png,,,,,,,,,,,,,,,,,,,,,,,,,,,,,,,,,,,
,,,,,,,,,,,,,,,,,5fe82ba8ad8fba6fea2d72a3,47,2022-02-12_14h46.55.612,lexical_decision_task_DD_L3,2021.2.3,Win32,59.96282305,,,,,,,,,,,1.5934,1,,,,,,,,,,,,,,z,1,1.5934,,,,,,,,0.654687546,-0.168055618,0,0,0,,0,48,48,118,1,BAVEL,HB,old,z,./images/BAVELHB.png,,,,,,,,,,,,,,,,,,,,,,,,,,,,,,,,,,,
,,,,,,,,,,,,,,,,,5fe82ba8ad8fba6fea2d72a3,47,2022-02-12_14h46.55.612,lexical_decision_task_DD_L3,2021.2.3,Win32,59.96282305,,,,,,,,,,,1.1078,1,,,,,,,,,,,,,,m,1,1.1078,,,,,,,,0.654687546,-0.168055618,0,0,0,,0,49,49,47,1,BERRY,HB,old,m,./images/BERRYHB.png,,,,,,,,,,,,,,,,,,,,,,,,,,,,,,,,,,,
,,,,,,,,,,,,,,,,,5fe82ba8ad8fba6fea2d72a3,47,2022-02-12_14h46.55.612,lexical_decision_task_DD_L3,2021.2.3,Win32,59.96282305,,,,,,,,,,,1.4101,1,,,,,,,,,,,,,,z,1,1.4101,,,,,,,,0.654687546,-0.168055618,0,0,0,,0,50,50,139,1,BLEAR,HB,old,z,./images/BLEARHB.png,,,,,,,,,,,,,,,,,,,,,,,,,,,,,,,,,,,
,,,,,,,,,,,,,,,,,5fe82ba8ad8fba6fea2d72a3,47,2022-02-12_14h46.55.612,lexical_decision_task_DD_L3,2021.2.3,Win32,59.96282305,,,,,,,,,,,0.6455,1,,,,,,,,,,,,,,z,1,0.6455,,,,,,,,0.654687546,-0.168055618,0,0,0,,0,51,51,107,1,FASKS,LB,old,z,./images/FASKSLB.png,,,,,,,,,,,,,,,,,,,,,,,,,,,,,,,,,,,
,,,,,,,,,,,,,,,,,5fe82ba8ad8fba6fea2d72a3,47,2022-02-12_14h46.55.612,lexical_decision_task_DD_L3,2021.2.3,Win32,59.96282305,,,,,,,,,,,1.1594,1,,,,,,,,,,,,,,m,1,1.1594,,,,,,,,0.654687546,-0.168055618,0,0,0,,0,52,52,8,1,TULIP,HB,old,m,./images/TULIPHB.png,,,,,,,,,,,,,,,,,,,,,,,,,,,,,,,,,,,
,,,,,,,,,,,,,,,,,5fe82ba8ad8fba6fea2d72a3,47,2022-02-12_14h46.55.612,lexical_decision_task_DD_L3,2021.2.3,Win32,59.96282305,,,,,,,,,,,0.6329,1,,,,,,,,,,,,,,m,1,0.6329,,,,,,,,0.654687546,-0.168055618,0,0,0,,0,53,53,19,1,DOUGH,C,old,m,./images/DOUGH.png,,,,,,,,,,,,,,,,,,,,,,,,,,,,,,,,,,,
,,,,,,,,,,,,,,,,,5fe82ba8ad8fba6fea2d72a3,47,2022-02-12_14h46.55.612,lexical_decision_task_DD_L3,2021.2.3,Win32,59.96282305,,,,,,,,,,,1.4932,1,,,,,,,,,,,,,,m,1,1.4932,,,,,,,,0.654687546,-0.168055618,0,0,0,,0,54,54,16,1,PENCE,C,old,m,./images/PENCE.png,,,,,,,,,,,,,,,,,,,,,,,,,,,,,,,,,,,
,,,,,,,,,,,,,,,,,5fe82ba8ad8fba6fea2d72a3,47,2022-02-12_14h46.55.612,lexical_decision_task_DD_L3,2021.2.3,Win32,59.96282305,,,,,,,,,,,1.8297,1,,,,,,,,,,,,,,z,1,1.8297,,,,,,,,0.654687546,-0.168055618,0,0,0,,0,55,55,91,1,SHENS,HB,old,z,./images/SHENSHB.png,,,,,,,,,,,,,,,,,,,,,,,,,,,,,,,,,,,
,,,,,,,,,,,,,,,,,5fe82ba8ad8fba6fea2d72a3,47,2022-02-12_14h46.55.612,lexical_decision_task_DD_L3,2021.2.3,Win32,59.96282305,,,,,,,,,,,1.1277,1,,,,,,,,,,,,,,m,1,1.1277,,,,,,,,0.654687546,-0.168055618,0,0,0,,0,56,56,23,1,WALRUS,HB,old,m,./images/WALRUSHB.png,,,,,,,,,,,,,,,,,,,,,,,,,,,,,,,,,,,
,,,,,,,,,,,,,,,,,5fe82ba8ad8fba6fea2d72a3,47,2022-02-12_14h46.55.612,lexical_decision_task_DD_L3,2021.2.3,Win32,59.96282305,,,,,,,,,,,1.4722,0,,,,,,,,,,,,,,m,0,1.4722,,,,,,,,0.654687546,-0.168055618,0,0,0,,0,57,57,136,1,WERVE,HB,old,z,./images/WERVEHB.png,,,,,,,,,,,,,,,,,,,,,,,,,,,,,,,,,,,
,,,,,,,,,,,,,,,,,5fe82ba8ad8fba6fea2d72a3,47,2022-02-12_14h46.55.612,lexical_decision_task_DD_L3,2021.2.3,Win32,59.96282305,,,,,,,,,,,0.666,1,,,,,,,,,,,,,,z,1,0.666,,,,,,,,0.654687546,-0.168055618,0,0,0,,0,58,58,111,1,HOSSE,C,old,z,./images/HOSSE.png,,,,,,,,,,,,,,,,,,,,,,,,,,,,,,,,,,,
,,,,,,,,,,,,,,,,,5fe82ba8ad8fba6fea2d72a3,47,2022-02-12_14h46.55.612,lexical_decision_task_DD_L3,2021.2.3,Win32,59.96282305,,,,,,,,,,,1.3507,1,,,,,,,,,,,,,,m,1,1.3507,,,,,,,,0.654687546,-0.168055618,0,0,0,,0,59,59,65,1,FARMER,HB,old,m,./images/FARMERHB.png,,,,,,,,,,,,,,,,,,,,,,,,,,,,,,,,,,,
,,,,,,,,,,,,,,,,,5fe82ba8ad8fba6fea2d72a3,47,2022-02-12_14h46.55.612,lexical_decision_task_DD_L3,2021.2.3,Win32,59.96282305,,,,,,,,,,,0.7181,1,,,,,,,,,,,,,,m,1,0.7181,,,,,,,,0.654687546,-0.168055618,0,0,0,,0,60,60,48,1,SPORT,LB,old,m,./images/SPORTLB.png,,,,,,,,,,,,,,,,,,,,,,,,,,,,,,,,,,,
,,,,,,,,,,,,,,,,,5fe82ba8ad8fba6fea2d72a3,47,2022-02-12_14h46.55.612,lexical_decision_task_DD_L3,2021.2.3,Win32,59.96282305,,,,,,,,,,,0.5879,1,,,,,,,,,,,,,,m,1,0.5879,,,,,,,,0.654687546,-0.168055618,0,0,0,,0,61,61,79,1,CRUST,C,old,m,./images/CRUST.png,,,,,,,,,,,,,,,,,,,,,,,,,,,,,,,,,,,
,,,,,,,,,,,,,,,,,5fe82ba8ad8fba6fea2d72a3,47,2022-02-12_14h46.55.612,lexical_decision_task_DD_L3,2021.2.3,Win32,59.96282305,,,,,,,,,,,1.3591,1,,,,,,,,,,,,,,z,1,1.3591,,,,,,,,0.654687546,-0.168055618,0,0,0,,0,62,62,124,1,TUNCH,HB,old,z,./images/TUNCHHB.png,,,,,,,,,,,,,,,,,,,,,,,,,,,,,,,,,,,
,,,,,,,,,,,,,,,,,5fe82ba8ad8fba6fea2d72a3,47,2022-02-12_14h46.55.612,lexical_decision_task_DD_L3,2021.2.3,Win32,59.96282305,,,,,,,,,,,0.6121,1,,,,,,,,,,,,,,m,1,0.6121,,,,,,,,0.654687546,-0.168055618,0,0,0,,0,63,63,52,1,BANNER,C,old,m,./images/BANNER.png,,,,,,,,,,,,,,,,,,,,,,,,,,,,,,,,,,,
,,,,,,,,,,,,,,,,,5fe82ba8ad8fba6fea2d72a3,47,2022-02-12_14h46.55.612,lexical_decision_task_DD_L3,2021.2.3,Win32,59.96282305,,,,,,,,,,,1.5858,1,,,,,,,,,,,,,,z,1,1.5858,,,,,,,,0.654687546,-0.168055618,0,0,0,,0,64,64,115,1,MAWNS,HB,old,z,./images/MAWNSHB.png,,,,,,,,,,,,,,,,,,,,,,,,,,,,,,,,,,,
,,,,,,,,,,,,,,,,,5fe82ba8ad8fba6fea2d72a3,47,2022-02-12_14h46.55.612,lexical_decision_task_DD_L3,2021.2.3,Win32,59.96282305,,,,,,,,,,,0.7422,1,,,,,,,,,,,,,,z,1,0.7422,,,,,,,,0.654687546,-0.168055618,0,0,0,,0,65,65,138,1,PLICE,C,old,z,./images/PLICE.png,,,,,,,,,,,,,,,,,,,,,,,,,,,,,,,,,,,
,,,,,,,,,,,,,,,,,5fe82ba8ad8fba6fea2d72a3,47,2022-02-12_14h46.55.612,lexical_decision_task_DD_L3,2021.2.3,Win32,59.96282305,,,,,,,,,,,0.7113,1,,,,,,,,,,,,,,m,1,0.7113,,,,,,,,0.654687546,-0.168055618,0,0,0,,0,66,66,28,1,FALCON,C,old,m,./images/FALCON.png,,,,,,,,,,,,,,,,,,,,,,,,,,,,,,,,,,,
,,,,,,,,,,,,,,,,,5fe82ba8ad8fba6fea2d72a3,47,2022-02-12_14h46.55.612,lexical_decision_task_DD_L3,2021.2.3,Win32,59.96282305,,,,,,,,,,,0.6941,1,,,,,,,,,,,,,,z,1,0.6941,,,,,,,,0.654687546,-0.168055618,0,0,0,,0,67,67,120,1,RINED,C,old,z,./images/RINED.png,,,,,,,,,,,,,,,,,,,,,,,,,,,,,,,,,,,
,,,,,,,,,,,,,,,,,5fe82ba8ad8fba6fea2d72a3,47,2022-02-12_14h46.55.612,lexical_decision_task_DD_L3,2021.2.3,Win32,59.96282305,,,,,,,,,,,0.7415,1,,,,,,,,,,,,,,m,1,0.7415,,,,,,,,0.654687546,-0.168055618,0,0,0,,0,68,68,25,1,WRIST,C,old,m,./images/WRIST.png,,,,,,,,,,,,,,,,,,,,,,,,,,,,,,,,,,,
,,,,,,,,,,,,,,,,,5fe82ba8ad8fba6fea2d72a3,47,2022-02-12_14h46.55.612,lexical_decision_task_DD_L3,2021.2.3,Win32,59.96282305,,,,,,,,,,,1.3413,1,,,,,,,,,,,,,,z,1,1.3413,,,,,,,,0.654687546,-0.168055618,0,0,0,,0,69,69,154,1,THINT,HB,old,z,./images/THINTHB.png,,,,,,,,,,,,,,,,,,,,,,,,,,,,,,,,,,,
,,,,,,,,,,,,,,,,,5fe82ba8ad8fba6fea2d72a3,47,2022-02-12_14h46.55.612,lexical_decision_task_DD_L3,2021.2.3,Win32,59.96282305,,,,,,,,,,,0.5965,1,,,,,,,,,,,,,,m,1,0.5965,,,,,,,,0.654687546,-0.168055618,0,0,0,,0,70,70,45,1,KITTEN,LB,old,m,./images/KITTENLB.png,,,,,,,,,,,,,,,,,,,,,,,,,,,,,,,,,,,
,,,,,,,,,,,,,,,,,5fe82ba8ad8fba6fea2d72a3,47,2022-02-12_14h46.55.612,lexical_decision_task_DD_L3,2021.2.3,Win32,59.96282305,,,,,,,,,,,1.1428,1,,,,,,,,,,,,,,m,1,1.1428,,,,,,,,0.654687546,-0.168055618,0,0,0,,0,71,71,83,1,JUNGLE,HB,old,m,./images/JUNGLEHB.png,,,,,,,,,,,,,,,,,,,,,,,,,,,,,,,,,,,
,,,,,,,,,,,,,,,,,5fe82ba8ad8fba6fea2d72a3,47,2022-02-12_14h46.55.612,lexical_decision_task_DD_L3,2021.2.3,Win32,59.96282305,,,,,,,,,,,0.6845,1,,,,,,,,,,,,,,z,1,0.6845,,,,,,,,0.654687546,-0.168055618,0,0,0,,0,72,72,123,1,SEDGE,C,old,z,./images/SEDGE.png,,,,,,,,,,,,,,,,,,,,,,,,,,,,,,,,,,,
,,,,,,,,,,,,,,,,,5fe82ba8ad8fba6fea2d72a3,47,2022-02-12_14h46.55.612,lexical_decision_task_DD_L3,2021.2.3,Win32,59.96282305,,,,,,,,,,,0.5795,1,,,,,,,,,,,,,,m,1,0.5795,,,,,,,,0.654687546,-0.168055618,0,0,0,,0,73,73,61,1,CANDLE,C,old,m,./images/CANDLE.png,,,,,,,,,,,,,,,,,,,,,,,,,,,,,,,,,,,
,,,,,,,,,,,,,,,,,5fe82ba8ad8fba6fea2d72a3,47,2022-02-12_14h46.55.612,lexical_decision_task_DD_L3,2021.2.3,Win32,59.96282305,,,,,,,,,,,0.6907,1,,,,,,,,,,,,,,m,1,0.6907,,,,,,,,0.654687546,-0.168055618,0,0,0,,0,74,74,46,1,PEARL,C,old,m,./images/PEARL.png,,,,,,,,,,,,,,,,,,,,,,,,,,,,,,,,,,,
,,,,,,,,,,,,,,,,,5fe82ba8ad8fba6fea2d72a3,47,2022-02-12_14h46.55.612,lexical_decision_task_DD_L3,2021.2.3,Win32,59.96282305,,,,,,,,,,,0.7153,1,,,,,,,,,,,,,,z,1,0.7153,,,,,,,,0.654687546,-0.168055618,0,0,0,,0,75,75,89,1,DRIEK,LB,old,z,./images/DRIEKLB.png,,,,,,,,,,,,,,,,,,,,,,,,,,,,,,,,,,,
,,,,,,,,,,,,,,,,,5fe82ba8ad8fba6fea2d72a3,47,2022-02-12_14h46.55.612,lexical_decision_task_DD_L3,2021.2.3,Win32,59.96282305,,,,,,,,,,,0.7507,1,,,,,,,,,,,,,,z,1,0.7507,,,,,,,,0.654687546,-0.168055618,0,0,0,,0,76,76,155,1,CANGY,LB,old,z,./images/CANGYLB.png,,,,,,,,,,,,,,,,,,,,,,,,,,,,,,,,,,,
,,,,,,,,,,,,,,,,,5fe82ba8ad8fba6fea2d72a3,47,2022-02-12_14h46.55.612,lexical_decision_task_DD_L3,2021.2.3,Win32,59.96282305,,,,,,,,,,,0.7238,1,,,,,,,,,,,,,,z,1,0.7238,,,,,,,,0.654687546,-0.168055618,0,0,0,,0,77,77,102,1,DULLE,C,old,z,./images/DULLE.png,,,,,,,,,,,,,,,,,,,,,,,,,,,,,,,,,,,
,,,,,,,,,,,,,,,,,5fe82ba8ad8fba6fea2d72a3,47,2022-02-12_14h46.55.612,lexical_decision_task_DD_L3,2021.2.3,Win32,59.96282305,,,,,,,,,,,1.0093,1,,,,,,,,,,,,,,m,1,1.0093,,,,,,,,0.654687546,-0.168055618,0,0,0,,0,78,78,72,1,NOOSE,LB,old,m,./images/NOOSELB.png,,,,,,,,,,,,,,,,,,,,,,,,,,,,,,,,,,,
,,,,,,,,,,,,,,,,,5fe82ba8ad8fba6fea2d72a3,47,2022-02-12_14h46.55.612,lexical_decision_task_DD_L3,2021.2.3,Win32,59.96282305,,,,,,,,,,,0.6616,1,,,,,,,,,,,,,,m,1,0.6616,,,,,,,,0.654687546,-0.168055618,0,0,0,,0,79,79,36,1,THROAT,LB,old,m,./images/THROATLB.png,,,,,,,,,,,,,,,,,,,,,,,,,,,,,,,,,,,
,,,,,,,,,,,,,,,,,5fe82ba8ad8fba6fea2d72a3,47,2022-02-12_14h46.55.612,lexical_decision_task_DD_L3,2021.2.3,Win32,59.96282305,,,,,,,,,,,0.7445,1,,,,,,,,,,,,,,z,1,0.7445,,,,,,,,0.654687546,-0.168055618,0,0,0,,0,80,80,87,1,TRING,C,old,z,./images/TRING.png,,,,,,,,,,,,,,,,,,,,,,,,,,,,,,,,,,,
,,,,,,,,,,,,,,,,,5fe82ba8ad8fba6fea2d72a3,47,2022-02-12_14h46.55.612,lexical_decision_task_DD_L3,2021.2.3,Win32,59.96282305,,,,,,,,,,,0.6975,1,,,,,,,,,,,,,,z,1,0.6975,,,,,,,,0.654687546,-0.168055618,0,0,0,,0,81,81,119,1,PAFER,LB,old,z,./images/PAFERLB.png,,,,,,,,,,,,,,,,,,,,,,,,,,,,,,,,,,,
,,,,,,,,,,,,,,,,,5fe82ba8ad8fba6fea2d72a3,47,2022-02-12_14h46.55.612,lexical_decision_task_DD_L3,2021.2.3,Win32,59.96282305,,,,,,,,,,,0.6619,1,,,,,,,,,,,,,,m,1,0.6619,,,,,,,,0.654687546,-0.168055618,0,0,0,,0,82,82,63,1,MIRROR,LB,old,m,./images/MIRRORLB.png,,,,,,,,,,,,,,,,,,,,,,,,,,,,,,,,,,,
,,,,,,,,,,,,,,,,,5fe82ba8ad8fba6fea2d72a3,47,2022-02-12_14h46.55.612,lexical_decision_task_DD_L3,2021.2.3,Win32,59.96282305,,,,,,,,,,,0.6594,1,,,,,,,,,,,,,,m,1,0.6594,,,,,,,,0.654687546,-0.168055618,0,0,0,space,0,83,83,39,1,SHELF,LB,old,m,./images/SHELFLB.png,14.6315,,,,,,,,,,,,,,,,,,,,,,,,,,,,,,,,,,
,,,,,,,,,,,,,,,,,5fe82ba8ad8fba6fea2d72a3,47,2022-02-12_14h46.55.612,lexical_decision_task_DD_L3,2021.2.3,Win32,59.96282305,,,,,,,,,,,0.9296,1,,,,,,,,,,,,,,z,1,0.9296,,,,,,,,0.654687546,-0.168055618,0,0,0,,0,84,84,93,1,SMONE,C,old,z,./images/SMONE.png,,,,,,,,,,,,,,,,,,,,,,,,,,,,,,,,,,,
,,,,,,,,,,,,,,,,,5fe82ba8ad8fba6fea2d72a3,47,2022-02-12_14h46.55.612,lexical_decision_task_DD_L3,2021.2.3,Win32,59.96282305,,,,,,,,,,,0.7165,1,,,,,,,,,,,,,,m,1,0.7165,,,,,,,,0.654687546,-0.168055618,0,0,0,,0,85,85,54,1,TRIPOD,LB,old,m,./images/TRIPODLB.png,,,,,,,,,,,,,,,,,,,,,,,,,,,,,,,,,,,
,,,,,,,,,,,,,,,,,5fe82ba8ad8fba6fea2d72a3,47,2022-02-12_14h46.55.612,lexical_decision_task_DD_L3,2021.2.3,Win32,59.96282305,,,,,,,,,,,1.3724,1,,,,,,,,,,,,,,z,1,1.3724,,,,,,,,0.654687546,-0.168055618,0,0,0,,0,86,86,140,1,DOVET,LB,old,z,./images/DOVETLB.png,,,,,,,,,,,,,,,,,,,,,,,,,,,,,,,,,,,
,,,,,,,,,,,,,,,,,5fe82ba8ad8fba6fea2d72a3,47,2022-02-12_14h46.55.612,lexical_decision_task_DD_L3,2021.2.3,Win32,59.96282305,,,,,,,,,,,0.6647,1,,,,,,,,,,,,,,z,1,0.6647,,,,,,,,0.654687546,-0.168055618,0,0,0,,0,87,87,156,1,HIXES,C,old,z,./images/HIXES.png,,,,,,,,,,,,,,,,,,,,,,,,,,,,,,,,,,,
,,,,,,,,,,,,,,,,,5fe82ba8ad8fba6fea2d72a3,47,2022-02-12_14h46.55.612,lexical_decision_task_DD_L3,2021.2.3,Win32,59.96282305,,,,,,,,,,,0.6831,1,,,,,,,,,,,,,,m,1,0.6831,,,,,,,,0.654687546,-0.168055618,0,0,0,,0,88,88,5,1,PASTA,HB,old,m,./images/PASTAHB.png,,,,,,,,,,,,,,,,,,,,,,,,,,,,,,,,,,,
,,,,,,,,,,,,,,,,,5fe82ba8ad8fba6fea2d72a3,47,2022-02-12_14h46.55.612,lexical_decision_task_DD_L3,2021.2.3,Win32,59.96282305,,,,,,,,,,,0.6086,1,,,,,,,,,,,,,,m,1,0.6086,,,,,,,,0.654687546,-0.168055618,0,0,0,,0,89,89,70,1,URINE,C,old,m,./images/URINE.png,,,,,,,,,,,,,,,,,,,,,,,,,,,,,,,,,,,
,,,,,,,,,,,,,,,,,5fe82ba8ad8fba6fea2d72a3,47,2022-02-12_14h46.55.612,lexical_decision_task_DD_L3,2021.2.3,Win32,59.96282305,,,,,,,,,,,0.7301,1,,,,,,,,,,,,,,z,1,0.7301,,,,,,,,0.654687546,-0.168055618,0,0,0,,0,90,90,161,1,BLAPS,LB,old,z,./images/BLAPSLB.png,,,,,,,,,,,,,,,,,,,,,,,,,,,,,,,,,,,
,,,,,,,,,,,,,,,,,5fe82ba8ad8fba6fea2d72a3,47,2022-02-12_14h46.55.612,lexical_decision_task_DD_L3,2021.2.3,Win32,59.96282305,,,,,,,,,,,0.6221,1,,,,,,,,,,,,,,z,1,0.6221,,,,,,,,0.654687546,-0.168055618,0,0,0,,0,91,91,141,1,PLEET,C,old,z,./images/PLEET.png,,,,,,,,,,,,,,,,,,,,,,,,,,,,,,,,,,,
,,,,,,,,,,,,,,,,,5fe82ba8ad8fba6fea2d72a3,47,2022-02-12_14h46.55.612,lexical_decision_task_DD_L3,2021.2.3,Win32,59.96282305,,,,,,,,,,,0.7002,1,,,,,,,,,,,,,,z,1,0.7002,,,,,,,,0.654687546,-0.168055618,0,0,0,,0,92,92,86,1,AIFED,LB,old,z,./images/AIFEDLB.png,,,,,,,,,,,,,,,,,,,,,,,,,,,,,,,,,,,
,,,,,,,,,,,,,,,,,5fe82ba8ad8fba6fea2d72a3,47,2022-02-12_14h46.55.612,lexical_decision_task_DD_L3,2021.2.3,Win32,59.96282305,,,,,,,,,,,0.6682,1,,,,,,,,,,,,,,z,1,0.6682,,,,,,,,0.654687546,-0.168055618,0,0,0,,0,93,93,167,1,ZONET,LB,old,z,./images/ZONETLB.png,,,,,,,,,,,,,,,,,,,,,,,,,,,,,,,,,,,
,,,,,,,,,,,,,,,,,5fe82ba8ad8fba6fea2d72a3,47,2022-02-12_14h46.55.612,lexical_decision_task_DD_L3,2021.2.3,Win32,59.96282305,,,,,,,,,,,1.1998,1,,,,,,,,,,,,,,m,1,1.1998,,,,,,,,0.654687546,-0.168055618,0,0,0,,0,94,94,44,1,LIZARD,HB,old,m,./images/LIZARDHB.png,,,,,,,,,,,,,,,,,,,,,,,,,,,,,,,,,,,
,,,,,,,,,,,,,,,,,5fe82ba8ad8fba6fea2d72a3,47,2022-02-12_14h46.55.612,lexical_decision_task_DD_L3,2021.2.3,Win32,59.96282305,,,,,,,,,,,0.6683,1,,,,,,,,,,,,,,z,1,0.6683,,,,,,,,0.654687546,-0.168055618,0,0,0,,0,95,95,90,1,NEAST,C,old,z,./images/NEAST.png,,,,,,,,,,,,,,,,,,,,,,,,,,,,,,,,,,,
,,,,,,,,,,,,,,,,,5fe82ba8ad8fba6fea2d72a3,47,2022-02-12_14h46.55.612,lexical_decision_task_DD_L3,2021.2.3,Win32,59.96282305,,,,,,,,,,,0.9988,1,,,,,,,,,,,,,,m,1,0.9988,,,,,,,,0.654687546,-0.168055618,0,0,0,,0,96,96,26,1,SMOKER,HB,old,m,./images/SMOKERHB.png,,,,,,,,,,,,,,,,,,,,,,,,,,,,,,,,,,,
,,,,,,,,,,,,,,,,,5fe82ba8ad8fba6fea2d72a3,47,2022-02-12_14h46.55.612,lexical_decision_task_DD_L3,2021.2.3,Win32,59.96282305,,,,,,,,,,,0.6019,1,,,,,,,,,,,,,,m,1,0.6019,,,,,,,,0.654687546,-0.168055618,0,0,0,,0,97,97,24,1,SCREW,LB,old,m,./images/SCREWLB.png,,,,,,,,,,,,,,,,,,,,,,,,,,,,,,,,,,,
,,,,,,,,,,,,,,,,,5fe82ba8ad8fba6fea2d72a3,47,2022-02-12_14h46.55.612,lexical_decision_task_DD_L3,2021.2.3,Win32,59.96282305,,,,,,,,,,,0.6462,1,,,,,,,,,,,,,,m,1,0.6462,,,,,,,,0.654687546,-0.168055618,0,0,0,,0,98,98,33,1,MAGGOT,LB,old,m,./images/MAGGOTLB.png,,,,,,,,,,,,,,,,,,,,,,,,,,,,,,,,,,,
,,,,,,,,,,,,,,,,,5fe82ba8ad8fba6fea2d72a3,47,2022-02-12_14h46.55.612,lexical_decision_task_DD_L3,2021.2.3,Win32,59.96282305,,,,,,,,,,,0.6419,1,,,,,,,,,,,,,,z,1,0.6419,,,,,,,,0.654687546,-0.168055618,0,0,0,,0,99,99,126,1,GUELS,C,old,z,./images/GUELS.png,,,,,,,,,,,,,,,,,,,,,,,,,,,,,,,,,,,
,,,,,,,,,,,,,,,,,5fe82ba8ad8fba6fea2d72a3,47,2022-02-12_14h46.55.612,lexical_decision_task_DD_L3,2021.2.3,Win32,59.96282305,,,,,,,,,,,1.8584,1,,,,,,,,,,,,,,z,1,1.8584,,,,,,,,0.654687546,-0.168055618,0,0,0,,0,100,100,85,1,CHULK,HB,old,z,./images/CHULKHB.png,,,,,,,,,,,,,,,,,,,,,,,,,,,,,,,,,,,
,,,,,,,,,,,,,,,,,5fe82ba8ad8fba6fea2d72a3,47,2022-02-12_14h46.55.612,lexical_decision_task_DD_L3,2021.2.3,Win32,59.96282305,,,,,,,,,,,1.7615,1,,,,,,,,,,,,,,m,1,1.7615,,,,,,,,0.654687546,-0.168055618,0,0,0,,0,101,101,11,1,BONNET,HB,old,m,./images/BONNETHB.png,,,,,,,,,,,,,,,,,,,,,,,,,,,,,,,,,,,
,,,,,,,,,,,,,,,,,5fe82ba8ad8fba6fea2d72a3,47,2022-02-12_14h46.55.612,lexical_decision_task_DD_L3,2021.2.3,Win32,59.96282305,,,,,,,,,,,1.6305,1,,,,,,,,,,,,,,z,1,1.6305,,,,,,,,0.654687546,-0.168055618,0,0,0,,0,102,102,121,1,CEERS,HB,old,z,./images/CEERSHB.png,,,,,,,,,,,,,,,,,,,,,,,,,,,,,,,,,,,
,,,,,,,,,,,,,,,,,5fe82ba8ad8fba6fea2d72a3,47,2022-02-12_14h46.55.612,lexical_decision_task_DD_L3,2021.2.3,Win32,59.96282305,,,,,,,,,,,1.1177,1,,,,,,,,,,,,,,m,1,1.1177,,,,,,,,0.654687546,-0.168055618,0,0,0,,0,103,103,59,1,BURIAL,HB,old,m,./images/BURIALHB.png,,,,,,,,,,,,,,,,,,,,,,,,,,,,,,,,,,,
,,,,,,,,,,,,,,,,,5fe82ba8ad8fba6fea2d72a3,47,2022-02-12_14h46.55.612,lexical_decision_task_DD_L3,2021.2.3,Win32,59.96282305,,,,,,,,,,,0.6156,1,,,,,,,,,,,,,,m,1,0.6156,,,,,,,,0.654687546,-0.168055618,0,0,0,,0,104,104,18,1,JAGUAR,LB,old,m,./images/JAGUARLB.png,,,,,,,,,,,,,,,,,,,,,,,,,,,,,,,,,,,
,,,,,,,,,,,,,,,,,5fe82ba8ad8fba6fea2d72a3,47,2022-02-12_14h46.55.612,lexical_decision_task_DD_L3,2021.2.3,Win32,59.96282305,,,,,,,,,,,1.1989,0,,,,,,,,,,,,,,m,0,1.1989,,,,,,,,0.654687546,-0.168055618,0,0,0,,0,105,105,166,1,SHORY,HB,old,z,./images/SHORYHB.png,,,,,,,,,,,,,,,,,,,,,,,,,,,,,,,,,,,
,,,,,,,,,,,,,,,,,5fe82ba8ad8fba6fea2d72a3,47,2022-02-12_14h46.55.612,lexical_decision_task_DD_L3,2021.2.3,Win32,59.96282305,,,,,,,,,,,1.4966,1,,,,,,,,,,,,,,m,1,1.4966,,,,,,,,0.654687546,-0.168055618,0,0,0,,0,106,106,17,1,SKIING,HB,old,m,./images/SKIINGHB.png,,,,,,,,,,,,,,,,,,,,,,,,,,,,,,,,,,,
,,,,,,,,,,,,,,,,,5fe82ba8ad8fba6fea2d72a3,47,2022-02-12_14h46.55.612,lexical_decision_task_DD_L3,2021.2.3,Win32,59.96282305,,,,,,,,,,,0.6701,1,,,,,,,,,,,,,,m,1,0.6701,,,,,,,,0.654687546,-0.168055618,0,0,0,,0,107,107,34,1,CANYON,C,old,m,./images/CANYON.png,,,,,,,,,,,,,,,,,,,,,,,,,,,,,,,,,,,
,,,,,,,,,,,,,,,,,5fe82ba8ad8fba6fea2d72a3,47,2022-02-12_14h46.55.612,lexical_decision_task_DD_L3,2021.2.3,Win32,59.96282305,,,,,,,,,,,0.6266,1,,,,,,,,,,,,,,m,1,0.6266,,,,,,,,0.654687546,-0.168055618,0,0,0,,0,108,108,78,1,LITTER,LB,old,m,./images/LITTERLB.png,,,,,,,,,,,,,,,,,,,,,,,,,,,,,,,,,,,
,,,,,,,,,,,,,,,,,5fe82ba8ad8fba6fea2d72a3,47,2022-02-12_14h46.55.612,lexical_decision_task_DD_L3,2021.2.3,Win32,59.96282305,,,,,,,,,,,0.5848,1,,,,,,,,,,,,,,m,1,0.5848,,,,,,,,0.654687546,-0.168055618,0,0,0,,0,109,109,55,1,MUFFIN,C,old,m,./images/MUFFIN.png,,,,,,,,,,,,,,,,,,,,,,,,,,,,,,,,,,,
,,,,,,,,,,,,,,,,,5fe82ba8ad8fba6fea2d72a3,47,2022-02-12_14h46.55.612,lexical_decision_task_DD_L3,2021.2.3,Win32,59.96282305,,,,,,,,,,,0.5176,1,,,,,,,,,,,,,,m,1,0.5176,,,,,,,,0.654687546,-0.168055618,0,0,0,,0,110,110,10,1,BELLY,C,old,m,./images/BELLY.png,,,,,,,,,,,,,,,,,,,,,,,,,,,,,,,,,,,
,,,,,,,,,,,,,,,,,5fe82ba8ad8fba6fea2d72a3,47,2022-02-12_14h46.55.612,lexical_decision_task_DD_L3,2021.2.3,Win32,59.96282305,,,,,,,,,,,0.6084,1,,,,,,,,,,,,,,z,1,0.6084,,,,,,,,0.654687546,-0.168055618,0,0,0,,0,111,111,129,1,PRANS,C,old,z,./images/PRANS.png,,,,,,,,,,,,,,,,,,,,,,,,,,,,,,,,,,,
,,,,,,,,,,,,,,,,,5fe82ba8ad8fba6fea2d72a3,47,2022-02-12_14h46.55.612,lexical_decision_task_DD_L3,2021.2.3,Win32,59.96282305,,,,,,,,,,,0.8378,1,,,,,,,,,,,,,,m,1,0.8378,,,,,,,,0.654687546,-0.168055618,0,0,0,,0,112,112,38,1,LADDER,HB,old,m,./images/LADDERHB.png,,,,,,,,,,,,,,,,,,,,,,,,,,,,,,,,,,,
,,,,,,,,,,,,,,,,,5fe82ba8ad8fba6fea2d72a3,47,2022-02-12_14h46.55.612,lexical_decision_task_DD_L3,2021.2.3,Win32,59.96282305,,,,,,,,,,,1.4428,1,,,,,,,,,,,,,,z,1,1.4428,,,,,,,,0.654687546,-0.168055618,0,0,0,,0,113,113,157,1,INLER,HB,old,z,./images/INLERHB.png,,,,,,,,,,,,,,,,,,,,,,,,,,,,,,,,,,,
,,,,,,,,,,,,,,,,,5fe82ba8ad8fba6fea2d72a3,47,2022-02-12_14h46.55.612,lexical_decision_task_DD_L3,2021.2.3,Win32,59.96282305,,,,,,,,,,,0.5854,1,,,,,,,,,,,,,,m,1,0.5854,,,,,,,,0.654687546,-0.168055618,0,0,0,,0,114,114,6,1,SQUARE,LB,old,m,./images/SQUARELB.png,,,,,,,,,,,,,,,,,,,,,,,,,,,,,,,,,,,
,,,,,,,,,,,,,,,,,5fe82ba8ad8fba6fea2d72a3,47,2022-02-12_14h46.55.612,lexical_decision_task_DD_L3,2021.2.3,Win32,59.96282305,,,,,,,,,,,1.2938,1,,,,,,,,,,,,,,z,1,1.2938,,,,,,,,0.654687546,-0.168055618,0,0,0,,0,115,115,94,1,BLANS,HB,old,z,./images/BLANSHB.png,,,,,,,,,,,,,,,,,,,,,,,,,,,,,,,,,,,
,,,,,,,,,,,,,,,,,5fe82ba8ad8fba6fea2d72a3,47,2022-02-12_14h46.55.612,lexical_decision_task_DD_L3,2021.2.3,Win32,59.96282305,,,,,,,,,,,0.9277,1,,,,,,,,,,,,,,z,1,0.9277,,,,,,,,0.654687546,-0.168055618,0,0,0,,0,116,116,132,1,SCIFF,C,old,z,./images/SCIFF.png,,,,,,,,,,,,,,,,,,,,,,,,,,,,,,,,,,,
,,,,,,,,,,,,,,,,,5fe82ba8ad8fba6fea2d72a3,47,2022-02-12_14h46.55.612,lexical_decision_task_DD_L3,2021.2.3,Win32,59.96282305,,,,,,,,,,,0.7804,1,,,,,,,,,,,,,,z,1,0.7804,,,,,,,,0.654687546,-0.168055618,0,0,0,,0,117,117,146,1,MOOST,LB,old,z,./images/MOOSTLB.png,,,,,,,,,,,,,,,,,,,,,,,,,,,,,,,,,,,
,,,,,,,,,,,,,,,,,5fe82ba8ad8fba6fea2d72a3,47,2022-02-12_14h46.55.612,lexical_decision_task_DD_L3,2021.2.3,Win32,59.96282305,,,,,,,,,,,1.5313,1,,,,,,,,,,,,,,z,1,1.5313,,,,,,,,0.654687546,-0.168055618,0,0,0,,0,118,118,127,1,NINDY,HB,old,z,./images/NINDYHB.png,,,,,,,,,,,,,,,,,,,,,,,,,,,,,,,,,,,
,,,,,,,,,,,,,,,,,5fe82ba8ad8fba6fea2d72a3,47,2022-02-12_14h46.55.612,lexical_decision_task_DD_L3,2021.2.3,Win32,59.96282305,,,,,,,,,,,1.196,0,,,,,,,,,,,,,,m,0,1.196,,,,,,,,0.654687546,-0.168055618,0,0,0,,0,119,119,159,1,CUDDY,C,old,z,./images/CUDDY.png,,,,,,,,,,,,,,,,,,,,,,,,,,,,,,,,,,,
,,,,,,,,,,,,,,,,,5fe82ba8ad8fba6fea2d72a3,47,2022-02-12_14h46.55.612,lexical_decision_task_DD_L3,2021.2.3,Win32,59.96282305,,,,,,,,,,,0.7649,1,,,,,,,,,,,,,,z,1,0.7649,,,,,,,,0.654687546,-0.168055618,0,0,0,,0,120,120,150,1,NOOLS,C,old,z,./images/NOOLS.png,,,,,,,,,,,,,,,,,,,,,,,,,,,,,,,,,,,
,,,,,,,,,,,,,,,,,5fe82ba8ad8fba6fea2d72a3,47,2022-02-12_14h46.55.612,lexical_decision_task_DD_L3,2021.2.3,Win32,59.96282305,,,,,,,,,,,0.782,1,,,,,,,,,,,,,,z,1,0.782,,,,,,,,0.654687546,-0.168055618,0,0,0,,0,121,121,99,1,BACKY,C,old,z,./images/BACKY.png,,,,,,,,,,,,,,,,,,,,,,,,,,,,,,,,,,,
,,,,,,,,,,,,,,,,,5fe82ba8ad8fba6fea2d72a3,47,2022-02-12_14h46.55.612,lexical_decision_task_DD_L3,2021.2.3,Win32,59.96282305,,,,,,,,,,,0.6828,1,,,,,,,,,,,,,,m,1,0.6828,,,,,,,,0.654687546,-0.168055618,0,0,0,,0,122,122,66,1,SWEAT,LB,old,m,./images/SWEATLB.png,,,,,,,,,,,,,,,,,,,,,,,,,,,,,,,,,,,
,,,,,,,,,,,,,,,,,5fe82ba8ad8fba6fea2d72a3,47,2022-02-12_14h46.55.612,lexical_decision_task_DD_L3,2021.2.3,Win32,59.96282305,,,,,,,,,,,0.8254,1,,,,,,,,,,,,,,m,1,0.8254,,,,,,,,0.654687546,-0.168055618,0,0,0,,0,123,123,68,1,TORCH,HB,old,m,./images/TORCHHB.png,,,,,,,,,,,,,,,,,,,,,,,,,,,,,,,,,,,
,,,,,,,,,,,,,,,,,5fe82ba8ad8fba6fea2d72a3,47,2022-02-12_14h46.55.612,lexical_decision_task_DD_L3,2021.2.3,Win32,59.96282305,,,,,,,,,,,0.7122,1,,,,,,,,,,,,,,z,1,0.7122,,,,,,,,0.654687546,-0.168055618,0,0,0,,0,124,124,96,1,KEAMS,C,old,z,./images/KEAMS.png,,,,,,,,,,,,,,,,,,,,,,,,,,,,,,,,,,,
,,,,,,,,,,,,,,,,,5fe82ba8ad8fba6fea2d72a3,47,2022-02-12_14h46.55.612,lexical_decision_task_DD_L3,2021.2.3,Win32,59.96282305,,,,,,,,,,,0.6534,1,,,,,,,,,,,,,,z,1,0.6534,,,,,,,,0.654687546,-0.168055618,0,0,0,space,0,125,125,152,1,FRAIN,LB,old,z,./images/FRAINLB.png,5.8205,,,,,,,,,,,,,,,,,,,,,,,,,,,,,,,,,,
,,,,,,,,,,,,,,,,,5fe82ba8ad8fba6fea2d72a3,47,2022-02-12_14h46.55.612,lexical_decision_task_DD_L3,2021.2.3,Win32,59.96282305,,,,,,,,,,,0.7241,1,,,,,,,,,,,,,,m,1,0.7241,,,,,,,,0.654687546,-0.168055618,0,0,0,,0,126,126,0,1,TOMATO,LB,old,m,./images/TOMATOLB.png,,,,,,,,,,,,,,,,,,,,,,,,,,,,,,,,,,,
,,,,,,,,,,,,,,,,,5fe82ba8ad8fba6fea2d72a3,47,2022-02-12_14h46.55.612,lexical_decision_task_DD_L3,2021.2.3,Win32,59.96282305,,,,,,,,,,,0.6357,1,,,,,,,,,,,,,,m,1,0.6357,,,,,,,,0.654687546,-0.168055618,0,0,0,,0,127,127,60,1,TWINS,LB,old,m,./images/TWINSLB.png,,,,,,,,,,,,,,,,,,,,,,,,,,,,,,,,,,,
,,,,,,,,,,,,,,,,,5fe82ba8ad8fba6fea2d72a3,47,2022-02-12_14h46.55.612,lexical_decision_task_DD_L3,2021.2.3,Win32,59.96282305,,,,,,,,,,,0.7498,1,,,,,,,,,,,,,,z,1,0.7498,,,,,,,,0.654687546,-0.168055618,0,0,0,,0,128,128,164,1,SGREW,LB,old,z,./images/SGREWLB.png,,,,,,,,,,,,,,,,,,,,,,,,,,,,,,,,,,,
,,,,,,,,,,,,,,,,,5fe82ba8ad8fba6fea2d72a3,47,2022-02-12_14h46.55.612,lexical_decision_task_DD_L3,2021.2.3,Win32,59.96282305,,,,,,,,,,,1.0663,1,,,,,,,,,,,,,,m,1,1.0663,,,,,,,,0.654687546,-0.168055618,0,0,0,,0,129,129,14,1,PICKLE,HB,old,m,./images/PICKLEHB.png,,,,,,,,,,,,,,,,,,,,,,,,,,,,,,,,,,,
,,,,,,,,,,,,,,,,,5fe82ba8ad8fba6fea2d72a3,47,2022-02-12_14h46.55.612,lexical_decision_task_DD_L3,2021.2.3,Win32,59.96282305,,,,,,,,,,,0.8979,1,,,,,,,,,,,,,,m,1,0.8979,,,,,,,,0.654687546,-0.168055618,0,0,0,,0,130,130,35,1,PEACH,HB,old,m,./images/PEACHHB.png,,,,,,,,,,,,,,,,,,,,,,,,,,,,,,,,,,,
,,,,,,,,,,,,,,,,,5fe82ba8ad8fba6fea2d72a3,47,2022-02-12_14h46.55.612,lexical_decision_task_DD_L3,2021.2.3,Win32,59.96282305,,,,,,,,,,,0.7777,1,,,,,,,,,,,,,,z,1,0.7777,,,,,,,,0.654687546,-0.168055618,0,0,0,,0,131,131,98,1,BAMPS,LB,old,z,./images/BAMPSLB.png,,,,,,,,,,,,,,,,,,,,,,,,,,,,,,,,,,,
,,,,,,,,,,,,,,,,,5fe82ba8ad8fba6fea2d72a3,47,2022-02-12_14h46.55.612,lexical_decision_task_DD_L3,2021.2.3,Win32,59.96282305,,,,,,,,,,,1.0042,1,,,,,,,,,,,,,,z,1,1.0042,,,,,,,,0.654687546,-0.168055618,0,0,0,,0,132,132,103,1,FLORT,HB,old,z,./images/FLORTHB.png,,,,,,,,,,,,,,,,,,,,,,,,,,,,,,,,,,,
,,,,,,,,,,,,,,,,,5fe82ba8ad8fba6fea2d72a3,47,2022-02-12_14h46.55.612,lexical_decision_task_DD_L3,2021.2.3,Win32,59.96282305,,,,,,,,,,,0.6594,1,,,,,,,,,,,,,,z,1,0.6594,,,,,,,,0.654687546,-0.168055618,0,0,0,,0,133,133,158,1,EGECT,LB,old,z,./images/EGECTLB.png,,,,,,,,,,,,,,,,,,,,,,,,,,,,,,,,,,,
,,,,,,,,,,,,,,,,,5fe82ba8ad8fba6fea2d72a3,47,2022-02-12_14h46.55.612,lexical_decision_task_DD_L3,2021.2.3,Win32,59.96282305,,,,,,,,,,,0.8523,1,,,,,,,,,,,,,,m,1,0.8523,,,,,,,,0.654687546,-0.168055618,0,0,0,,0,134,134,58,1,BABOON,C,old,m,./images/BABOON.png,,,,,,,,,,,,,,,,,,,,,,,,,,,,,,,,,,,
,,,,,,,,,,,,,,,,,5fe82ba8ad8fba6fea2d72a3,47,2022-02-12_14h46.55.612,lexical_decision_task_DD_L3,2021.2.3,Win32,59.96282305,,,,,,,,,,,1.316,1,,,,,,,,,,,,,,m,1,1.316,,,,,,,,0.654687546,-0.168055618,0,0,0,,0,135,135,71,1,PIMPLE,HB,old,m,./images/PIMPLEHB.png,,,,,,,,,,,,,,,,,,,,,,,,,,,,,,,,,,,
,,,,,,,,,,,,,,,,,5fe82ba8ad8fba6fea2d72a3,47,2022-02-12_14h46.55.612,lexical_decision_task_DD_L3,2021.2.3,Win32,59.96282305,,,,,,,,,,,0.9454,1,,,,,,,,,,,,,,m,1,0.9454,,,,,,,,0.654687546,-0.168055618,0,0,0,,0,136,136,43,1,MOSQUE,C,old,m,./images/MOSQUE.png,,,,,,,,,,,,,,,,,,,,,,,,,,,,,,,,,,,
,,,,,,,,,,,,,,,,,5fe82ba8ad8fba6fea2d72a3,47,2022-02-12_14h46.55.612,lexical_decision_task_DD_L3,2021.2.3,Win32,59.96282305,,,,,,,,,,,0.6102,1,,,,,,,,,,,,,,m,1,0.6102,,,,,,,,0.654687546,-0.168055618,0,0,0,,0,137,137,64,1,JELLY,C,old,m,./images/JELLY.png,,,,,,,,,,,,,,,,,,,,,,,,,,,,,,,,,,,
,,,,,,,,,,,,,,,,,5fe82ba8ad8fba6fea2d72a3,47,2022-02-12_14h46.55.612,lexical_decision_task_DD_L3,2021.2.3,Win32,59.96282305,,,,,,,,,,,0.6933,1,,,,,,,,,,,,,,m,1,0.6933,,,,,,,,0.654687546,-0.168055618,0,0,0,,0,138,138,9,1,RHINO,LB,old,m,./images/RHINOLB.png,,,,,,,,,,,,,,,,,,,,,,,,,,,,,,,,,,,
,,,,,,,,,,,,,,,,,5fe82ba8ad8fba6fea2d72a3,47,2022-02-12_14h46.55.612,lexical_decision_task_DD_L3,2021.2.3,Win32,59.96282305,,,,,,,,,,,0.6339,1,,,,,,,,,,,,,,z,1,0.6339,,,,,,,,0.654687546,-0.168055618,0,0,0,,0,139,139,165,1,TROWN,C,old,z,./images/TROWN.png,,,,,,,,,,,,,,,,,,,,,,,,,,,,,,,,,,,
,,,,,,,,,,,,,,,,,5fe82ba8ad8fba6fea2d72a3,47,2022-02-12_14h46.55.612,lexical_decision_task_DD_L3,2021.2.3,Win32,59.96282305,,,,,,,,,,,0.7655,1,,,,,,,,,,,,,,m,1,0.7655,,,,,,,,0.654687546,-0.168055618,0,0,0,,0,140,140,49,1,DRUMS,C,old,m,./images/DRUMS.png,,,,,,,,,,,,,,,,,,,,,,,,,,,,,,,,,,,
,,,,,,,,,,,,,,,,,5fe82ba8ad8fba6fea2d72a3,47,2022-02-12_14h46.55.612,lexical_decision_task_DD_L3,2021.2.3,Win32,59.96282305,,,,,,,,,,,1.4776,1,,,,,,,,,,,,,,z,1,1.4776,,,,,,,,0.654687546,-0.168055618,0,0,0,,0,141,141,148,1,JOMS,HB,old,z,./images/JOMSHB.png,,,,,,,,,,,,,,,,,,,,,,,,,,,,,,,,,,,
,,,,,,,,,,,,,,,,,5fe82ba8ad8fba6fea2d72a3,47,2022-02-12_14h46.55.612,lexical_decision_task_DD_L3,2021.2.3,Win32,59.96282305,,,,,,,,,,,0.7678,1,,,,,,,,,,,,,,m,1,0.7678,,,,,,,,0.654687546,-0.168055618,0,0,0,,0,142,142,15,1,GREASE,LB,old,m,./images/GREASELB.png,,,,,,,,,,,,,,,,,,,,,,,,,,,,,,,,,,,
,,,,,,,,,,,,,,,,,5fe82ba8ad8fba6fea2d72a3,47,2022-02-12_14h46.55.612,lexical_decision_task_DD_L3,2021.2.3,Win32,59.96282305,,,,,,,,,,,0.5743,1,,,,,,,,,,,,,,m,1,0.5743,,,,,,,,0.654687546,-0.168055618,0,0,0,,0,143,143,22,1,MELON,C,old,m,./images/MELON.png,,,,,,,,,,,,,,,,,,,,,,,,,,,,,,,,,,,
,,,,,,,,,,,,,,,,,5fe82ba8ad8fba6fea2d72a3,47,2022-02-12_14h46.55.612,lexical_decision_task_DD_L3,2021.2.3,Win32,59.96282305,,,,,,,,,,,0.8304,1,,,,,,,,,,,,,,z,1,0.8304,,,,,,,,0.654687546,-0.168055618,0,0,0,,0,144,144,122,1,BLOOT,LB,old,z,./images/BLOOTLB.png,,,,,,,,,,,,,,,,,,,,,,,,,,,,,,,,,,,
,,,,,,,,,,,,,,,,,5fe82ba8ad8fba6fea2d72a3,47,2022-02-12_14h46.55.612,lexical_decision_task_DD_L3,2021.2.3,Win32,59.96282305,,,,,,,,,,,0.8516,1,,,,,,,,,,,,,,z,1,0.8516,,,,,,,,0.654687546,-0.168055618,0,0,0,,0,145,145,92,1,PAIMS,LB,old,z,./images/PAIMSLB.png,,,,,,,,,,,,,,,,,,,,,,,,,,,,,,,,,,,
,,,,,,,,,,,,,,,,,5fe82ba8ad8fba6fea2d72a3,47,2022-02-12_14h46.55.612,lexical_decision_task_DD_L3,2021.2.3,Win32,59.96282305,,,,,,,,,,,0.5574,1,,,,,,,,,,,,,,z,1,0.5574,,,,,,,,0.654687546,-0.168055618,0,0,0,,0,146,146,114,1,RIKES,C,old,z,./images/RIKES.png,,,,,,,,,,,,,,,,,,,,,,,,,,,,,,,,,,,
,,,,,,,,,,,,,,,,,5fe82ba8ad8fba6fea2d72a3,47,2022-02-12_14h46.55.612,lexical_decision_task_DD_L3,2021.2.3,Win32,59.96282305,,,,,,,,,,,1.0277,1,,,,,,,,,,,,,,m,1,1.0277,,,,,,,,0.654687546,-0.168055618,0,0,0,,0,147,147,56,1,PACKET,HB,old,m,./images/PACKETHB.png,,,,,,,,,,,,,,,,,,,,,,,,,,,,,,,,,,,
,,,,,,,,,,,,,,,,,5fe82ba8ad8fba6fea2d72a3,47,2022-02-12_14h46.55.612,lexical_decision_task_DD_L3,2021.2.3,Win32,59.96282305,,,,,,,,,,,1.1422,1,,,,,,,,,,,,,,m,1,1.1422,,,,,,,,0.654687546,-0.168055618,0,0,0,,0,148,148,50,1,MALLET,HB,old,m,./images/MALLETHB.png,,,,,,,,,,,,,,,,,,,,,,,,,,,,,,,,,,,
,,,,,,,,,,,,,,,,,5fe82ba8ad8fba6fea2d72a3,47,2022-02-12_14h46.55.612,lexical_decision_task_DD_L3,2021.2.3,Win32,59.96282305,,,,,,,,,,,0.6813,1,,,,,,,,,,,,,,m,1,0.6813,,,,,,,,0.654687546,-0.168055618,0,0,0,,0,149,149,1,1,PLANK,C,old,m,./images/PLANK.png,,,,,,,,,,,,,,,,,,,,,,,,,,,,,,,,,,,
,,,,,,,,,,,,,,,,,5fe82ba8ad8fba6fea2d72a3,47,2022-02-12_14h46.55.612,lexical_decision_task_DD_L3,2021.2.3,Win32,59.96282305,,,,,,,,,,,0.6413,1,,,,,,,,,,,,,,z,1,0.6413,,,,,,,,0.654687546,-0.168055618,0,0,0,,0,150,150,153,1,CLUPS,C,old,z,./images/CLUPS.png,,,,,,,,,,,,,,,,,,,,,,,,,,,,,,,,,,,
,,,,,,,,,,,,,,,,,5fe82ba8ad8fba6fea2d72a3,47,2022-02-12_14h46.55.612,lexical_decision_task_DD_L3,2021.2.3,Win32,59.96282305,,,,,,,,,,,0.6279,1,,,,,,,,,,,,,,z,1,0.6279,,,,,,,,0.654687546,-0.168055618,0,0,0,,0,151,151,116,1,BALGY,LB,old,z,./images/BALGYLB.png,,,,,,,,,,,,,,,,,,,,,,,,,,,,,,,,,,,
,,,,,,,,,,,,,,,,,5fe82ba8ad8fba6fea2d72a3,47,2022-02-12_14h46.55.612,lexical_decision_task_DD_L3,2021.2.3,Win32,59.96282305,,,,,,,,,,,1.0706,1,,,,,,,,,,,,,,m,1,1.0706,,,,,,,,0.654687546,-0.168055618,0,0,0,,0,152,152,74,1,CEMENT,HB,old,m,./images/CEMENTHB.png,,,,,,,,,,,,,,,,,,,,,,,,,,,,,,,,,,,
,,,,,,,,,,,,,,,,,5fe82ba8ad8fba6fea2d72a3,47,2022-02-12_14h46.55.612,lexical_decision_task_DD_L3,2021.2.3,Win32,59.96282305,,,,,,,,,,,0.976,1,,,,,,,,,,,,,,m,1,0.976,,,,,,,,0.654687546,-0.168055618,0,0,0,,0,153,153,2,1,BEARD,HB,old,m,./images/BEARDHB.png,,,,,,,,,,,,,,,,,,,,,,,,,,,,,,,,,,,
,,,,,,,,,,,,,,,,,5fe82ba8ad8fba6fea2d72a3,47,2022-02-12_14h46.55.612,lexical_decision_task_DD_L3,2021.2.3,Win32,59.96282305,,,,,,,,,,,0.5831,1,,,,,,,,,,,,,,m,1,0.5831,,,,,,,,0.654687546,-0.168055618,0,0,0,,0,154,154,3,1,FINGER,LB,old,m,./images/FINGERLB.png,,,,,,,,,,,,,,,,,,,,,,,,,,,,,,,,,,,
,,,,,,,,,,,,,,,,,5fe82ba8ad8fba6fea2d72a3,47,2022-02-12_14h46.55.612,lexical_decision_task_DD_L3,2021.2.3,Win32,59.96282305,,,,,,,,,,,0.5794,1,,,,,,,,,,,,,,m,1,0.5794,,,,,,,,0.654687546,-0.168055618,0,0,0,,0,155,155,69,1,COOKER,LB,old,m,./images/COOKERLB.png,,,,,,,,,,,,,,,,,,,,,,,,,,,,,,,,,,,
,,,,,,,,,,,,,,,,,5fe82ba8ad8fba6fea2d72a3,47,2022-02-12_14h46.55.612,lexical_decision_task_DD_L3,2021.2.3,Win32,59.96282305,,,,,,,,,,,0.6109,1,,,,,,,,,,,,,,z,1,0.6109,,,,,,,,0.654687546,-0.168055618,0,0,0,,0,156,156,95,1,HANTY,LB,old,z,./images/HANTYLB.png,,,,,,,,,,,,,,,,,,,,,,,,,,,,,,,,,,,
,,,,,,,,,,,,,,,,,5fe82ba8ad8fba6fea2d72a3,47,2022-02-12_14h46.55.612,lexical_decision_task_DD_L3,2021.2.3,Win32,59.96282305,,,,,,,,,,,0.9381,1,,,,,,,,,,,,,,z,1,0.9381,,,,,,,,0.654687546,-0.168055618,0,0,0,,0,157,157,137,1,JOOST,LB,old,z,./images/JOOSTLB.png,,,,,,,,,,,,,,,,,,,,,,,,,,,,,,,,,,,
,,,,,,,,,,,,,,,,,5fe82ba8ad8fba6fea2d72a3,47,2022-02-12_14h46.55.612,lexical_decision_task_DD_L3,2021.2.3,Win32,59.96282305,,,,,,,,,,,0.5622,1,,,,,,,,,,,,,,m,1,0.5622,,,,,,,,0.654687546,-0.168055618,0,0,0,,0,158,158,51,1,ONION,LB,old,m,./images/ONIONLB.png,,,,,,,,,,,,,,,,,,,,,,,,,,,,,,,,,,,
,,,,,,,,,,,,,,,,,5fe82ba8ad8fba6fea2d72a3,47,2022-02-12_14h46.55.612,lexical_decision_task_DD_L3,2021.2.3,Win32,59.96282305,,,,,,,,,,,0.5475,1,,,,,,,,,,,,,,m,1,0.5475,,,,,,,,0.654687546,-0.168055618,0,0,0,,0,159,159,40,1,SWING,C,old,m,./images/SWING.png,,,,,,,,,,,,,,,,,,,,,,,,,,,,,,,,,,,
,,,,,,,,,,,,,,,,,5fe82ba8ad8fba6fea2d72a3,47,2022-02-12_14h46.55.612,lexical_decision_task_DD_L3,2021.2.3,Win32,59.96282305,,,,,,,,,,,0.6153,1,,,,,,,,,,,,,,m,1,0.6153,,,,,,,,0.654687546,-0.168055618,0,0,0,,0,160,160,12,1,SHORE,LB,old,m,./images/SHORELB.png,,,,,,,,,,,,,,,,,,,,,,,,,,,,,,,,,,,
,,,,,,,,,,,,,,,,,5fe82ba8ad8fba6fea2d72a3,47,2022-02-12_14h46.55.612,lexical_decision_task_DD_L3,2021.2.3,Win32,59.96282305,,,,,,,,,,,0.5918,1,,,,,,,,,,,,,,m,1,0.5918,,,,,,,,0.654687546,-0.168055618,0,0,0,,0,161,161,57,1,MOOSE,LB,old,m,./images/MOOSELB.png,,,,,,,,,,,,,,,,,,,,,,,,,,,,,,,,,,,
,,,,,,,,,,,,,,,,,5fe82ba8ad8fba6fea2d72a3,47,2022-02-12_14h46.55.612,lexical_decision_task_DD_L3,2021.2.3,Win32,59.96282305,,,,,,,,,,,1.1692,1,,,,,,,,,,,,,,z,1,1.1692,,,,,,,,0.654687546,-0.168055618,0,0,0,,0,162,162,97,1,CHIDS,HB,old,z,./images/CHIDSHB.png,,,,,,,,,,,,,,,,,,,,,,,,,,,,,,,,,,,
,,,,,,,,,,,,,,,,,5fe82ba8ad8fba6fea2d72a3,47,2022-02-12_14h46.55.612,lexical_decision_task_DD_L3,2021.2.3,Win32,59.96282305,,,,,,,,,,,0.9352,0,,,,,,,,,,,,,,m,0,0.9352,,,,,,,,0.654687546,-0.168055618,0,0,0,,0,163,163,110,1,CRUNK,LB,old,z,./images/CRUNKLB.png,,,,,,,,,,,,,,,,,,,,,,,,,,,,,,,,,,,
,,,,,,,,,,,,,,,,,5fe82ba8ad8fba6fea2d72a3,47,2022-02-12_14h46.55.612,lexical_decision_task_DD_L3,2021.2.3,Win32,59.96282305,,,,,,,,,,,0.9679,1,,,,,,,,,,,,,,m,1,0.9679,,,,,,,,0.654687546,-0.168055618,0,0,0,,0,164,164,62,1,PURSE,HB,old,m,./images/PURSEHB.png,,,,,,,,,,,,,,,,,,,,,,,,,,,,,,,,,,,
,,,,,,,,,,,,,,,,,5fe82ba8ad8fba6fea2d72a3,47,2022-02-12_14h46.55.612,lexical_decision_task_DD_L3,2021.2.3,Win32,59.96282305,,,,,,,,,,,0.7493,1,,,,,,,,,,,,,,m,1,0.7493,,,,,,,,0.654687546,-0.168055618,0,0,0,,0,165,165,77,1,COUCH,HB,old,m,./images/COUCHHB.png,,,,,,,,,,,,,,,,,,,,,,,,,,,,,,,,,,,
,,,,,,,,,,,,,,,,,5fe82ba8ad8fba6fea2d72a3,47,2022-02-12_14h46.55.612,lexical_decision_task_DD_L3,2021.2.3,Win32,59.96282305,,,,,,,,,,,0.6675,1,,,,,,,,,,,,,,z,1,0.6675,,,,,,,,0.654687546,-0.168055618,0,0,0,,0,166,166,134,1,TROSS,LB,old,z,./images/TROSSLB.png,,,,,,,,,,,,,,,,,,,,,,,,,,,,,,,,,,,
,,,,,,,,,,,,,,,,,5fe82ba8ad8fba6fea2d72a3,47,2022-02-12_14h46.55.612,lexical_decision_task_DD_L3,2021.2.3,Win32,59.96282305,,,,,,,,,,,1.7397,1,,,,,,,,,,,,,,z,1,1.7397,,,,,,,,0.654687546,-0.168055618,0,0,0,,0,167,167,112,1,MYING,HB,old,z,./images/MYINGHB.png,,,,,,,,,,,,,,,,,,,,,,,,,,,,,,,,,,,
,,,,,,,,,,,,,,,,,5fe82ba8ad8fba6fea2d72a3,47,2022-02-12_14h46.55.612,lexical_decision_task_DD_L3,2021.2.3,Win32,59.96282305,,,,,,,,,,,,,,,,,,,,,,,,,,,,,,,,,,,,,,,,,,,,,,,,How likely will it be that you will recognize the words presented slighly blurred on a scale of 0 (not likely) to 100 (most likely)?,,,,,-0.013368029,-0.409722249,1,0,0,jol_adv,4,6.8455,0,0,0,1,1,,,,,,,,,,,,,,,,,,,,,
,,,,,,,,,,,,,,,,,5fe82ba8ad8fba6fea2d72a3,47,2022-02-12_14h46.55.612,lexical_decision_task_DD_L3,2021.2.3,Win32,59.96282305,,,,,,,,,,,,,,,,,,,,,,,,,,,,,,,,,,,,,,,,,,,,,,,,How likely will it be that you will recognize the words presented very blurred on a scale of 0 (not likely) to 100 (most likely)?,,,,,,,,,,,2,7.1878,0,1,1,2,1,,,,,,,,,,,,,,,,,,,,,
,,,,,,,,,,,,,,,,,5fe82ba8ad8fba6fea2d72a3,47,2022-02-12_14h46.55.612,lexical_decision_task_DD_L3,2021.2.3,Win32,59.96282305,,,,,,,,,,,,,,,,,,,,,,,,,,,,,,,,,,,,,,,,,,,,,,,,How likely will it be that you will recognize the words presented clearly on a scale of 0 (not likely) to 100 (most likely)?,,,,,,,,,,,5,5.1932,0,2,2,0,1,,,,,,,,,,,,,,,,,,,,,
,,0.12968753,-0.371527804,1,0,0,,,,,,1,test,"In the next phase you will be presented with the words from the the first phase. Your job is to decide whether you remember seeing the word or not. If you remember seeing the word press ""old"" or type ""m"". If you do not remember seeing the word press ""new"" or type ""z"". Please press the space bar or click on continue to begin. ",,,5fe82ba8ad8fba6fea2d72a3,47,2022-02-12_14h46.55.612,lexical_decision_task_DD_L3,2021.2.3,Win32,59.96282305,,,,,,,,,,,,,,,,,,,,,,,,,,,,,,,,,,,,,,,,,,,,,,,,,,,,,,,,,,,,,,,,,,instr_done_button,0,0,0,0,1,,,,,,,,,,,,,,,
space,2.3926,0.12968753,-0.371527804,0,0,0,,,,,,1,test,"In the next phase you will be presented with the words from the the first phase. Your job is to decide whether you remember seeing the word or not. If you remember seeing the word press ""old"" or type ""m"". If you do not remember seeing the word press ""new"" or type ""z"". Please press the space bar or click on continue to begin. ",,,5fe82ba8ad8fba6fea2d72a3,47,2022-02-12_14h46.55.612,lexical_decision_task_DD_L3,2021.2.3,Win32,59.96282305,,,,,,,,,,,,,,,,,,,,,,,,,,,,,,,,,,,,,,,,,,,,,,,,,,,,,,,,,,,,,,,,,,,1,0,1,0,1,,,,,,,,,,,,,,,
space,4.8597,0.697048658,-0.177777798,0,0,0,,,,,,1,test,"In the next phase you will be presented with the words from the the first phase. Your job is to decide whether you remember seeing the word or not. If you remember seeing the word press ""old"" or type ""m"". If you do not remember seeing the word press ""new"" or type ""z"". Please press the space bar or click on continue to begin. ",,,5fe82ba8ad8fba6fea2d72a3,47,2022-02-12_14h46.55.612,lexical_decision_task_DD_L3,2021.2.3,Win32,59.96282305,,,,,,,,,,,,,,,,,,,,,,,,,,,,,,,,,,,,,,,,,,,,,,,,,,,,,,,,,,,,,,,,,,,2,0,2,0,1,,,,,,,,,,,,,,,
space,2.1332,0.715104214,-0.172222285,0,0,0,,,,,,1,test,"In the next phase you will be presented with the words from the the first phase. Your job is to decide whether you remember seeing the word or not. If you remember seeing the word press ""old"" or type ""m"". If you do not remember seeing the word press ""new"" or type ""z"". Please press the space bar or click on continue to begin. ",,,5fe82ba8ad8fba6fea2d72a3,47,2022-02-12_14h46.55.612,lexical_decision_task_DD_L3,2021.2.3,Win32,59.96282305,,,,,,,,,,,,,,,,,,,,,,,,,,,,,,,,,,,,,,,,,,,,,,,,,,,,,,,,,,,,,,,,,,,3,0,3,0,1,,,,,,,,,,,,,,,
,,-0.014756918,-0.385416693,1,0,0,,,,,,1,test,"In the next phase you will be presented with the words from the the first phase. Your job is to decide whether you remember seeing the word or not. If you remember seeing the word press ""old"" or type ""m"". If you do not remember seeing the word press ""new"" or type ""z"". Please press the space bar or click on continue to begin. ",,,5fe82ba8ad8fba6fea2d72a3,47,2022-02-12_14h46.55.612,lexical_decision_task_DD_L3,2021.2.3,Win32,59.96282305,,,,,,,,,,,,,,,,,,,,,,,,,,,,,,,,,,,,,,,,,,,,,,,,,,,,,,,,,,,,,,,,,,instr_done_button,4,0,4,0,1,,,,,,,,,,,,,,,
,,,,,,,,,,,,,,,,,5fe82ba8ad8fba6fea2d72a3,47,2022-02-12_14h46.55.612,lexical_decision_task_DD_L3,2021.2.3,Win32,59.96282305,,,,,,,,,,,2.0916,0,,,,,,,,,,,,,,,,,,,,,,,,0.528993098,-0.221527799,0,0,0,,,,,,,CANOE,C,z,m,./images/CANOE.png,,,,,,,,,,,,,,,,,,,,,m,0,2.0916,,,,,,,,0,0,0,142,1
,,,,,,,,,,,,,,,,,5fe82ba8ad8fba6fea2d72a3,47,2022-02-12_14h46.55.612,lexical_decision_task_DD_L3,2021.2.3,Win32,59.96282305,,,,,,,,,,,0.5151,0,,,,,,,,,,,,,,,,,,,,,,,,0.528993098,-0.220833355,1,0,0,,,,,,,MUMMY,C,z,m,./images/MUMMY.png,,,,,,,,,,,,,,,,,,,,,,0,,0.528993098,-0.220833355,1,0,0,0.5151,button_right_test,0,1,1,130,1
,,,,,,,,,,,,,,,,,5fe82ba8ad8fba6fea2d72a3,47,2022-02-12_14h46.55.612,lexical_decision_task_DD_L3,2021.2.3,Win32,59.96282305,,,,,,,,,,,0.5327,0,,,,,,,,,,,,,,,,,,,,,,,,0.528993098,-0.220833355,0,0,0,,,,,,,RAZOR,C,z,m,./images/RAZOR.png,,,,,,,,,,,,,,,,,,,,,m,0,0.5327,,,,,,,,0,2,2,118,1
,,,,,,,,,,,,,,,,,5fe82ba8ad8fba6fea2d72a3,47,2022-02-12_14h46.55.612,lexical_decision_task_DD_L3,2021.2.3,Win32,59.96282305,,,,,,,,,,,0.7299,1,,,,,,,,,,,,,,,,,,,,,,,,0.528993098,-0.220833355,0,0,0,,,,,,,LAGOON,HB,z,m,./images/LAGOONHB.png,,,,,,,,,,,,,,,,,,,,,z,1,0.7299,,,,,,,,0,3,3,131,1
,,,,,,,,,,,,,,,,,5fe82ba8ad8fba6fea2d72a3,47,2022-02-12_14h46.55.612,lexical_decision_task_DD_L3,2021.2.3,Win32,59.96282305,,,,,,,,,,,0.7352,1,,,,,,,,,,,,,,,,,,,,,,,,0.528993098,-0.220833355,0,0,0,,,,,,,POKER,C,z,m,./images/POKER.png,,,,,,,,,,,,,,,,,,,,,z,1,0.7352,,,,,,,,0,4,4,151,1
,,,,,,,,,,,,,,,,,5fe82ba8ad8fba6fea2d72a3,47,2022-02-12_14h46.55.612,lexical_decision_task_DD_L3,2021.2.3,Win32,59.96282305,,,,,,,,,,,0.6023,1,,,,,,,,,,,,,,,,,,,,,,,,0.528993098,-0.220833355,0,0,0,,,,,,,DRILL,LB,z,m,./images/DRILLLB.png,,,,,,,,,,,,,,,,,,,,,z,1,0.6023,,,,,,,,0,5,5,165,1
,,,,,,,,,,,,,,,,,5fe82ba8ad8fba6fea2d72a3,47,2022-02-12_14h46.55.612,lexical_decision_task_DD_L3,2021.2.3,Win32,59.96282305,,,,,,,,,,,0.7829,1,,,,,,,,,,,,,,,,,,,,,,,,0.528993098,-0.220833355,0,0,0,,,,,,,TULIP,HB,m,m,./images/TULIPHB.png,,,,,,,,,,,,,,,,,,,,,m,1,0.7829,,,,,,,,0,6,6,8,1
,,,,,,,,,,,,,,,,,5fe82ba8ad8fba6fea2d72a3,47,2022-02-12_14h46.55.612,lexical_decision_task_DD_L3,2021.2.3,Win32,59.96282305,,,,,,,,,,,0.5922,1,,,,,,,,,,,,,,,,,,,,,,,,0.528993098,-0.220833355,0,0,0,,,,,,,TOMATO,LB,m,m,./images/TOMATOLB.png,,,,,,,,,,,,,,,,,,,,,m,1,0.5922,,,,,,,,0,7,7,0,1
,,,,,,,,,,,,,,,,,5fe82ba8ad8fba6fea2d72a3,47,2022-02-12_14h46.55.612,lexical_decision_task_DD_L3,2021.2.3,Win32,59.96282305,,,,,,,,,,,0.6147,1,,,,,,,,,,,,,,,,,,,,,,,,0.528993098,-0.220833355,0,0,0,,,,,,,CRUMB,HB,m,m,./images/CRUMBHB.png,,,,,,,,,,,,,,,,,,,,,m,1,0.6147,,,,,,,,0,8,8,29,1
,,,,,,,,,,,,,,,,,5fe82ba8ad8fba6fea2d72a3,47,2022-02-12_14h46.55.612,lexical_decision_task_DD_L3,2021.2.3,Win32,59.96282305,,,,,,,,,,,1.2706,0,,,,,,,,,,,,,,,,,,,,,,,,0.528993098,-0.220833355,0,0,0,,,,,,,ATTIC,LB,m,m,./images/ATTICLB.png,,,,,,,,,,,,,,,,,,,,,z,0,1.2706,,,,,,,,0,9,9,27,1
,,,,,,,,,,,,,,,,,5fe82ba8ad8fba6fea2d72a3,47,2022-02-12_14h46.55.612,lexical_decision_task_DD_L3,2021.2.3,Win32,59.96282305,,,,,,,,,,,0.85,1,,,,,,,,,,,,,,,,,,,,,,,,0.528993098,-0.220833355,0,0,0,,,,,,,CASINO,C,z,m,./images/CASINO.png,,,,,,,,,,,,,,,,,,,,,z,1,0.85,,,,,,,,0,10,10,112,1
,,,,,,,,,,,,,,,,,5fe82ba8ad8fba6fea2d72a3,47,2022-02-12_14h46.55.612,lexical_decision_task_DD_L3,2021.2.3,Win32,59.96282305,,,,,,,,,,,0.9163,1,,,,,,,,,,,,,,,,,,,,,,,,0.528993098,-0.220833355,0,0,0,,,,,,,BISHOP,C,z,m,./images/BISHOP.png,,,,,,,,,,,,,,,,,,,,,z,1,0.9163,,,,,,,,0,11,11,133,1
,,,,,,,,,,,,,,,,,5fe82ba8ad8fba6fea2d72a3,47,2022-02-12_14h46.55.612,lexical_decision_task_DD_L3,2021.2.3,Win32,59.96282305,,,,,,,,,,,0.9614,1,,,,,,,,,,,,,,,,,,,,,,,,0.528993098,-0.220833355,0,0,0,,,,,,,JUMPER,HB,z,m,./images/JUMPERHB.png,,,,,,,,,,,,,,,,,,,,,z,1,0.9614,,,,,,,,0,12,12,158,1
,,,,,,,,,,,,,,,,,5fe82ba8ad8fba6fea2d72a3,47,2022-02-12_14h46.55.612,lexical_decision_task_DD_L3,2021.2.3,Win32,59.96282305,,,,,,,,,,,0.6824,0,,,,,,,,,,,,,,,,,,,,,,,,0.528993098,-0.220833355,0,0,0,,,,,,,SUNSET,C,m,m,./images/SUNSET.png,,,,,,,,,,,,,,,,,,,,,z,0,0.6824,,,,,,,,0,13,13,82,1
,,,,,,,,,,,,,,,,,5fe82ba8ad8fba6fea2d72a3,47,2022-02-12_14h46.55.612,lexical_decision_task_DD_L3,2021.2.3,Win32,59.96282305,,,,,,,,,,,0.8312,1,,,,,,,,,,,,,,,,,,,,,,,,0.528993098,-0.220833355,0,0,0,,,,,,,GRAIN,LB,m,m,./images/GRAINLB.png,,,,,,,,,,,,,,,,,,,,,m,1,0.8312,,,,,,,,0,14,14,75,1
,,,,,,,,,,,,,,,,,5fe82ba8ad8fba6fea2d72a3,47,2022-02-12_14h46.55.612,lexical_decision_task_DD_L3,2021.2.3,Win32,59.96282305,,,,,,,,,,,0.8313,1,,,,,,,,,,,,,,,,,,,,,,,,0.528993098,-0.220833355,0,0,0,,,,,,,CHERRY,LB,z,m,./images/CHERRYLB.png,,,,,,,,,,,,,,,,,,,,,z,1,0.8313,,,,,,,,0,15,15,138,1
,,,,,,,,,,,,,,,,,5fe82ba8ad8fba6fea2d72a3,47,2022-02-12_14h46.55.612,lexical_decision_task_DD_L3,2021.2.3,Win32,59.96282305,,,,,,,,,,,0.587,1,,,,,,,,,,,,,,,,,,,,,,,,0.528993098,-0.220833355,0,0,0,,,,,,,BLOKE,LB,z,m,./images/BLOKELB.png,,,,,,,,,,,,,,,,,,,,,z,1,0.587,,,,,,,,0,16,16,96,1
,,,,,,,,,,,,,,,,,5fe82ba8ad8fba6fea2d72a3,47,2022-02-12_14h46.55.612,lexical_decision_task_DD_L3,2021.2.3,Win32,59.96282305,,,,,,,,,,,0.6706,1,,,,,,,,,,,,,,,,,,,,,,,,0.528993098,-0.220833355,0,0,0,,,,,,,BEARD,HB,m,m,./images/BEARDHB.png,,,,,,,,,,,,,,,,,,,,,m,1,0.6706,,,,,,,,0,17,17,2,1
,,,,,,,,,,,,,,,,,5fe82ba8ad8fba6fea2d72a3,47,2022-02-12_14h46.55.612,lexical_decision_task_DD_L3,2021.2.3,Win32,59.96282305,,,,,,,,,,,0.8661,0,,,,,,,,,,,,,,,,,,,,,,,,0.528993098,-0.220833355,0,0,0,,,,,,,BAMBOO,HB,z,m,./images/BAMBOOHB.png,,,,,,,,,,,,,,,,,,,,,m,0,0.8661,,,,,,,,0,18,18,89,1
,,,,,,,,,,,,,,,,,5fe82ba8ad8fba6fea2d72a3,47,2022-02-12_14h46.55.612,lexical_decision_task_DD_L3,2021.2.3,Win32,59.96282305,,,,,,,,,,,0.8702,1,,,,,,,,,,,,,,,,,,,,,,,,0.528993098,-0.220833355,0,0,0,,,,,,,SHIELD,LB,z,m,./images/SHIELDLB.png,,,,,,,,,,,,,,,,,,,,,z,1,0.8702,,,,,,,,0,19,19,132,1
,,,,,,,,,,,,,,,,,5fe82ba8ad8fba6fea2d72a3,47,2022-02-12_14h46.55.612,lexical_decision_task_DD_L3,2021.2.3,Win32,59.96282305,,,,,,,,,,,1.2322,1,,,,,,,,,,,,,,,,,,,,,,,,0.528993098,-0.220833355,0,0,0,,,,,,,PILOT,HB,z,m,./images/PILOTHB.png,,,,,,,,,,,,,,,,,,,,,z,1,1.2322,,,,,,,,0,20,20,134,1
,,,,,,,,,,,,,,,,,5fe82ba8ad8fba6fea2d72a3,47,2022-02-12_14h46.55.612,lexical_decision_task_DD_L3,2021.2.3,Win32,59.96282305,,,,,,,,,,,0.9016,1,,,,,,,,,,,,,,,,,,,,,,,,0.528993098,-0.220833355,0,0,0,,,,,,,SNAKE,C,z,m,./images/SNAKE.png,,,,,,,,,,,,,,,,,,,,,z,1,0.9016,,,,,,,,0,21,21,124,1
,,,,,,,,,,,,,,,,,5fe82ba8ad8fba6fea2d72a3,47,2022-02-12_14h46.55.612,lexical_decision_task_DD_L3,2021.2.3,Win32,59.96282305,,,,,,,,,,,1.2935,0,,,,,,,,,,,,,,,,,,,,,,,,0.528993098,-0.220833355,0,0,0,,,,,,,KITTEN,LB,m,m,./images/KITTENLB.png,,,,,,,,,,,,,,,,,,,,,z,0,1.2935,,,,,,,,0,22,22,45,1
,,,,,,,,,,,,,,,,,5fe82ba8ad8fba6fea2d72a3,47,2022-02-12_14h46.55.612,lexical_decision_task_DD_L3,2021.2.3,Win32,59.96282305,,,,,,,,,,,1.4691,1,,,,,,,,,,,,,,,,,,,,,,,,0.528993098,-0.220833355,0,0,0,,,,,,,BERRY,HB,m,m,./images/BERRYHB.png,,,,,,,,,,,,,,,,,,,,,m,1,1.4691,,,,,,,,0,23,23,47,1
,,,,,,,,,,,,,,,,,5fe82ba8ad8fba6fea2d72a3,47,2022-02-12_14h46.55.612,lexical_decision_task_DD_L3,2021.2.3,Win32,59.96282305,,,,,,,,,,,0.734,1,,,,,,,,,,,,,,,,,,,,,,,,0.528993098,-0.220833355,0,0,0,,,,,,,BANANA,C,z,m,./images/BANANA.png,,,,,,,,,,,,,,,,,,,,,z,1,0.734,,,,,,,,0,24,24,154,1
,,,,,,,,,,,,,,,,,5fe82ba8ad8fba6fea2d72a3,47,2022-02-12_14h46.55.612,lexical_decision_task_DD_L3,2021.2.3,Win32,59.96282305,,,,,,,,,,,0.7342,1,,,,,,,,,,,,,,,,,,,,,,,,0.528993098,-0.220833355,0,0,0,,,,,,,MOSQUE,C,m,m,./images/MOSQUE.png,,,,,,,,,,,,,,,,,,,,,m,1,0.7342,,,,,,,,0,25,25,43,1
,,,,,,,,,,,,,,,,,5fe82ba8ad8fba6fea2d72a3,47,2022-02-12_14h46.55.612,lexical_decision_task_DD_L3,2021.2.3,Win32,59.96282305,,,,,,,,,,,0.6747,1,,,,,,,,,,,,,,,,,,,,,,,,0.528993098,-0.220833355,0,0,0,,,,,,,PIMPLE,HB,m,m,./images/PIMPLEHB.png,,,,,,,,,,,,,,,,,,,,,m,1,0.6747,,,,,,,,0,26,26,71,1
,,,,,,,,,,,,,,,,,5fe82ba8ad8fba6fea2d72a3,47,2022-02-12_14h46.55.612,lexical_decision_task_DD_L3,2021.2.3,Win32,59.96282305,,,,,,,,,,,1.3018,0,,,,,,,,,,,,,,,,,,,,,,,,0.528993098,-0.220833355,0,0,0,,,,,,,MUFFIN,C,m,m,./images/MUFFIN.png,,,,,,,,,,,,,,,,,,,,,z,0,1.3018,,,,,,,,0,27,27,55,1
,,,,,,,,,,,,,,,,,5fe82ba8ad8fba6fea2d72a3,47,2022-02-12_14h46.55.612,lexical_decision_task_DD_L3,2021.2.3,Win32,59.96282305,,,,,,,,,,,0.8514,1,,,,,,,,,,,,,,,,,,,,,,,,0.528993098,-0.220833355,0,0,0,,,,,,,HEATER,HB,z,m,./images/HEATERHB.png,,,,,,,,,,,,,,,,,,,,,z,1,0.8514,,,,,,,,0,28,28,140,1
,,,,,,,,,,,,,,,,,5fe82ba8ad8fba6fea2d72a3,47,2022-02-12_14h46.55.612,lexical_decision_task_DD_L3,2021.2.3,Win32,59.96282305,,,,,,,,,,,0.5208,0,,,,,,,,,,,,,,,,,,,,,,,,0.528993098,-0.221527799,1,0,0,,,,,,,BAKER,LB,z,m,./images/BAKERLB.png,,,,,,,,,,,,,,,,,,,,,,0,,0.528993098,-0.221527799,1,0,0,0.5208,button_right_test,0,29,29,147,1
,,,,,,,,,,,,,,,,,5fe82ba8ad8fba6fea2d72a3,47,2022-02-12_14h46.55.612,lexical_decision_task_DD_L3,2021.2.3,Win32,59.96282305,,,,,,,,,,,0.702,1,,,,,,,,,,,,,,,,,,,,,,,,0.528993098,-0.221527799,0,0,0,,,,,,,BONNET,HB,m,m,./images/BONNETHB.png,,,,,,,,,,,,,,,,,,,,,m,1,0.702,,,,,,,,0,30,30,11,1
,,,,,,,,,,,,,,,,,5fe82ba8ad8fba6fea2d72a3,47,2022-02-12_14h46.55.612,lexical_decision_task_DD_L3,2021.2.3,Win32,59.96282305,,,,,,,,,,,0.7349,1,,,,,,,,,,,,,,,,,,,,,,,,0.528993098,-0.221527799,0,0,0,,,,,,,GARDEN,C,z,m,./images/GARDEN.png,,,,,,,,,,,,,,,,,,,,,z,1,0.7349,,,,,,,,0,31,31,94,1
,,,,,,,,,,,,,,,,,5fe82ba8ad8fba6fea2d72a3,47,2022-02-12_14h46.55.612,lexical_decision_task_DD_L3,2021.2.3,Win32,59.96282305,,,,,,,,,,,0.8216,1,,,,,,,,,,,,,,,,,,,,,,,,0.528993098,-0.221527799,0,0,0,,,,,,,MIRROR,LB,m,m,./images/MIRRORLB.png,,,,,,,,,,,,,,,,,,,,,m,1,0.8216,,,,,,,,0,32,32,63,1
,,,,,,,,,,,,,,,,,5fe82ba8ad8fba6fea2d72a3,47,2022-02-12_14h46.55.612,lexical_decision_task_DD_L3,2021.2.3,Win32,59.96282305,,,,,,,,,,,0.8742,1,,,,,,,,,,,,,,,,,,,,,,,,0.528993098,-0.221527799,0,0,0,,,,,,,SMOKER,HB,m,m,./images/SMOKERHB.png,,,,,,,,,,,,,,,,,,,,,m,1,0.8742,,,,,,,,0,33,33,26,1
,,,,,,,,,,,,,,,,,5fe82ba8ad8fba6fea2d72a3,47,2022-02-12_14h46.55.612,lexical_decision_task_DD_L3,2021.2.3,Win32,59.96282305,,,,,,,,,,,0.9095,1,,,,,,,,,,,,,,,,,,,,,,,,0.528993098,-0.221527799,0,0,0,,,,,,,BUBBLE,HB,z,m,./images/BUBBLEHB.png,,,,,,,,,,,,,,,,,,,,,z,1,0.9095,,,,,,,,0,34,34,155,1
,,,,,,,,,,,,,,,,,5fe82ba8ad8fba6fea2d72a3,47,2022-02-12_14h46.55.612,lexical_decision_task_DD_L3,2021.2.3,Win32,59.96282305,,,,,,,,,,,1.1183,1,,,,,,,,,,,,,,,,,,,,,,,,0.528993098,-0.221527799,0,0,0,,,,,,,BUNNY,C,z,m,./images/BUNNY.png,,,,,,,,,,,,,,,,,,,,,z,1,1.1183,,,,,,,,0,35,35,97,1
,,,,,,,,,,,,,,,,,5fe82ba8ad8fba6fea2d72a3,47,2022-02-12_14h46.55.612,lexical_decision_task_DD_L3,2021.2.3,Win32,59.96282305,,,,,,,,,,,1.0364,1,,,,,,,,,,,,,,,,,,,,,,,,0.528993098,-0.221527799,0,0,0,,,,,,,BOXER,C,z,m,./images/BOXER.png,,,,,,,,,,,,,,,,,,,,,z,1,1.0364,,,,,,,,0,36,36,88,1
,,,,,,,,,,,,,,,,,5fe82ba8ad8fba6fea2d72a3,47,2022-02-12_14h46.55.612,lexical_decision_task_DD_L3,2021.2.3,Win32,59.96282305,,,,,,,,,,,0.7016,1,,,,,,,,,,,,,,,,,,,,,,,,0.528993098,-0.221527799,0,0,0,,,,,,,CURRY,LB,z,m,./images/CURRYLB.png,,,,,,,,,,,,,,,,,,,,,z,1,0.7016,,,,,,,,0,37,37,144,1
,,,,,,,,,,,,,,,,,5fe82ba8ad8fba6fea2d72a3,47,2022-02-12_14h46.55.612,lexical_decision_task_DD_L3,2021.2.3,Win32,59.96282305,,,,,,,,,,,0.7223,1,,,,,,,,,,,,,,,,,,,,,,,,0.528993098,-0.221527799,0,0,0,,,,,,,PASTA,HB,m,m,./images/PASTAHB.png,,,,,,,,,,,,,,,,,,,,,m,1,0.7223,,,,,,,,0,38,38,5,1
,,,,,,,,,,,,,,,,,5fe82ba8ad8fba6fea2d72a3,47,2022-02-12_14h46.55.612,lexical_decision_task_DD_L3,2021.2.3,Win32,59.96282305,,,,,,,,,,,0.6675,1,,,,,,,,,,,,,,,,,,,,,,,,0.528993098,-0.221527799,0,0,0,,,,,,,PURSE,HB,m,m,./images/PURSEHB.png,,,,,,,,,,,,,,,,,,,,,m,1,0.6675,,,,,,,,0,39,39,62,1
,,,,,,,,,,,,,,,,,5fe82ba8ad8fba6fea2d72a3,47,2022-02-12_14h46.55.612,lexical_decision_task_DD_L3,2021.2.3,Win32,59.96282305,,,,,,,,,,,0.9369,1,,,,,,,,,,,,,,,,,,,,,,,,0.528993098,-0.221527799,0,0,0,,,,,,,PLANK,C,m,m,./images/PLANK.png,,,,,,,,,,,,,,,,,,,,,m,1,0.9369,,,,,,,,0,40,40,1,1
,,,,,,,,,,,,,,,,,5fe82ba8ad8fba6fea2d72a3,47,2022-02-12_14h46.55.612,lexical_decision_task_DD_L3,2021.2.3,Win32,59.96282305,,,,,,,,,,,1.052,1,,,,,,,,,,,,,,,,,,,,,,,,0.528993098,-0.221527799,0,0,0,space,,,,,,CHAIN,LB,z,m,./images/CHAINLB.png,1.7522,,,,,,,,,,,,,,,,,,,,z,1,1.052,,,,,,,,0,41,41,126,1
,,,,,,,,,,,,,,,,,5fe82ba8ad8fba6fea2d72a3,47,2022-02-12_14h46.55.612,lexical_decision_task_DD_L3,2021.2.3,Win32,59.96282305,,,,,,,,,,,0.8817,1,,,,,,,,,,,,,,,,,,,,,,,,0.528993098,-0.221527799,0,0,0,,,,,,,STORM,LB,m,m,./images/STORMLB.png,,,,,,,,,,,,,,,,,,,,,m,1,0.8817,,,,,,,,0,42,42,30,1
,,,,,,,,,,,,,,,,,5fe82ba8ad8fba6fea2d72a3,47,2022-02-12_14h46.55.612,lexical_decision_task_DD_L3,2021.2.3,Win32,59.96282305,,,,,,,,,,,0.6992,1,,,,,,,,,,,,,,,,,,,,,,,,0.528993098,-0.221527799,0,0,0,,,,,,,FOLDER,LB,m,m,./images/FOLDERLB.png,,,,,,,,,,,,,,,,,,,,,m,1,0.6992,,,,,,,,0,43,43,42,1
,,,,,,,,,,,,,,,,,5fe82ba8ad8fba6fea2d72a3,47,2022-02-12_14h46.55.612,lexical_decision_task_DD_L3,2021.2.3,Win32,59.96282305,,,,,,,,,,,0.6243,1,,,,,,,,,,,,,,,,,,,,,,,,0.528993098,-0.221527799,0,0,0,,,,,,,WEASEL,HB,m,m,./images/WEASELHB.png,,,,,,,,,,,,,,,,,,,,,m,1,0.6243,,,,,,,,0,44,44,80,1
,,,,,,,,,,,,,,,,,5fe82ba8ad8fba6fea2d72a3,47,2022-02-12_14h46.55.612,lexical_decision_task_DD_L3,2021.2.3,Win32,59.96282305,,,,,,,,,,,0.7685,1,,,,,,,,,,,,,,,,,,,,,,,,0.528993098,-0.221527799,0,0,0,,,,,,,FARMER,HB,m,m,./images/FARMERHB.png,,,,,,,,,,,,,,,,,,,,,m,1,0.7685,,,,,,,,0,45,45,65,1
,,,,,,,,,,,,,,,,,5fe82ba8ad8fba6fea2d72a3,47,2022-02-12_14h46.55.612,lexical_decision_task_DD_L3,2021.2.3,Win32,59.96282305,,,,,,,,,,,0.7318,1,,,,,,,,,,,,,,,,,,,,,,,,0.528993098,-0.221527799,0,0,0,,,,,,,MALLET,HB,m,m,./images/MALLETHB.png,,,,,,,,,,,,,,,,,,,,,m,1,0.7318,,,,,,,,0,46,46,50,1
,,,,,,,,,,,,,,,,,5fe82ba8ad8fba6fea2d72a3,47,2022-02-12_14h46.55.612,lexical_decision_task_DD_L3,2021.2.3,Win32,59.96282305,,,,,,,,,,,1.0859,0,,,,,,,,,,,,,,,,,,,,,,,,0.528993098,-0.221527799,0,0,0,,,,,,,GRANNY,HB,z,m,./images/GRANNYHB.png,,,,,,,,,,,,,,,,,,,,,m,0,1.0859,,,,,,,,0,47,47,104,1
,,,,,,,,,,,,,,,,,5fe82ba8ad8fba6fea2d72a3,47,2022-02-12_14h46.55.612,lexical_decision_task_DD_L3,2021.2.3,Win32,59.96282305,,,,,,,,,,,0.6978,1,,,,,,,,,,,,,,,,,,,,,,,,0.528993098,-0.221527799,0,0,0,,,,,,,BARREL,HB,m,m,./images/BARRELHB.png,,,,,,,,,,,,,,,,,,,,,m,1,0.6978,,,,,,,,0,48,48,32,1
,,,,,,,,,,,,,,,,,5fe82ba8ad8fba6fea2d72a3,47,2022-02-12_14h46.55.612,lexical_decision_task_DD_L3,2021.2.3,Win32,59.96282305,,,,,,,,,,,1.0173,1,,,,,,,,,,,,,,,,,,,,,,,,0.528993098,-0.221527799,0,0,0,,,,,,,WALRUS,HB,m,m,./images/WALRUSHB.png,,,,,,,,,,,,,,,,,,,,,m,1,1.0173,,,,,,,,0,49,49,23,1
,,,,,,,,,,,,,,,,,5fe82ba8ad8fba6fea2d72a3,47,2022-02-12_14h46.55.612,lexical_decision_task_DD_L3,2021.2.3,Win32,59.96282305,,,,,,,,,,,0.6579,1,,,,,,,,,,,,,,,,,,,,,,,,0.528993098,-0.221527799,0,0,0,,,,,,,FALCON,C,m,m,./images/FALCON.png,,,,,,,,,,,,,,,,,,,,,m,1,0.6579,,,,,,,,0,50,50,28,1
,,,,,,,,,,,,,,,,,5fe82ba8ad8fba6fea2d72a3,47,2022-02-12_14h46.55.612,lexical_decision_task_DD_L3,2021.2.3,Win32,59.96282305,,,,,,,,,,,1.1324,0,,,,,,,,,,,,,,,,,,,,,,,,0.528993098,-0.221527799,0,0,0,,,,,,,FLASK,LB,z,m,./images/FLASKLB.png,,,,,,,,,,,,,,,,,,,,,m,0,1.1324,,,,,,,,0,51,51,156,1
,,,,,,,,,,,,,,,,,5fe82ba8ad8fba6fea2d72a3,47,2022-02-12_14h46.55.612,lexical_decision_task_DD_L3,2021.2.3,Win32,59.96282305,,,,,,,,,,,0.8218,1,,,,,,,,,,,,,,,,,,,,,,,,0.528993098,-0.221527799,0,0,0,,,,,,,PLANET,HB,z,m,./images/PLANETHB.png,,,,,,,,,,,,,,,,,,,,,z,1,0.8218,,,,,,,,0,52,52,164,1
,,,,,,,,,,,,,,,,,5fe82ba8ad8fba6fea2d72a3,47,2022-02-12_14h46.55.612,lexical_decision_task_DD_L3,2021.2.3,Win32,59.96282305,,,,,,,,,,,0.9341,1,,,,,,,,,,,,,,,,,,,,,,,,0.528993098,-0.221527799,0,0,0,,,,,,,BROOM,LB,z,m,./images/BROOMLB.png,,,,,,,,,,,,,,,,,,,,,z,1,0.9341,,,,,,,,0,53,53,162,1
,,,,,,,,,,,,,,,,,5fe82ba8ad8fba6fea2d72a3,47,2022-02-12_14h46.55.612,lexical_decision_task_DD_L3,2021.2.3,Win32,59.96282305,,,,,,,,,,,0.7863,1,,,,,,,,,,,,,,,,,,,,,,,,0.528993098,-0.221527799,0,0,0,,,,,,,MOOSE,LB,m,m,./images/MOOSELB.png,,,,,,,,,,,,,,,,,,,,,m,1,0.7863,,,,,,,,0,54,54,57,1
,,,,,,,,,,,,,,,,,5fe82ba8ad8fba6fea2d72a3,47,2022-02-12_14h46.55.612,lexical_decision_task_DD_L3,2021.2.3,Win32,59.96282305,,,,,,,,,,,0.6736,1,,,,,,,,,,,,,,,,,,,,,,,,0.528993098,-0.221527799,0,0,0,,,,,,,STRING,HB,m,m,./images/STRINGHB.png,,,,,,,,,,,,,,,,,,,,,m,1,0.6736,,,,,,,,0,55,55,41,1
,,,,,,,,,,,,,,,,,5fe82ba8ad8fba6fea2d72a3,47,2022-02-12_14h46.55.612,lexical_decision_task_DD_L3,2021.2.3,Win32,59.96282305,,,,,,,,,,,0.7929,1,,,,,,,,,,,,,,,,,,,,,,,,0.528993098,-0.221527799,0,0,0,,,,,,,PARADE,HB,z,m,./images/PARADEHB.png,,,,,,,,,,,,,,,,,,,,,z,1,0.7929,,,,,,,,0,56,56,101,1
,,,,,,,,,,,,,,,,,5fe82ba8ad8fba6fea2d72a3,47,2022-02-12_14h46.55.612,lexical_decision_task_DD_L3,2021.2.3,Win32,59.96282305,,,,,,,,,,,0.9836,1,,,,,,,,,,,,,,,,,,,,,,,,0.528993098,-0.221527799,0,0,0,,,,,,,WHEEL,HB,z,m,./images/WHEELHB.png,,,,,,,,,,,,,,,,,,,,,z,1,0.9836,,,,,,,,0,57,57,161,1
,,,,,,,,,,,,,,,,,5fe82ba8ad8fba6fea2d72a3,47,2022-02-12_14h46.55.612,lexical_decision_task_DD_L3,2021.2.3,Win32,59.96282305,,,,,,,,,,,0.6659,0,,,,,,,,,,,,,,,,,,,,,,,,0.528993098,-0.221527799,0,0,0,,,,,,,STEAK,C,z,m,./images/STEAK.png,,,,,,,,,,,,,,,,,,,,,m,0,0.6659,,,,,,,,0,58,58,115,1
,,,,,,,,,,,,,,,,,5fe82ba8ad8fba6fea2d72a3,47,2022-02-12_14h46.55.612,lexical_decision_task_DD_L3,2021.2.3,Win32,59.96282305,,,,,,,,,,,0.7472,1,,,,,,,,,,,,,,,,,,,,,,,,0.528993098,-0.221527799,0,0,0,,,,,,,SKIING,HB,m,m,./images/SKIINGHB.png,,,,,,,,,,,,,,,,,,,,,m,1,0.7472,,,,,,,,0,59,59,17,1
,,,,,,,,,,,,,,,,,5fe82ba8ad8fba6fea2d72a3,47,2022-02-12_14h46.55.612,lexical_decision_task_DD_L3,2021.2.3,Win32,59.96282305,,,,,,,,,,,1.0158,1,,,,,,,,,,,,,,,,,,,,,,,,0.528993098,-0.221527799,0,0,0,,,,,,,MUSCLE,C,m,m,./images/MUSCLE.png,,,,,,,,,,,,,,,,,,,,,m,1,1.0158,,,,,,,,0,60,60,4,1
,,,,,,,,,,,,,,,,,5fe82ba8ad8fba6fea2d72a3,47,2022-02-12_14h46.55.612,lexical_decision_task_DD_L3,2021.2.3,Win32,59.96282305,,,,,,,,,,,0.6133,1,,,,,,,,,,,,,,,,,,,,,,,,0.528993098,-0.221527799,0,0,0,,,,,,,BANNER,C,m,m,./images/BANNER.png,,,,,,,,,,,,,,,,,,,,,m,1,0.6133,,,,,,,,0,61,61,52,1
,,,,,,,,,,,,,,,,,5fe82ba8ad8fba6fea2d72a3,47,2022-02-12_14h46.55.612,lexical_decision_task_DD_L3,2021.2.3,Win32,59.96282305,,,,,,,,,,,0.6501,1,,,,,,,,,,,,,,,,,,,,,,,,0.528993098,-0.221527799,0,0,0,,,,,,,DOUGH,C,m,m,./images/DOUGH.png,,,,,,,,,,,,,,,,,,,,,m,1,0.6501,,,,,,,,0,62,62,19,1
,,,,,,,,,,,,,,,,,5fe82ba8ad8fba6fea2d72a3,47,2022-02-12_14h46.55.612,lexical_decision_task_DD_L3,2021.2.3,Win32,59.96282305,,,,,,,,,,,0.6474,1,,,,,,,,,,,,,,,,,,,,,,,,0.528993098,-0.221527799,0,0,0,,,,,,,SAILOR,C,m,m,./images/SAILOR.png,,,,,,,,,,,,,,,,,,,,,m,1,0.6474,,,,,,,,0,63,63,67,1
,,,,,,,,,,,,,,,,,5fe82ba8ad8fba6fea2d72a3,47,2022-02-12_14h46.55.612,lexical_decision_task_DD_L3,2021.2.3,Win32,59.96282305,,,,,,,,,,,0.7066,1,,,,,,,,,,,,,,,,,,,,,,,,0.528993098,-0.221527799,0,0,0,,,,,,,RHINO,LB,m,m,./images/RHINOLB.png,,,,,,,,,,,,,,,,,,,,,m,1,0.7066,,,,,,,,0,64,64,9,1
,,,,,,,,,,,,,,,,,5fe82ba8ad8fba6fea2d72a3,47,2022-02-12_14h46.55.612,lexical_decision_task_DD_L3,2021.2.3,Win32,59.96282305,,,,,,,,,,,0.7499,0,,,,,,,,,,,,,,,,,,,,,,,,0.528993098,-0.221527799,0,0,0,,,,,,,COLLAR,LB,z,m,./images/COLLARLB.png,,,,,,,,,,,,,,,,,,,,,m,0,0.7499,,,,,,,,0,65,65,99,1
,,,,,,,,,,,,,,,,,5fe82ba8ad8fba6fea2d72a3,47,2022-02-12_14h46.55.612,lexical_decision_task_DD_L3,2021.2.3,Win32,59.96282305,,,,,,,,,,,0.6385,1,,,,,,,,,,,,,,,,,,,,,,,,0.528993098,-0.221527799,0,0,0,,,,,,,LIZARD,HB,m,m,./images/LIZARDHB.png,,,,,,,,,,,,,,,,,,,,,m,1,0.6385,,,,,,,,0,66,66,44,1
,,,,,,,,,,,,,,,,,5fe82ba8ad8fba6fea2d72a3,47,2022-02-12_14h46.55.612,lexical_decision_task_DD_L3,2021.2.3,Win32,59.96282305,,,,,,,,,,,0.7358,1,,,,,,,,,,,,,,,,,,,,,,,,0.528993098,-0.221527799,0,0,0,,,,,,,LLAMA,HB,z,m,./images/LLAMAHB.png,,,,,,,,,,,,,,,,,,,,,z,1,0.7358,,,,,,,,0,67,67,119,1
,,,,,,,,,,,,,,,,,5fe82ba8ad8fba6fea2d72a3,47,2022-02-12_14h46.55.612,lexical_decision_task_DD_L3,2021.2.3,Win32,59.96282305,,,,,,,,,,,0.8831,1,,,,,,,,,,,,,,,,,,,,,,,,0.528993098,-0.221527799,0,0,0,,,,,,,CANDLE,C,m,m,./images/CANDLE.png,,,,,,,,,,,,,,,,,,,,,m,1,0.8831,,,,,,,,0,68,68,61,1
,,,,,,,,,,,,,,,,,5fe82ba8ad8fba6fea2d72a3,47,2022-02-12_14h46.55.612,lexical_decision_task_DD_L3,2021.2.3,Win32,59.96282305,,,,,,,,,,,0.7863,1,,,,,,,,,,,,,,,,,,,,,,,,0.528993098,-0.221527799,0,0,0,,,,,,,BURIAL,HB,m,m,./images/BURIALHB.png,,,,,,,,,,,,,,,,,,,,,m,1,0.7863,,,,,,,,0,69,69,59,1
,,,,,,,,,,,,,,,,,5fe82ba8ad8fba6fea2d72a3,47,2022-02-12_14h46.55.612,lexical_decision_task_DD_L3,2021.2.3,Win32,59.96282305,,,,,,,,,,,0.7164,1,,,,,,,,,,,,,,,,,,,,,,,,0.528993098,-0.221527799,0,0,0,,,,,,,TORCH,HB,m,m,./images/TORCHHB.png,,,,,,,,,,,,,,,,,,,,,m,1,0.7164,,,,,,,,0,70,70,68,1
,,,,,,,,,,,,,,,,,5fe82ba8ad8fba6fea2d72a3,47,2022-02-12_14h46.55.612,lexical_decision_task_DD_L3,2021.2.3,Win32,59.96282305,,,,,,,,,,,0.937,1,,,,,,,,,,,,,,,,,,,,,,,,0.528993098,-0.221527799,0,0,0,,,,,,,CRATER,LB,z,m,./images/CRATERLB.png,,,,,,,,,,,,,,,,,,,,,z,1,0.937,,,,,,,,0,71,71,87,1
,,,,,,,,,,,,,,,,,5fe82ba8ad8fba6fea2d72a3,47,2022-02-12_14h46.55.612,lexical_decision_task_DD_L3,2021.2.3,Win32,59.96282305,,,,,,,,,,,0.7848,1,,,,,,,,,,,,,,,,,,,,,,,,0.528993098,-0.221527799,0,0,0,,,,,,,POSTER,HB,z,m,./images/POSTERHB.png,,,,,,,,,,,,,,,,,,,,,z,1,0.7848,,,,,,,,0,72,72,137,1
,,,,,,,,,,,,,,,,,5fe82ba8ad8fba6fea2d72a3,47,2022-02-12_14h46.55.612,lexical_decision_task_DD_L3,2021.2.3,Win32,59.96282305,,,,,,,,,,,0.6193,0,,,,,,,,,,,,,,,,,,,,,,,,0.528993098,-0.221527799,0,0,0,,,,,,,POODLE,LB,m,m,./images/POODLELB.png,,,,,,,,,,,,,,,,,,,,,z,0,0.6193,,,,,,,,0,73,73,81,1
,,,,,,,,,,,,,,,,,5fe82ba8ad8fba6fea2d72a3,47,2022-02-12_14h46.55.612,lexical_decision_task_DD_L3,2021.2.3,Win32,59.96282305,,,,,,,,,,,0.8856,1,,,,,,,,,,,,,,,,,,,,,,,,0.528993098,-0.221527799,0,0,0,,,,,,,MAMMAL,HB,z,m,./images/MAMMALHB.png,,,,,,,,,,,,,,,,,,,,,z,1,0.8856,,,,,,,,0,74,74,146,1
,,,,,,,,,,,,,,,,,5fe82ba8ad8fba6fea2d72a3,47,2022-02-12_14h46.55.612,lexical_decision_task_DD_L3,2021.2.3,Win32,59.96282305,,,,,,,,,,,1.0512,1,,,,,,,,,,,,,,,,,,,,,,,,0.528993098,-0.221527799,0,0,0,,,,,,,WALNUT,LB,z,m,./images/WALNUTLB.png,,,,,,,,,,,,,,,,,,,,,z,1,1.0512,,,,,,,,0,75,75,84,1
,,,,,,,,,,,,,,,,,5fe82ba8ad8fba6fea2d72a3,47,2022-02-12_14h46.55.612,lexical_decision_task_DD_L3,2021.2.3,Win32,59.96282305,,,,,,,,,,,0.8175,1,,,,,,,,,,,,,,,,,,,,,,,,0.528993098,-0.221527799,0,0,0,,,,,,,SWING,C,m,m,./images/SWING.png,,,,,,,,,,,,,,,,,,,,,m,1,0.8175,,,,,,,,0,76,76,40,1
,,,,,,,,,,,,,,,,,5fe82ba8ad8fba6fea2d72a3,47,2022-02-12_14h46.55.612,lexical_decision_task_DD_L3,2021.2.3,Win32,59.96282305,,,,,,,,,,,1.4804,1,,,,,,,,,,,,,,,,,,,,,,,,0.528993098,-0.221527799,0,0,0,,,,,,,BOILER,LB,z,m,./images/BOILERLB.png,,,,,,,,,,,,,,,,,,,,,z,1,1.4804,,,,,,,,0,77,77,120,1
,,,,,,,,,,,,,,,,,5fe82ba8ad8fba6fea2d72a3,47,2022-02-12_14h46.55.612,lexical_decision_task_DD_L3,2021.2.3,Win32,59.96282305,,,,,,,,,,,0.8181,1,,,,,,,,,,,,,,,,,,,,,,,,0.528993098,-0.221527799,0,0,0,,,,,,,NOOSE,LB,m,m,./images/NOOSELB.png,,,,,,,,,,,,,,,,,,,,,m,1,0.8181,,,,,,,,0,78,78,72,1
,,,,,,,,,,,,,,,,,5fe82ba8ad8fba6fea2d72a3,47,2022-02-12_14h46.55.612,lexical_decision_task_DD_L3,2021.2.3,Win32,59.96282305,,,,,,,,,,,0.8072,0,,,,,,,,,,,,,,,,,,,,,,,,0.528993098,-0.221527799,0,0,0,,,,,,,BRUSH,HB,z,m,./images/BRUSHHB.png,,,,,,,,,,,,,,,,,,,,,m,0,0.8072,,,,,,,,0,79,79,143,1
,,,,,,,,,,,,,,,,,5fe82ba8ad8fba6fea2d72a3,47,2022-02-12_14h46.55.612,lexical_decision_task_DD_L3,2021.2.3,Win32,59.96282305,,,,,,,,,,,0.6483,1,,,,,,,,,,,,,,,,,,,,,,,,0.528993098,-0.221527799,0,0,0,,,,,,,PACKET,HB,m,m,./images/PACKETHB.png,,,,,,,,,,,,,,,,,,,,,m,1,0.6483,,,,,,,,0,80,80,56,1
,,,,,,,,,,,,,,,,,5fe82ba8ad8fba6fea2d72a3,47,2022-02-12_14h46.55.612,lexical_decision_task_DD_L3,2021.2.3,Win32,59.96282305,,,,,,,,,,,0.8004,1,,,,,,,,,,,,,,,,,,,,,,,,0.528993098,-0.221527799,0,0,0,,,,,,,ARTIST,C,z,m,./images/ARTIST.png,,,,,,,,,,,,,,,,,,,,,z,1,0.8004,,,,,,,,0,81,81,145,1
,,,,,,,,,,,,,,,,,5fe82ba8ad8fba6fea2d72a3,47,2022-02-12_14h46.55.612,lexical_decision_task_DD_L3,2021.2.3,Win32,59.96282305,,,,,,,,,,,0.6856,1,,,,,,,,,,,,,,,,,,,,,,,,0.528993098,-0.221527799,0,0,0,,,,,,,CRUST,C,m,m,./images/CRUST.png,,,,,,,,,,,,,,,,,,,,,m,1,0.6856,,,,,,,,0,82,82,79,1
,,,,,,,,,,,,,,,,,5fe82ba8ad8fba6fea2d72a3,47,2022-02-12_14h46.55.612,lexical_decision_task_DD_L3,2021.2.3,Win32,59.96282305,,,,,,,,,,,1.3854,1,,,,,,,,,,,,,,,,,,,,,,,,0.528993098,-0.221527799,0,0,0,space,,,,,,STOVE,HB,z,m,./images/STOVEHB.png,1.3202,,,,,,,,,,,,,,,,,,,,z,1,1.3854,,,,,,,,0,83,83,86,1
,,,,,,,,,,,,,,,,,5fe82ba8ad8fba6fea2d72a3,47,2022-02-12_14h46.55.612,lexical_decision_task_DD_L3,2021.2.3,Win32,59.96282305,,,,,,,,,,,0.9603,1,,,,,,,,,,,,,,,,,,,,,,,,0.528993098,-0.221527799,0,0,0,,,,,,,CANYON,C,m,m,./images/CANYON.png,,,,,,,,,,,,,,,,,,,,,m,1,0.9603,,,,,,,,0,84,84,34,1
,,,,,,,,,,,,,,,,,5fe82ba8ad8fba6fea2d72a3,47,2022-02-12_14h46.55.612,lexical_decision_task_DD_L3,2021.2.3,Win32,59.96282305,,,,,,,,,,,0.8685,1,,,,,,,,,,,,,,,,,,,,,,,,0.528993098,-0.221527799,0,0,0,,,,,,,SNACK,C,m,m,./images/SNACK.png,,,,,,,,,,,,,,,,,,,,,m,1,0.8685,,,,,,,,0,85,85,73,1
,,,,,,,,,,,,,,,,,5fe82ba8ad8fba6fea2d72a3,47,2022-02-12_14h46.55.612,lexical_decision_task_DD_L3,2021.2.3,Win32,59.96282305,,,,,,,,,,,0.9027,1,,,,,,,,,,,,,,,,,,,,,,,,0.528993098,-0.221527799,0,0,0,,,,,,,STATUE,LB,z,m,./images/STATUELB.png,,,,,,,,,,,,,,,,,,,,,z,1,0.9027,,,,,,,,0,86,86,150,1
,,,,,,,,,,,,,,,,,5fe82ba8ad8fba6fea2d72a3,47,2022-02-12_14h46.55.612,lexical_decision_task_DD_L3,2021.2.3,Win32,59.96282305,,,,,,,,,,,1.2167,1,,,,,,,,,,,,,,,,,,,,,,,,0.528993098,-0.221527799,0,0,0,,,,,,,HOCKEY,HB,z,m,./images/HOCKEYHB.png,,,,,,,,,,,,,,,,,,,,,z,1,1.2167,,,,,,,,0,87,87,116,1
,,,,,,,,,,,,,,,,,5fe82ba8ad8fba6fea2d72a3,47,2022-02-12_14h46.55.612,lexical_decision_task_DD_L3,2021.2.3,Win32,59.96282305,,,,,,,,,,,1.2029,0,,,,,,,,,,,,,,,,,,,,,,,,0.528993098,-0.221527799,0,0,0,,,,,,,HAMMER,LB,z,m,./images/HAMMERLB.png,,,,,,,,,,,,,,,,,,,,,m,0,1.2029,,,,,,,,0,88,88,159,1
,,,,,,,,,,,,,,,,,5fe82ba8ad8fba6fea2d72a3,47,2022-02-12_14h46.55.612,lexical_decision_task_DD_L3,2021.2.3,Win32,59.96282305,,,,,,,,,,,3.4791,1,,,,,,,,,,,,,,,,,,,,,,,,0.528993098,-0.221527799,0,0,0,,,,,,,STREAM,HB,z,m,./images/STREAMHB.png,,,,,,,,,,,,,,,,,,,,,z,1,3.4791,,,,,,,,0,89,89,125,1
,,,,,,,,,,,,,,,,,5fe82ba8ad8fba6fea2d72a3,47,2022-02-12_14h46.55.612,lexical_decision_task_DD_L3,2021.2.3,Win32,59.96282305,,,,,,,,,,,1.2209,1,,,,,,,,,,,,,,,,,,,,,,,,0.528993098,-0.221527799,0,0,0,,,,,,,TWINS,LB,m,m,./images/TWINSLB.png,,,,,,,,,,,,,,,,,,,,,m,1,1.2209,,,,,,,,0,90,90,60,1
,,,,,,,,,,,,,,,,,5fe82ba8ad8fba6fea2d72a3,47,2022-02-12_14h46.55.612,lexical_decision_task_DD_L3,2021.2.3,Win32,59.96282305,,,,,,,,,,,0.7196,1,,,,,,,,,,,,,,,,,,,,,,,,0.528993098,-0.221527799,0,0,0,,,,,,,SHELF,LB,m,m,./images/SHELFLB.png,,,,,,,,,,,,,,,,,,,,,m,1,0.7196,,,,,,,,0,91,91,39,1
,,,,,,,,,,,,,,,,,5fe82ba8ad8fba6fea2d72a3,47,2022-02-12_14h46.55.612,lexical_decision_task_DD_L3,2021.2.3,Win32,59.96282305,,,,,,,,,,,0.6514,1,,,,,,,,,,,,,,,,,,,,,,,,0.528993098,-0.221527799,0,0,0,,,,,,,LADDER,HB,m,m,./images/LADDERHB.png,,,,,,,,,,,,,,,,,,,,,m,1,0.6514,,,,,,,,0,92,92,38,1
,,,,,,,,,,,,,,,,,5fe82ba8ad8fba6fea2d72a3,47,2022-02-12_14h46.55.612,lexical_decision_task_DD_L3,2021.2.3,Win32,59.96282305,,,,,,,,,,,1.5176,0,,,,,,,,,,,,,,,,,,,,,,,,0.528993098,-0.221527799,0,0,0,,,,,,,SLOPE,LB,z,m,./images/SLOPELB.png,,,,,,,,,,,,,,,,,,,,,m,0,1.5176,,,,,,,,0,93,93,114,1
,,,,,,,,,,,,,,,,,5fe82ba8ad8fba6fea2d72a3,47,2022-02-12_14h46.55.612,lexical_decision_task_DD_L3,2021.2.3,Win32,59.96282305,,,,,,,,,,,0.9862,1,,,,,,,,,,,,,,,,,,,,,,,,0.528993098,-0.221527799,0,0,0,,,,,,,BIRTH,C,m,m,./images/BIRTH.png,,,,,,,,,,,,,,,,,,,,,m,1,0.9862,,,,,,,,0,94,94,37,1
,,,,,,,,,,,,,,,,,5fe82ba8ad8fba6fea2d72a3,47,2022-02-12_14h46.55.612,lexical_decision_task_DD_L3,2021.2.3,Win32,59.96282305,,,,,,,,,,,0.7093,1,,,,,,,,,,,,,,,,,,,,,,,,0.528993098,-0.221527799,0,0,0,,,,,,,WRIST,C,m,m,./images/WRIST.png,,,,,,,,,,,,,,,,,,,,,m,1,0.7093,,,,,,,,0,95,95,25,1
,,,,,,,,,,,,,,,,,5fe82ba8ad8fba6fea2d72a3,47,2022-02-12_14h46.55.612,lexical_decision_task_DD_L3,2021.2.3,Win32,59.96282305,,,,,,,,,,,0.8347,0,,,,,,,,,,,,,,,,,,,,,,,,0.528993098,-0.221527799,0,0,0,,,,,,,SQUARE,LB,m,m,./images/SQUARELB.png,,,,,,,,,,,,,,,,,,,,,z,0,0.8347,,,,,,,,0,96,96,6,1
,,,,,,,,,,,,,,,,,5fe82ba8ad8fba6fea2d72a3,47,2022-02-12_14h46.55.612,lexical_decision_task_DD_L3,2021.2.3,Win32,59.96282305,,,,,,,,,,,1.1679,0,,,,,,,,,,,,,,,,,,,,,,,,0.528993098,-0.221527799,0,0,0,,,,,,,JUNGLE,HB,m,m,./images/JUNGLEHB.png,,,,,,,,,,,,,,,,,,,,,z,0,1.1679,,,,,,,,0,97,97,83,1
,,,,,,,,,,,,,,,,,5fe82ba8ad8fba6fea2d72a3,47,2022-02-12_14h46.55.612,lexical_decision_task_DD_L3,2021.2.3,Win32,59.96282305,,,,,,,,,,,0.7174,1,,,,,,,,,,,,,,,,,,,,,,,,0.528993098,-0.221527799,0,0,0,,,,,,,QUILL,C,m,m,./images/QUILL.png,,,,,,,,,,,,,,,,,,,,,m,1,0.7174,,,,,,,,0,98,98,31,1
,,,,,,,,,,,,,,,,,5fe82ba8ad8fba6fea2d72a3,47,2022-02-12_14h46.55.612,lexical_decision_task_DD_L3,2021.2.3,Win32,59.96282305,,,,,,,,,,,1.1521,0,,,,,,,,,,,,,,,,,,,,,,,,0.528993098,-0.221527799,0,0,0,,,,,,,FERRY,LB,z,m,./images/FERRYLB.png,,,,,,,,,,,,,,,,,,,,,m,0,1.1521,,,,,,,,0,99,99,141,1
,,,,,,,,,,,,,,,,,5fe82ba8ad8fba6fea2d72a3,47,2022-02-12_14h46.55.612,lexical_decision_task_DD_L3,2021.2.3,Win32,59.96282305,,,,,,,,,,,0.6011,1,,,,,,,,,,,,,,,,,,,,,,,,0.528993098,-0.221527799,0,0,0,,,,,,,THROAT,LB,m,m,./images/THROATLB.png,,,,,,,,,,,,,,,,,,,,,m,1,0.6011,,,,,,,,0,100,100,36,1
,,,,,,,,,,,,,,,,,5fe82ba8ad8fba6fea2d72a3,47,2022-02-12_14h46.55.612,lexical_decision_task_DD_L3,2021.2.3,Win32,59.96282305,,,,,,,,,,,1.0107,1,,,,,,,,,,,,,,,,,,,,,,,,0.528993098,-0.221527799,0,0,0,,,,,,,PEARL,C,m,m,./images/PEARL.png,,,,,,,,,,,,,,,,,,,,,m,1,1.0107,,,,,,,,0,101,101,46,1
,,,,,,,,,,,,,,,,,5fe82ba8ad8fba6fea2d72a3,47,2022-02-12_14h46.55.612,lexical_decision_task_DD_L3,2021.2.3,Win32,59.96282305,,,,,,,,,,,0.7313,1,,,,,,,,,,,,,,,,,,,,,,,,0.528993098,-0.221527799,0,0,0,,,,,,,DESERT,C,z,m,./images/DESERT.png,,,,,,,,,,,,,,,,,,,,,z,1,0.7313,,,,,,,,0,102,102,136,1
,,,,,,,,,,,,,,,,,5fe82ba8ad8fba6fea2d72a3,47,2022-02-12_14h46.55.612,lexical_decision_task_DD_L3,2021.2.3,Win32,59.96282305,,,,,,,,,,,0.6501,1,,,,,,,,,,,,,,,,,,,,,,,,0.528993098,-0.221527799,0,0,0,,,,,,,COUCH,HB,m,m,./images/COUCHHB.png,,,,,,,,,,,,,,,,,,,,,m,1,0.6501,,,,,,,,0,103,103,77,1
,,,,,,,,,,,,,,,,,5fe82ba8ad8fba6fea2d72a3,47,2022-02-12_14h46.55.612,lexical_decision_task_DD_L3,2021.2.3,Win32,59.96282305,,,,,,,,,,,0.8178,1,,,,,,,,,,,,,,,,,,,,,,,,0.528993098,-0.221527799,0,0,0,,,,,,,PEACH,HB,m,m,./images/PEACHHB.png,,,,,,,,,,,,,,,,,,,,,m,1,0.8178,,,,,,,,0,104,104,35,1
,,,,,,,,,,,,,,,,,5fe82ba8ad8fba6fea2d72a3,47,2022-02-12_14h46.55.612,lexical_decision_task_DD_L3,2021.2.3,Win32,59.96282305,,,,,,,,,,,1.5875,0,,,,,,,,,,,,,,,,,,,,,,,,0.528993098,-0.221527799,0,0,0,,,,,,,WAGON,C,z,m,./images/WAGON.png,,,,,,,,,,,,,,,,,,,,,m,0,1.5875,,,,,,,,0,105,105,91,1
,,,,,,,,,,,,,,,,,5fe82ba8ad8fba6fea2d72a3,47,2022-02-12_14h46.55.612,lexical_decision_task_DD_L3,2021.2.3,Win32,59.96282305,,,,,,,,,,,0.8325,1,,,,,,,,,,,,,,,,,,,,,,,,0.528993098,-0.221527799,0,0,0,,,,,,,ONION,LB,m,m,./images/ONIONLB.png,,,,,,,,,,,,,,,,,,,,,m,1,0.8325,,,,,,,,0,106,106,51,1
,,,,,,,,,,,,,,,,,5fe82ba8ad8fba6fea2d72a3,47,2022-02-12_14h46.55.612,lexical_decision_task_DD_L3,2021.2.3,Win32,59.96282305,,,,,,,,,,,0.6031,0,,,,,,,,,,,,,,,,,,,,,,,,0.528993098,-0.221527799,0,0,0,,,,,,,FENCE,HB,z,m,./images/FENCEHB.png,,,,,,,,,,,,,,,,,,,,,m,0,0.6031,,,,,,,,0,107,107,98,1
,,,,,,,,,,,,,,,,,5fe82ba8ad8fba6fea2d72a3,47,2022-02-12_14h46.55.612,lexical_decision_task_DD_L3,2021.2.3,Win32,59.96282305,,,,,,,,,,,1.4699,1,,,,,,,,,,,,,,,,,,,,,,,,0.528993098,-0.221527799,0,0,0,,,,,,,WHISKY,HB,z,m,./images/WHISKYHB.png,,,,,,,,,,,,,,,,,,,,,z,1,1.4699,,,,,,,,0,108,108,167,1
,,,,,,,,,,,,,,,,,5fe82ba8ad8fba6fea2d72a3,47,2022-02-12_14h46.55.612,lexical_decision_task_DD_L3,2021.2.3,Win32,59.96282305,,,,,,,,,,,0.6663,1,,,,,,,,,,,,,,,,,,,,,,,,0.528993098,-0.221527799,0,0,0,,,,,,,FINGER,LB,m,m,./images/FINGERLB.png,,,,,,,,,,,,,,,,,,,,,m,1,0.6663,,,,,,,,0,109,109,3,1
,,,,,,,,,,,,,,,,,5fe82ba8ad8fba6fea2d72a3,47,2022-02-12_14h46.55.612,lexical_decision_task_DD_L3,2021.2.3,Win32,59.96282305,,,,,,,,,,,1.1992,0,,,,,,,,,,,,,,,,,,,,,,,,0.528993098,-0.221527799,0,0,0,,,,,,,PEBBLE,C,z,m,./images/PEBBLE.png,,,,,,,,,,,,,,,,,,,,,m,0,1.1992,,,,,,,,0,110,110,166,1
,,,,,,,,,,,,,,,,,5fe82ba8ad8fba6fea2d72a3,47,2022-02-12_14h46.55.612,lexical_decision_task_DD_L3,2021.2.3,Win32,59.96282305,,,,,,,,,,,0.6553,1,,,,,,,,,,,,,,,,,,,,,,,,0.528993098,-0.221527799,0,0,0,,,,,,,CRADLE,HB,m,m,./images/CRADLEHB.png,,,,,,,,,,,,,,,,,,,,,m,1,0.6553,,,,,,,,0,111,111,20,1
,,,,,,,,,,,,,,,,,5fe82ba8ad8fba6fea2d72a3,47,2022-02-12_14h46.55.612,lexical_decision_task_DD_L3,2021.2.3,Win32,59.96282305,,,,,,,,,,,0.7852,1,,,,,,,,,,,,,,,,,,,,,,,,0.528993098,-0.221527799,0,0,0,,,,,,,TRIPOD,LB,m,m,./images/TRIPODLB.png,,,,,,,,,,,,,,,,,,,,,m,1,0.7852,,,,,,,,0,112,112,54,1
,,,,,,,,,,,,,,,,,5fe82ba8ad8fba6fea2d72a3,47,2022-02-12_14h46.55.612,lexical_decision_task_DD_L3,2021.2.3,Win32,59.96282305,,,,,,,,,,,0.7333,1,,,,,,,,,,,,,,,,,,,,,,,,0.528993098,-0.221527799,0,0,0,,,,,,,LITTER,LB,m,m,./images/LITTERLB.png,,,,,,,,,,,,,,,,,,,,,m,1,0.7333,,,,,,,,0,113,113,78,1
,,,,,,,,,,,,,,,,,5fe82ba8ad8fba6fea2d72a3,47,2022-02-12_14h46.55.612,lexical_decision_task_DD_L3,2021.2.3,Win32,59.96282305,,,,,,,,,,,0.7652,1,,,,,,,,,,,,,,,,,,,,,,,,0.528993098,-0.221527799,0,0,0,,,,,,,BRIDE,C,z,m,./images/BRIDE.png,,,,,,,,,,,,,,,,,,,,,z,1,0.7652,,,,,,,,0,114,114,148,1
,,,,,,,,,,,,,,,,,5fe82ba8ad8fba6fea2d72a3,47,2022-02-12_14h46.55.612,lexical_decision_task_DD_L3,2021.2.3,Win32,59.96282305,,,,,,,,,,,2.3154,0,,,,,,,,,,,,,,,,,,,,,,,,0.528993098,-0.221527799,0,0,0,,,,,,,CHALK,C,z,m,./images/CHALK.png,,,,,,,,,,,,,,,,,,,,,m,0,2.3154,,,,,,,,0,115,115,109,1
,,,,,,,,,,,,,,,,,5fe82ba8ad8fba6fea2d72a3,47,2022-02-12_14h46.55.612,lexical_decision_task_DD_L3,2021.2.3,Win32,59.96282305,,,,,,,,,,,0.9821,1,,,,,,,,,,,,,,,,,,,,,,,,0.528993098,-0.221527799,0,0,0,,,,,,,JAGUAR,LB,m,m,./images/JAGUARLB.png,,,,,,,,,,,,,,,,,,,,,m,1,0.9821,,,,,,,,0,116,116,18,1
,,,,,,,,,,,,,,,,,5fe82ba8ad8fba6fea2d72a3,47,2022-02-12_14h46.55.612,lexical_decision_task_DD_L3,2021.2.3,Win32,59.96282305,,,,,,,,,,,0.6312,0,,,,,,,,,,,,,,,,,,,,,,,,0.528993098,-0.221527799,0,0,0,,,,,,,ARROW,LB,z,m,./images/ARROWLB.png,,,,,,,,,,,,,,,,,,,,,m,0,0.6312,,,,,,,,0,117,117,153,1
,,,,,,,,,,,,,,,,,5fe82ba8ad8fba6fea2d72a3,47,2022-02-12_14h46.55.612,lexical_decision_task_DD_L3,2021.2.3,Win32,59.96282305,,,,,,,,,,,0.8205,1,,,,,,,,,,,,,,,,,,,,,,,,0.528993098,-0.221527799,0,0,0,,,,,,,RULER,C,z,m,./images/RULER.png,,,,,,,,,,,,,,,,,,,,,z,1,0.8205,,,,,,,,0,118,118,163,1
,,,,,,,,,,,,,,,,,5fe82ba8ad8fba6fea2d72a3,47,2022-02-12_14h46.55.612,lexical_decision_task_DD_L3,2021.2.3,Win32,59.96282305,,,,,,,,,,,0.9442,1,,,,,,,,,,,,,,,,,,,,,,,,0.528993098,-0.221527799,0,0,0,,,,,,,ENGINE,HB,z,m,./images/ENGINEHB.png,,,,,,,,,,,,,,,,,,,,,z,1,0.9442,,,,,,,,0,119,119,122,1
,,,,,,,,,,,,,,,,,5fe82ba8ad8fba6fea2d72a3,47,2022-02-12_14h46.55.612,lexical_decision_task_DD_L3,2021.2.3,Win32,59.96282305,,,,,,,,,,,1.0062,1,,,,,,,,,,,,,,,,,,,,,,,,0.528993098,-0.221527799,0,0,0,,,,,,,COOKER,LB,m,m,./images/COOKERLB.png,,,,,,,,,,,,,,,,,,,,,m,1,1.0062,,,,,,,,0,120,120,69,1
,,,,,,,,,,,,,,,,,5fe82ba8ad8fba6fea2d72a3,47,2022-02-12_14h46.55.612,lexical_decision_task_DD_L3,2021.2.3,Win32,59.96282305,,,,,,,,,,,0.7882,1,,,,,,,,,,,,,,,,,,,,,,,,0.528993098,-0.221527799,0,0,0,,,,,,,MEDAL,HB,z,m,./images/MEDALHB.png,,,,,,,,,,,,,,,,,,,,,z,1,0.7882,,,,,,,,0,121,121,95,1
,,,,,,,,,,,,,,,,,5fe82ba8ad8fba6fea2d72a3,47,2022-02-12_14h46.55.612,lexical_decision_task_DD_L3,2021.2.3,Win32,59.96282305,,,,,,,,,,,0.7326,1,,,,,,,,,,,,,,,,,,,,,,,,0.528993098,-0.221527799,0,0,0,,,,,,,SPINE,HB,z,m,./images/SPINEHB.png,,,,,,,,,,,,,,,,,,,,,z,1,0.7326,,,,,,,,0,122,122,149,1
,,,,,,,,,,,,,,,,,5fe82ba8ad8fba6fea2d72a3,47,2022-02-12_14h46.55.612,lexical_decision_task_DD_L3,2021.2.3,Win32,59.96282305,,,,,,,,,,,1.0816,0,,,,,,,,,,,,,,,,,,,,,,,,0.528993098,-0.221527799,0,0,0,,,,,,,CLOTH,HB,z,m,./images/CLOTHHB.png,,,,,,,,,,,,,,,,,,,,,m,0,1.0816,,,,,,,,0,123,123,107,1
,,,,,,,,,,,,,,,,,5fe82ba8ad8fba6fea2d72a3,47,2022-02-12_14h46.55.612,lexical_decision_task_DD_L3,2021.2.3,Win32,59.96282305,,,,,,,,,,,0.8174,0,,,,,,,,,,,,,,,,,,,,,,,,0.528993098,-0.221527799,0,0,0,,,,,,,BASKET,HB,z,m,./images/BASKETHB.png,,,,,,,,,,,,,,,,,,,,,m,0,0.8174,,,,,,,,0,124,124,128,1
,,,,,,,,,,,,,,,,,5fe82ba8ad8fba6fea2d72a3,47,2022-02-12_14h46.55.612,lexical_decision_task_DD_L3,2021.2.3,Win32,59.96282305,,,,,,,,,,,1.3745,1,,,,,,,,,,,,,,,,,,,,,,,,0.528993098,-0.221527799,0,0,0,space,,,,,,MOTOR,C,m,m,./images/MOTOR.png,1.2164,,,,,,,,,,,,,,,,,,,,m,1,1.3745,,,,,,,,0,125,125,13,1
,,,,,,,,,,,,,,,,,5fe82ba8ad8fba6fea2d72a3,47,2022-02-12_14h46.55.612,lexical_decision_task_DD_L3,2021.2.3,Win32,59.96282305,,,,,,,,,,,0.8867,0,,,,,,,,,,,,,,,,,,,,,,,,0.528993098,-0.221527799,0,0,0,,,,,,,ALLEY,C,z,m,./images/ALLEY.png,,,,,,,,,,,,,,,,,,,,,m,0,0.8867,,,,,,,,0,126,126,139,1
,,,,,,,,,,,,,,,,,5fe82ba8ad8fba6fea2d72a3,47,2022-02-12_14h46.55.612,lexical_decision_task_DD_L3,2021.2.3,Win32,59.96282305,,,,,,,,,,,0.6517,1,,,,,,,,,,,,,,,,,,,,,,,,0.528993098,-0.221527799,0,0,0,,,,,,,SWEAT,LB,m,m,./images/SWEATLB.png,,,,,,,,,,,,,,,,,,,,,m,1,0.6517,,,,,,,,0,127,127,66,1
,,,,,,,,,,,,,,,,,5fe82ba8ad8fba6fea2d72a3,47,2022-02-12_14h46.55.612,lexical_decision_task_DD_L3,2021.2.3,Win32,59.96282305,,,,,,,,,,,0.6719,0,,,,,,,,,,,,,,,,,,,,,,,,0.528993098,-0.221527799,0,0,0,,,,,,,STAIN,LB,z,m,./images/STAINLB.png,,,,,,,,,,,,,,,,,,,,,m,0,0.6719,,,,,,,,0,128,128,90,1
,,,,,,,,,,,,,,,,,5fe82ba8ad8fba6fea2d72a3,47,2022-02-12_14h46.55.612,lexical_decision_task_DD_L3,2021.2.3,Win32,59.96282305,,,,,,,,,,,0.6538,1,,,,,,,,,,,,,,,,,,,,,,,,0.528993098,-0.221527799,0,0,0,,,,,,,CEMENT,HB,m,m,./images/CEMENTHB.png,,,,,,,,,,,,,,,,,,,,,m,1,0.6538,,,,,,,,0,129,129,74,1
,,,,,,,,,,,,,,,,,5fe82ba8ad8fba6fea2d72a3,47,2022-02-12_14h46.55.612,lexical_decision_task_DD_L3,2021.2.3,Win32,59.96282305,,,,,,,,,,,0.6505,0,,,,,,,,,,,,,,,,,,,,,,,,0.528993098,-0.221527799,0,0,0,,,,,,,SPORT,LB,m,m,./images/SPORTLB.png,,,,,,,,,,,,,,,,,,,,,z,0,0.6505,,,,,,,,0,130,130,48,1
