key_resp.keys,key_resp.rt,instr_done_touch.x,instr_done_touch.y,instr_done_touch.leftButton,instr_done_touch.midButton,instr_done_touch.rightButton,instruction_pages.thisRepN,instruction_pages.thisTrialN,instruction_pages.thisN,instruction_pages.thisIndex,instruction_pages.ran,pageN,phase,instruct_text,has_image,instruct_image,participant,age,date,expName,psychopyVersion,OS,frameRate,response.keys,response.corr,response.rt,touch_resp.x,touch_resp.y,touch_resp.leftButton,touch_resp.midButton,touch_resp.rightButton,touch_resp.time,touch_resp.clicked_name,rt,corr,practrials.thisRepN,practrials.thisTrialN,practrials.thisN,practrials.thisIndex,practrials.ran,TrialID,Target,corrAns,end_of_practice_trials_pages.thisRepN,end_of_practice_trials_pages.thisTrialN,end_of_practice_trials_pages.thisN,end_of_practice_trials_pages.thisIndex,end_of_practice_trials_pages.ran,key_resp_2.keys,key_resp_2.corr,key_resp_2.rt,targ_click.x,targ_click.y,targ_click.leftButton,targ_click.midButton,targ_click.rightButton,targ_click.time,targ_click.clicked_name,break_done_touch.x,break_done_touch.y,break_done_touch.leftButton,break_done_touch.midButton,break_done_touch.rightButton,break_done_keyboard.keys,maintrials.thisRepN,maintrials.thisTrialN,maintrials.thisN,maintrials.thisIndex,maintrials.ran,string,blur,study,lex,stim_path,break_done_keyboard.rt,mouse_2.x,mouse_2.y,mouse_2.leftButton,mouse_2.midButton,mouse_2.rightButton,mouse_2.clicked_name,slider.response,slider.rt,trials.thisRepN,trials.thisTrialN,trials.thisN,trials.thisIndex,trials.ran,instr_done_touch.clicked_name,test_instructions.thisRepN,test_instructions.thisTrialN,test_instructions.thisN,test_instructions.thisIndex,test_instructions.ran,key_resp_3.keys,key_resp_3.corr,key_resp_3.rt,test_click.x,test_click.y,test_click.leftButton,test_click.midButton,test_click.rightButton,test_click.time,test_click.clicked_name,test_phase.thisRepN,test_phase.thisTrialN,test_phase.thisN,test_phase.thisIndex,test_phase.ran
space,20.7417,0.066666681,-0.389814828,0,0,0,0,0,0,0,1,1,instructions,"INSTRUCTIONS
At the start of each trial, look at the plus sign  (+) in the center of the screen.  This tells you that a trial is about to begin and where to look. Second, the plus sign will disappear and a string of letters will appear. Your task is to determine if the string of letters is a word or not. If the item is a word press the M key (on keyboard)  or touch the word button (phone/tablet).  If the item is not a word,  press the  Z key (on keyboard)  or touch the nonword button (on phone/tablet). 
Press the space bar or touch  continue.",0,,60301b6f654dbde372f01190,20,2022-02-12_15h44.41.552,lexical_decision_task_DD_L3,2021.2.3,Win32,59.99160118,,,,,,,,,,,,,,,,,,,,,,,,,,,,,,,,,,,,,,,,,,,,,,,,,,,,,,,,,,,,,,,,,,,,,,,,,,,,,,,,,,,,,,
space,5.7516,0.640740764,-0.08611112,0,0,0,0,1,1,1,1,2,instructions,"If your device has a keyboard, press the 'Z' key for nonwords and the 'M' key for words.





Press the space bar or touch the button below to continue.",0,keyboard-example.gif,60301b6f654dbde372f01190,20,2022-02-12_15h44.41.552,lexical_decision_task_DD_L3,2021.2.3,Win32,59.99160118,,,,,,,,,,,,,,,,,,,,,,,,,,,,,,,,,,,,,,,,,,,,,,,,,,,,,,,,,,,,,,,,,,,,,,,,,,,,,,,,,,,,,,
space,1.3909,0.640740764,-0.08611112,0,0,0,0,2,2,2,1,3,instructions,"If you are using a touchscreen only device, use the buttons on the screen. Do not use the mouse.





Press the space bar or touch the button below to continue.",0,touchscreen-example.gif,60301b6f654dbde372f01190,20,2022-02-12_15h44.41.552,lexical_decision_task_DD_L3,2021.2.3,Win32,59.99160118,,,,,,,,,,,,,,,,,,,,,,,,,,,,,,,,,,,,,,,,,,,,,,,,,,,,,,,,,,,,,,,,,,,,,,,,,,,,,,,,,,,,,,
space,11.9983,0.557407429,-0.478703718,0,0,0,0,3,3,3,1,4,instructions,"It is very important that you respond as quickly and accurately as possible, as each letter string will only be on the screen for two seconds. If you do not respond within this time, the message 'Too slow!' will be displayed and the experiment will progress to the next letter string. The first 20 trials will be practice trials and you will receive feedback on your answers. 

Press the space bar or touch the button below to start the practice trials.",0,,60301b6f654dbde372f01190,20,2022-02-12_15h44.41.552,lexical_decision_task_DD_L3,2021.2.3,Win32,59.99160118,,,,,,,,,,,,,,,,,,,,,,,,,,,,,,,,,,,,,,,,,,,,,,,,,,,,,,,,,,,,,,,,,,,,,,,,,,,,,,,,,,,,,,
,,,,,,,,,,,,,,,,,60301b6f654dbde372f01190,20,2022-02-12_15h44.41.552,lexical_decision_task_DD_L3,2021.2.3,Win32,59.99160118,m,1,1.1395,,,,,,,,1.1395,1,0,0,0,7,1,1001,VOLUME,m,,,,,,,,,,,,,,,,,,,,,,,,,,,,,,,,,,,,,,,,,,,,,,,,,,,,,,,,,,,,,,,,,,
,,,,,,,,,,,,,,,,,60301b6f654dbde372f01190,20,2022-02-12_15h44.41.552,lexical_decision_task_DD_L3,2021.2.3,Win32,59.99160118,z,1,0.9438,,,,,,,,0.9438,1,0,1,1,8,1,1001,ASLERT,z,,,,,,,,,,,,,,,,,,,,,,,,,,,,,,,,,,,,,,,,,,,,,,,,,,,,,,,,,,,,,,,,,,
,,,,,,,,,,,,,,,,,60301b6f654dbde372f01190,20,2022-02-12_15h44.41.552,lexical_decision_task_DD_L3,2021.2.3,Win32,59.99160118,z,1,0.7666,,,,,,,,0.7666,1,0,2,2,10,1,1001,INLADE,z,,,,,,,,,,,,,,,,,,,,,,,,,,,,,,,,,,,,,,,,,,,,,,,,,,,,,,,,,,,,,,,,,,
,,,,,,,,,,,,,,,,,60301b6f654dbde372f01190,20,2022-02-12_15h44.41.552,lexical_decision_task_DD_L3,2021.2.3,Win32,59.99160118,z,1,0.5649,,,,,,,,0.5649,1,0,3,3,13,1,1001,ROUPET,z,,,,,,,,,,,,,,,,,,,,,,,,,,,,,,,,,,,,,,,,,,,,,,,,,,,,,,,,,,,,,,,,,,
,,,,,,,,,,,,,,,,,60301b6f654dbde372f01190,20,2022-02-12_15h44.41.552,lexical_decision_task_DD_L3,2021.2.3,Win32,59.99160118,m,1,0.7712,,,,,,,,0.7712,1,0,4,4,0,1,1001,UTOPIA,m,,,,,,,,,,,,,,,,,,,,,,,,,,,,,,,,,,,,,,,,,,,,,,,,,,,,,,,,,,,,,,,,,,
,,,,,,,,,,,,,,,,,60301b6f654dbde372f01190,20,2022-02-12_15h44.41.552,lexical_decision_task_DD_L3,2021.2.3,Win32,59.99160118,z,1,0.8508,,,,,,,,0.8508,1,0,5,5,12,1,1001,SPRINY,z,,,,,,,,,,,,,,,,,,,,,,,,,,,,,,,,,,,,,,,,,,,,,,,,,,,,,,,,,,,,,,,,,,
,,,,,,,,,,,,,,,,,60301b6f654dbde372f01190,20,2022-02-12_15h44.41.552,lexical_decision_task_DD_L3,2021.2.3,Win32,59.99160118,m,1,0.6166,,,,,,,,0.6166,1,0,6,6,3,1,1001,MATRIX,m,,,,,,,,,,,,,,,,,,,,,,,,,,,,,,,,,,,,,,,,,,,,,,,,,,,,,,,,,,,,,,,,,,
,,,,,,,,,,,,,,,,,60301b6f654dbde372f01190,20,2022-02-12_15h44.41.552,lexical_decision_task_DD_L3,2021.2.3,Win32,59.99160118,z,1,0.6698,,,,,,,,0.6698,1,0,7,7,11,1,1001,RASHET,z,,,,,,,,,,,,,,,,,,,,,,,,,,,,,,,,,,,,,,,,,,,,,,,,,,,,,,,,,,,,,,,,,,
,,,,,,,,,,,,,,,,,60301b6f654dbde372f01190,20,2022-02-12_15h44.41.552,lexical_decision_task_DD_L3,2021.2.3,Win32,59.99160118,z,1,0.7298,,,,,,,,0.7298,1,0,8,8,9,1,1001,FARINY,z,,,,,,,,,,,,,,,,,,,,,,,,,,,,,,,,,,,,,,,,,,,,,,,,,,,,,,,,,,,,,,,,,,
,,,,,,,,,,,,,,,,,60301b6f654dbde372f01190,20,2022-02-12_15h44.41.552,lexical_decision_task_DD_L3,2021.2.3,Win32,59.99160118,m,1,0.7121,,,,,,,,0.7121,1,0,9,9,1,1,1001,ADJUST,m,,,,,,,,,,,,,,,,,,,,,,,,,,,,,,,,,,,,,,,,,,,,,,,,,,,,,,,,,,,,,,,,,,
,,,,,,,,,,,,,,,,,60301b6f654dbde372f01190,20,2022-02-12_15h44.41.552,lexical_decision_task_DD_L3,2021.2.3,Win32,59.99160118,z,1,0.6653,,,,,,,,0.6653,1,0,10,10,15,1,1001,WHAISE,z,,,,,,,,,,,,,,,,,,,,,,,,,,,,,,,,,,,,,,,,,,,,,,,,,,,,,,,,,,,,,,,,,,
,,,,,,,,,,,,,,,,,60301b6f654dbde372f01190,20,2022-02-12_15h44.41.552,lexical_decision_task_DD_L3,2021.2.3,Win32,59.99160118,m,1,0.7525,,,,,,,,0.7525,1,0,11,11,5,1,1001,OBTAIN,m,,,,,,,,,,,,,,,,,,,,,,,,,,,,,,,,,,,,,,,,,,,,,,,,,,,,,,,,,,,,,,,,,,
,,,,,,,,,,,,,,,,,60301b6f654dbde372f01190,20,2022-02-12_15h44.41.552,lexical_decision_task_DD_L3,2021.2.3,Win32,59.99160118,m,1,0.8492,,,,,,,,0.8492,1,0,12,12,2,1,1001,ALMOND,m,,,,,,,,,,,,,,,,,,,,,,,,,,,,,,,,,,,,,,,,,,,,,,,,,,,,,,,,,,,,,,,,,,
,,,,,,,,,,,,,,,,,60301b6f654dbde372f01190,20,2022-02-12_15h44.41.552,lexical_decision_task_DD_L3,2021.2.3,Win32,59.99160118,m,1,0.6608,,,,,,,,0.6608,1,0,13,13,4,1,1001,SQUEAK,m,,,,,,,,,,,,,,,,,,,,,,,,,,,,,,,,,,,,,,,,,,,,,,,,,,,,,,,,,,,,,,,,,,
,,,,,,,,,,,,,,,,,60301b6f654dbde372f01190,20,2022-02-12_15h44.41.552,lexical_decision_task_DD_L3,2021.2.3,Win32,59.99160118,z,1,0.6203,,,,,,,,0.6203,1,0,14,14,14,1,1001,THRALE,z,,,,,,,,,,,,,,,,,,,,,,,,,,,,,,,,,,,,,,,,,,,,,,,,,,,,,,,,,,,,,,,,,,
,,,,,,,,,,,,,,,,,60301b6f654dbde372f01190,20,2022-02-12_15h44.41.552,lexical_decision_task_DD_L3,2021.2.3,Win32,59.99160118,m,1,0.6137,,,,,,,,0.6137,1,0,15,15,6,1,1001,ZOMBIE,m,,,,,,,,,,,,,,,,,,,,,,,,,,,,,,,,,,,,,,,,,,,,,,,,,,,,,,,,,,,,,,,,,,
space,13.2687,0.887963102,0.5,0,0,0,,,,,,1,end_of_practice,"You have completed the practice trials. During the experimental trials, you will not receive feedback. 
Before you begin, please ensure that you are in a comfortable and quiet location and will not be disturbed for about 15 minutes, as we cannot use your data if you do not complete all the trials. 
 When you are ready to start the experimental trials, please press space or touch the button below.",,,60301b6f654dbde372f01190,20,2022-02-12_15h44.41.552,lexical_decision_task_DD_L3,2021.2.3,Win32,59.99160118,,,,,,,,,,,,,,,,,,,,,0,0,0,0,1,,,,,,,,,,,,,,,,,,,,,,,,,,,,,,,,,,,,,,,,,,,,,,,,,,,,,,,,,,,,,
,,,,,,,,,,,,,,,,,60301b6f654dbde372f01190,20,2022-02-12_15h44.41.552,lexical_decision_task_DD_L3,2021.2.3,Win32,59.99160118,,,,,,,,,,,0.665,1,,,,,,,,,,,,,,m,1,0.665,,,,,,,,0.887963102,0.5,0,0,0,,0,0,0,6,1,SQUARE,LB,old,m,./images/SQUARELB.png,,,,,,,,,,,,,,,,,,,,,,,,,,,,,,,,,,,
,,,,,,,,,,,,,,,,,60301b6f654dbde372f01190,20,2022-02-12_15h44.41.552,lexical_decision_task_DD_L3,2021.2.3,Win32,59.99160118,,,,,,,,,,,0.6508,1,,,,,,,,,,,,,,z,1,0.6508,,,,,,,,0.887963102,0.5,0,0,0,,0,1,1,146,1,MOOST,LB,old,z,./images/MOOSTLB.png,,,,,,,,,,,,,,,,,,,,,,,,,,,,,,,,,,,
,,,,,,,,,,,,,,,,,60301b6f654dbde372f01190,20,2022-02-12_15h44.41.552,lexical_decision_task_DD_L3,2021.2.3,Win32,59.99160118,,,,,,,,,,,0.5584,1,,,,,,,,,,,,,,z,1,0.5584,,,,,,,,0.887963102,0.5,0,0,0,,0,2,2,153,1,CLUPS,C,old,z,./images/CLUPS.png,,,,,,,,,,,,,,,,,,,,,,,,,,,,,,,,,,,
,,,,,,,,,,,,,,,,,60301b6f654dbde372f01190,20,2022-02-12_15h44.41.552,lexical_decision_task_DD_L3,2021.2.3,Win32,59.99160118,,,,,,,,,,,0.6135,1,,,,,,,,,,,,,,m,1,0.6135,,,,,,,,0.887963102,0.5,0,0,0,,0,3,3,21,1,KIDNEY,LB,old,m,./images/KIDNEYLB.png,,,,,,,,,,,,,,,,,,,,,,,,,,,,,,,,,,,
,,,,,,,,,,,,,,,,,60301b6f654dbde372f01190,20,2022-02-12_15h44.41.552,lexical_decision_task_DD_L3,2021.2.3,Win32,59.99160118,,,,,,,,,,,0.6137,1,,,,,,,,,,,,,,z,1,0.6137,,,,,,,,0.887963102,0.5,0,0,0,,0,4,4,116,1,BALGY,LB,old,z,./images/BALGYLB.png,,,,,,,,,,,,,,,,,,,,,,,,,,,,,,,,,,,
,,,,,,,,,,,,,,,,,60301b6f654dbde372f01190,20,2022-02-12_15h44.41.552,lexical_decision_task_DD_L3,2021.2.3,Win32,59.99160118,,,,,,,,,,,0.7095,1,,,,,,,,,,,,,,m,1,0.7095,,,,,,,,0.887963102,0.5,0,0,0,,0,5,5,71,1,PIMPLE,HB,old,m,./images/PIMPLEHB.png,,,,,,,,,,,,,,,,,,,,,,,,,,,,,,,,,,,
,,,,,,,,,,,,,,,,,60301b6f654dbde372f01190,20,2022-02-12_15h44.41.552,lexical_decision_task_DD_L3,2021.2.3,Win32,59.99160118,,,,,,,,,,,0.8696,1,,,,,,,,,,,,,,m,1,0.8696,,,,,,,,0.887963102,0.5,0,0,0,,0,6,6,61,1,CANDLE,C,old,m,./images/CANDLE.png,,,,,,,,,,,,,,,,,,,,,,,,,,,,,,,,,,,
,,,,,,,,,,,,,,,,,60301b6f654dbde372f01190,20,2022-02-12_15h44.41.552,lexical_decision_task_DD_L3,2021.2.3,Win32,59.99160118,,,,,,,,,,,0.6919,1,,,,,,,,,,,,,,z,1,0.6919,,,,,,,,0.887963102,0.5,0,0,0,,0,7,7,99,1,BACKY,C,old,z,./images/BACKY.png,,,,,,,,,,,,,,,,,,,,,,,,,,,,,,,,,,,
,,,,,,,,,,,,,,,,,60301b6f654dbde372f01190,20,2022-02-12_15h44.41.552,lexical_decision_task_DD_L3,2021.2.3,Win32,59.99160118,,,,,,,,,,,0.6511,1,,,,,,,,,,,,,,m,1,0.6511,,,,,,,,0.887963102,0.5,0,0,0,,0,8,8,62,1,PURSE,HB,old,m,./images/PURSEHB.png,,,,,,,,,,,,,,,,,,,,,,,,,,,,,,,,,,,
,,,,,,,,,,,,,,,,,60301b6f654dbde372f01190,20,2022-02-12_15h44.41.552,lexical_decision_task_DD_L3,2021.2.3,Win32,59.99160118,,,,,,,,,,,0.6166,1,,,,,,,,,,,,,,m,1,0.6166,,,,,,,,0.887963102,0.5,0,0,0,,0,9,9,50,1,MALLET,HB,old,m,./images/MALLETHB.png,,,,,,,,,,,,,,,,,,,,,,,,,,,,,,,,,,,
,,,,,,,,,,,,,,,,,60301b6f654dbde372f01190,20,2022-02-12_15h44.41.552,lexical_decision_task_DD_L3,2021.2.3,Win32,59.99160118,,,,,,,,,,,0.7617,0,,,,,,,,,,,,,,z,0,0.7617,,,,,,,,0.887963102,0.5,0,0,0,,0,10,10,72,1,NOOSE,LB,old,m,./images/NOOSELB.png,,,,,,,,,,,,,,,,,,,,,,,,,,,,,,,,,,,
,,,,,,,,,,,,,,,,,60301b6f654dbde372f01190,20,2022-02-12_15h44.41.552,lexical_decision_task_DD_L3,2021.2.3,Win32,59.99160118,,,,,,,,,,,0.8913,1,,,,,,,,,,,,,,m,1,0.8913,,,,,,,,0.887963102,0.5,0,0,0,,0,11,11,28,1,FALCON,C,old,m,./images/FALCON.png,,,,,,,,,,,,,,,,,,,,,,,,,,,,,,,,,,,
,,,,,,,,,,,,,,,,,60301b6f654dbde372f01190,20,2022-02-12_15h44.41.552,lexical_decision_task_DD_L3,2021.2.3,Win32,59.99160118,,,,,,,,,,,0.7959,1,,,,,,,,,,,,,,m,1,0.7959,,,,,,,,0.887963102,0.5,0,0,0,,0,12,12,67,1,SAILOR,C,old,m,./images/SAILOR.png,,,,,,,,,,,,,,,,,,,,,,,,,,,,,,,,,,,
,,,,,,,,,,,,,,,,,60301b6f654dbde372f01190,20,2022-02-12_15h44.41.552,lexical_decision_task_DD_L3,2021.2.3,Win32,59.99160118,,,,,,,,,,,0.7014,1,,,,,,,,,,,,,,m,1,0.7014,,,,,,,,0.887963102,0.5,0,0,0,,0,13,13,9,1,RHINO,LB,old,m,./images/RHINOLB.png,,,,,,,,,,,,,,,,,,,,,,,,,,,,,,,,,,,
,,,,,,,,,,,,,,,,,60301b6f654dbde372f01190,20,2022-02-12_15h44.41.552,lexical_decision_task_DD_L3,2021.2.3,Win32,59.99160118,,,,,,,,,,,0.7819,1,,,,,,,,,,,,,,z,1,0.7819,,,,,,,,0.887963102,0.5,0,0,0,,0,14,14,96,1,KEAMS,C,old,z,./images/KEAMS.png,,,,,,,,,,,,,,,,,,,,,,,,,,,,,,,,,,,
,,,,,,,,,,,,,,,,,60301b6f654dbde372f01190,20,2022-02-12_15h44.41.552,lexical_decision_task_DD_L3,2021.2.3,Win32,59.99160118,,,,,,,,,,,0.612,1,,,,,,,,,,,,,,m,1,0.612,,,,,,,,0.887963102,0.5,0,0,0,,0,15,15,53,1,CARPET,HB,old,m,./images/CARPETHB.png,,,,,,,,,,,,,,,,,,,,,,,,,,,,,,,,,,,
,,,,,,,,,,,,,,,,,60301b6f654dbde372f01190,20,2022-02-12_15h44.41.552,lexical_decision_task_DD_L3,2021.2.3,Win32,59.99160118,,,,,,,,,,,0.9486,1,,,,,,,,,,,,,,m,1,0.9486,,,,,,,,0.887963102,0.5,0,0,0,,0,16,16,83,1,JUNGLE,HB,old,m,./images/JUNGLEHB.png,,,,,,,,,,,,,,,,,,,,,,,,,,,,,,,,,,,
,,,,,,,,,,,,,,,,,60301b6f654dbde372f01190,20,2022-02-12_15h44.41.552,lexical_decision_task_DD_L3,2021.2.3,Win32,59.99160118,,,,,,,,,,,0.8219,1,,,,,,,,,,,,,,z,1,0.8219,,,,,,,,0.887963102,0.5,0,0,0,,0,17,17,149,1,VEASE,LB,old,z,./images/VEASELB.png,,,,,,,,,,,,,,,,,,,,,,,,,,,,,,,,,,,
,,,,,,,,,,,,,,,,,60301b6f654dbde372f01190,20,2022-02-12_15h44.41.552,lexical_decision_task_DD_L3,2021.2.3,Win32,59.99160118,,,,,,,,,,,0.5669,1,,,,,,,,,,,,,,m,1,0.5669,,,,,,,,0.887963102,0.5,0,0,0,,0,18,18,30,1,STORM,LB,old,m,./images/STORMLB.png,,,,,,,,,,,,,,,,,,,,,,,,,,,,,,,,,,,
,,,,,,,,,,,,,,,,,60301b6f654dbde372f01190,20,2022-02-12_15h44.41.552,lexical_decision_task_DD_L3,2021.2.3,Win32,59.99160118,,,,,,,,,,,0.9341,1,,,,,,,,,,,,,,z,1,0.9341,,,,,,,,0.887963102,0.5,0,0,0,,0,19,19,148,1,JOMS,HB,old,z,./images/JOMSHB.png,,,,,,,,,,,,,,,,,,,,,,,,,,,,,,,,,,,
,,,,,,,,,,,,,,,,,60301b6f654dbde372f01190,20,2022-02-12_15h44.41.552,lexical_decision_task_DD_L3,2021.2.3,Win32,59.99160118,,,,,,,,,,,0.9098,0,,,,,,,,,,,,,,z,0,0.9098,,,,,,,,0.887963102,0.5,0,0,0,,0,20,20,43,1,MOSQUE,C,old,m,./images/MOSQUE.png,,,,,,,,,,,,,,,,,,,,,,,,,,,,,,,,,,,
,,,,,,,,,,,,,,,,,60301b6f654dbde372f01190,20,2022-02-12_15h44.41.552,lexical_decision_task_DD_L3,2021.2.3,Win32,59.99160118,,,,,,,,,,,0.7758,1,,,,,,,,,,,,,,z,1,0.7758,,,,,,,,0.887963102,0.499074074,0,0,0,,0,21,21,162,1,LEICH,C,old,z,./images/LEICH.png,,,,,,,,,,,,,,,,,,,,,,,,,,,,,,,,,,,
,,,,,,,,,,,,,,,,,60301b6f654dbde372f01190,20,2022-02-12_15h44.41.552,lexical_decision_task_DD_L3,2021.2.3,Win32,59.99160118,,,,,,,,,,,0.8416,0,,,,,,,,,,,,,,m,0,0.8416,,,,,,,,0.887963102,0.499074074,0,0,0,,0,22,22,84,1,HAXES,C,old,z,./images/HAXES.png,,,,,,,,,,,,,,,,,,,,,,,,,,,,,,,,,,,
,,,,,,,,,,,,,,,,,60301b6f654dbde372f01190,20,2022-02-12_15h44.41.552,lexical_decision_task_DD_L3,2021.2.3,Win32,59.99160118,,,,,,,,,,,1.079,1,,,,,,,,,,,,,,z,1,1.079,,,,,,,,0.887963102,0.499074074,0,0,0,,0,23,23,98,1,BAMPS,LB,old,z,./images/BAMPSLB.png,,,,,,,,,,,,,,,,,,,,,,,,,,,,,,,,,,,
,,,,,,,,,,,,,,,,,60301b6f654dbde372f01190,20,2022-02-12_15h44.41.552,lexical_decision_task_DD_L3,2021.2.3,Win32,59.99160118,,,,,,,,,,,0.7971,1,,,,,,,,,,,,,,m,1,0.7971,,,,,,,,0.887963102,0.499074074,0,0,0,,0,24,24,29,1,CRUMB,HB,old,m,./images/CRUMBHB.png,,,,,,,,,,,,,,,,,,,,,,,,,,,,,,,,,,,
,,,,,,,,,,,,,,,,,60301b6f654dbde372f01190,20,2022-02-12_15h44.41.552,lexical_decision_task_DD_L3,2021.2.3,Win32,59.99160118,,,,,,,,,,,1.1624,1,,,,,,,,,,,,,,z,1,1.1624,,,,,,,,0.887963102,0.499074074,0,0,0,,0,25,25,91,1,SHENS,HB,old,z,./images/SHENSHB.png,,,,,,,,,,,,,,,,,,,,,,,,,,,,,,,,,,,
,,,,,,,,,,,,,,,,,60301b6f654dbde372f01190,20,2022-02-12_15h44.41.552,lexical_decision_task_DD_L3,2021.2.3,Win32,59.99160118,,,,,,,,,,,1.2486,1,,,,,,,,,,,,,,z,1,1.2486,,,,,,,,0.887963102,0.499074074,0,0,0,,0,26,26,88,1,GLUSH,HB,old,z,./images/GLUSHHB.png,,,,,,,,,,,,,,,,,,,,,,,,,,,,,,,,,,,
,,,,,,,,,,,,,,,,,60301b6f654dbde372f01190,20,2022-02-12_15h44.41.552,lexical_decision_task_DD_L3,2021.2.3,Win32,59.99160118,,,,,,,,,,,1.3413,1,,,,,,,,,,,,,,m,1,1.3413,,,,,,,,0.887963102,0.499074074,0,0,0,,0,27,27,11,1,BONNET,HB,old,m,./images/BONNETHB.png,,,,,,,,,,,,,,,,,,,,,,,,,,,,,,,,,,,
,,,,,,,,,,,,,,,,,60301b6f654dbde372f01190,20,2022-02-12_15h44.41.552,lexical_decision_task_DD_L3,2021.2.3,Win32,59.99160118,,,,,,,,,,,0.7117,1,,,,,,,,,,,,,,m,1,0.7117,,,,,,,,0.887963102,0.499074074,0,0,0,,0,28,28,64,1,JELLY,C,old,m,./images/JELLY.png,,,,,,,,,,,,,,,,,,,,,,,,,,,,,,,,,,,
,,,,,,,,,,,,,,,,,60301b6f654dbde372f01190,20,2022-02-12_15h44.41.552,lexical_decision_task_DD_L3,2021.2.3,Win32,59.99160118,,,,,,,,,,,1.2178,1,,,,,,,,,,,,,,z,1,1.2178,,,,,,,,0.887963102,0.499074074,0,0,0,,0,29,29,166,1,SHORY,HB,old,z,./images/SHORYHB.png,,,,,,,,,,,,,,,,,,,,,,,,,,,,,,,,,,,
,,,,,,,,,,,,,,,,,60301b6f654dbde372f01190,20,2022-02-12_15h44.41.552,lexical_decision_task_DD_L3,2021.2.3,Win32,59.99160118,,,,,,,,,,,1.2848,1,,,,,,,,,,,,,,z,1,1.2848,,,,,,,,0.887963102,0.499074074,0,0,0,,0,30,30,118,1,BAVEL,HB,old,z,./images/BAVELHB.png,,,,,,,,,,,,,,,,,,,,,,,,,,,,,,,,,,,
,,,,,,,,,,,,,,,,,60301b6f654dbde372f01190,20,2022-02-12_15h44.41.552,lexical_decision_task_DD_L3,2021.2.3,Win32,59.99160118,,,,,,,,,,,1.1965,1,,,,,,,,,,,,,,m,1,1.1965,,,,,,,,0.30185187,0.223148144,0,0,0,,0,31,31,55,1,MUFFIN,C,old,m,./images/MUFFIN.png,,,,,,,,,,,,,,,,,,,,,,,,,,,,,,,,,,,
,,,,,,,,,,,,,,,,,60301b6f654dbde372f01190,20,2022-02-12_15h44.41.552,lexical_decision_task_DD_L3,2021.2.3,Win32,59.99160118,,,,,,,,,,,0.9542,1,,,,,,,,,,,,,,m,1,0.9542,,,,,,,,0.30185187,0.223148144,0,0,0,,0,32,32,18,1,JAGUAR,LB,old,m,./images/JAGUARLB.png,,,,,,,,,,,,,,,,,,,,,,,,,,,,,,,,,,,
,,,,,,,,,,,,,,,,,60301b6f654dbde372f01190,20,2022-02-12_15h44.41.552,lexical_decision_task_DD_L3,2021.2.3,Win32,59.99160118,,,,,,,,,,,1.0352,1,,,,,,,,,,,,,,m,1,1.0352,,,,,,,,0.30185187,0.223148144,0,0,0,,0,33,33,1,1,PLANK,C,old,m,./images/PLANK.png,,,,,,,,,,,,,,,,,,,,,,,,,,,,,,,,,,,
,,,,,,,,,,,,,,,,,60301b6f654dbde372f01190,20,2022-02-12_15h44.41.552,lexical_decision_task_DD_L3,2021.2.3,Win32,59.99160118,,,,,,,,,,,0.839,1,,,,,,,,,,,,,,z,1,0.839,,,,,,,,0.30185187,0.223148144,0,0,0,,0,34,34,159,1,CUDDY,C,old,z,./images/CUDDY.png,,,,,,,,,,,,,,,,,,,,,,,,,,,,,,,,,,,
,,,,,,,,,,,,,,,,,60301b6f654dbde372f01190,20,2022-02-12_15h44.41.552,lexical_decision_task_DD_L3,2021.2.3,Win32,59.99160118,,,,,,,,,,,1.0317,1,,,,,,,,,,,,,,m,1,1.0317,,,,,,,,0.30185187,0.223148144,0,0,0,,0,35,35,20,1,CRADLE,HB,old,m,./images/CRADLEHB.png,,,,,,,,,,,,,,,,,,,,,,,,,,,,,,,,,,,
,,,,,,,,,,,,,,,,,60301b6f654dbde372f01190,20,2022-02-12_15h44.41.552,lexical_decision_task_DD_L3,2021.2.3,Win32,59.99160118,,,,,,,,,,,0.7124,1,,,,,,,,,,,,,,z,1,0.7124,,,,,,,,0.30185187,0.223148144,0,0,0,,0,36,36,103,1,FLORT,HB,old,z,./images/FLORTHB.png,,,,,,,,,,,,,,,,,,,,,,,,,,,,,,,,,,,
,,,,,,,,,,,,,,,,,60301b6f654dbde372f01190,20,2022-02-12_15h44.41.552,lexical_decision_task_DD_L3,2021.2.3,Win32,59.99160118,,,,,,,,,,,0.7335,0,,,,,,,,,,,,,,m,0,0.7335,,,,,,,,0.30185187,0.223148144,0,0,0,,0,37,37,158,1,EGECT,LB,old,z,./images/EGECTLB.png,,,,,,,,,,,,,,,,,,,,,,,,,,,,,,,,,,,
,,,,,,,,,,,,,,,,,60301b6f654dbde372f01190,20,2022-02-12_15h44.41.552,lexical_decision_task_DD_L3,2021.2.3,Win32,59.99160118,,,,,,,,,,,1.134,1,,,,,,,,,,,,,,m,1,1.134,,,,,,,,0.30185187,0.223148144,0,0,0,,0,38,38,26,1,SMOKER,HB,old,m,./images/SMOKERHB.png,,,,,,,,,,,,,,,,,,,,,,,,,,,,,,,,,,,
,,,,,,,,,,,,,,,,,60301b6f654dbde372f01190,20,2022-02-12_15h44.41.552,lexical_decision_task_DD_L3,2021.2.3,Win32,59.99160118,,,,,,,,,,,1.5525,1,,,,,,,,,,,,,,z,1,1.5525,,,,,,,,0.30185187,0.223148144,0,0,0,,0,39,39,94,1,BLANS,HB,old,z,./images/BLANSHB.png,,,,,,,,,,,,,,,,,,,,,,,,,,,,,,,,,,,
,,,,,,,,,,,,,,,,,60301b6f654dbde372f01190,20,2022-02-12_15h44.41.552,lexical_decision_task_DD_L3,2021.2.3,Win32,59.99160118,,,,,,,,,,,1.5184,1,,,,,,,,,,,,,,z,1,1.5184,,,,,,,,0.30185187,0.223148144,0,0,0,,0,40,40,120,1,RINED,C,old,z,./images/RINED.png,,,,,,,,,,,,,,,,,,,,,,,,,,,,,,,,,,,
,,,,,,,,,,,,,,,,,60301b6f654dbde372f01190,20,2022-02-12_15h44.41.552,lexical_decision_task_DD_L3,2021.2.3,Win32,59.99160118,,,,,,,,,,,0.7188,1,,,,,,,,,,,,,,m,1,0.7188,,,,,,,,-0.003703691,-0.232407418,0,0,0,space,0,41,41,0,1,TOMATO,LB,old,m,./images/TOMATOLB.png,15.6549,,,,,,,,,,,,,,,,,,,,,,,,,,,,,,,,,,
,,,,,,,,,,,,,,,,,60301b6f654dbde372f01190,20,2022-02-12_15h44.41.552,lexical_decision_task_DD_L3,2021.2.3,Win32,59.99160118,,,,,,,,,,,1.5242,1,,,,,,,,,,,,,,m,1,1.5242,,,,,,,,1.32455E-08,-0.222222233,0,0,0,,0,42,42,16,1,PENCE,C,old,m,./images/PENCE.png,,,,,,,,,,,,,,,,,,,,,,,,,,,,,,,,,,,
,,,,,,,,,,,,,,,,,60301b6f654dbde372f01190,20,2022-02-12_15h44.41.552,lexical_decision_task_DD_L3,2021.2.3,Win32,59.99160118,,,,,,,,,,,0.7445,1,,,,,,,,,,,,,,m,1,0.7445,,,,,,,,1.32455E-08,-0.222222233,0,0,0,,0,43,43,73,1,SNACK,C,old,m,./images/SNACK.png,,,,,,,,,,,,,,,,,,,,,,,,,,,,,,,,,,,
,,,,,,,,,,,,,,,,,60301b6f654dbde372f01190,20,2022-02-12_15h44.41.552,lexical_decision_task_DD_L3,2021.2.3,Win32,59.99160118,,,,,,,,,,,0.8282,1,,,,,,,,,,,,,,m,1,0.8282,,,,,,,,1.32455E-08,-0.222222233,0,0,0,,0,44,44,59,1,BURIAL,HB,old,m,./images/BURIALHB.png,,,,,,,,,,,,,,,,,,,,,,,,,,,,,,,,,,,
,,,,,,,,,,,,,,,,,60301b6f654dbde372f01190,20,2022-02-12_15h44.41.552,lexical_decision_task_DD_L3,2021.2.3,Win32,59.99160118,,,,,,,,,,,0.8238,1,,,,,,,,,,,,,,z,1,0.8238,,,,,,,,1.32455E-08,-0.222222233,0,0,0,,0,45,45,164,1,SGREW,LB,old,z,./images/SGREWLB.png,,,,,,,,,,,,,,,,,,,,,,,,,,,,,,,,,,,
,,,,,,,,,,,,,,,,,60301b6f654dbde372f01190,20,2022-02-12_15h44.41.552,lexical_decision_task_DD_L3,2021.2.3,Win32,59.99160118,,,,,,,,,,,1.2668,1,,,,,,,,,,,,,,z,1,1.2668,,,,,,,,1.32455E-08,-0.222222233,0,0,0,,0,46,46,102,1,DULLE,C,old,z,./images/DULLE.png,,,,,,,,,,,,,,,,,,,,,,,,,,,,,,,,,,,
,,,,,,,,,,,,,,,,,60301b6f654dbde372f01190,20,2022-02-12_15h44.41.552,lexical_decision_task_DD_L3,2021.2.3,Win32,59.99160118,,,,,,,,,,,0.7367,1,,,,,,,,,,,,,,z,1,0.7367,,,,,,,,1.32455E-08,-0.222222233,0,0,0,,0,47,47,87,1,TRING,C,old,z,./images/TRING.png,,,,,,,,,,,,,,,,,,,,,,,,,,,,,,,,,,,
,,,,,,,,,,,,,,,,,60301b6f654dbde372f01190,20,2022-02-12_15h44.41.552,lexical_decision_task_DD_L3,2021.2.3,Win32,59.99160118,,,,,,,,,,,0.9633,1,,,,,,,,,,,,,,z,1,0.9633,,,,,,,,1.32455E-08,-0.222222233,0,0,0,,0,48,48,115,1,MAWNS,HB,old,z,./images/MAWNSHB.png,,,,,,,,,,,,,,,,,,,,,,,,,,,,,,,,,,,
,,,,,,,,,,,,,,,,,60301b6f654dbde372f01190,20,2022-02-12_15h44.41.552,lexical_decision_task_DD_L3,2021.2.3,Win32,59.99160118,,,,,,,,,,,0.78,1,,,,,,,,,,,,,,m,1,0.78,,,,,,,,1.32455E-08,-0.222222233,0,0,0,,0,49,49,44,1,LIZARD,HB,old,m,./images/LIZARDHB.png,,,,,,,,,,,,,,,,,,,,,,,,,,,,,,,,,,,
,,,,,,,,,,,,,,,,,60301b6f654dbde372f01190,20,2022-02-12_15h44.41.552,lexical_decision_task_DD_L3,2021.2.3,Win32,59.99160118,,,,,,,,,,,1.1715,1,,,,,,,,,,,,,,z,1,1.1715,,,,,,,,1.32455E-08,-0.222222233,0,0,0,,0,50,50,127,1,NINDY,HB,old,z,./images/NINDYHB.png,,,,,,,,,,,,,,,,,,,,,,,,,,,,,,,,,,,
,,,,,,,,,,,,,,,,,60301b6f654dbde372f01190,20,2022-02-12_15h44.41.552,lexical_decision_task_DD_L3,2021.2.3,Win32,59.99160118,,,,,,,,,,,1.1088,1,,,,,,,,,,,,,,m,1,1.1088,,,,,,,,1.32455E-08,-0.222222233,0,0,0,,0,51,51,34,1,CANYON,C,old,m,./images/CANYON.png,,,,,,,,,,,,,,,,,,,,,,,,,,,,,,,,,,,
,,,,,,,,,,,,,,,,,60301b6f654dbde372f01190,20,2022-02-12_15h44.41.552,lexical_decision_task_DD_L3,2021.2.3,Win32,59.99160118,,,,,,,,,,,0.7036,1,,,,,,,,,,,,,,z,1,0.7036,,,,,,,,1.32455E-08,-0.222222233,0,0,0,,0,52,52,137,1,JOOST,LB,old,z,./images/JOOSTLB.png,,,,,,,,,,,,,,,,,,,,,,,,,,,,,,,,,,,
,,,,,,,,,,,,,,,,,60301b6f654dbde372f01190,20,2022-02-12_15h44.41.552,lexical_decision_task_DD_L3,2021.2.3,Win32,59.99160118,,,,,,,,,,,1.0461,1,,,,,,,,,,,,,,z,1,1.0461,,,,,,,,1.32455E-08,-0.222222233,0,0,0,,0,53,53,133,1,POWDY,HB,old,z,./images/POWDYHB.png,,,,,,,,,,,,,,,,,,,,,,,,,,,,,,,,,,,
,,,,,,,,,,,,,,,,,60301b6f654dbde372f01190,20,2022-02-12_15h44.41.552,lexical_decision_task_DD_L3,2021.2.3,Win32,59.99160118,,,,,,,,,,,0.8982,1,,,,,,,,,,,,,,z,1,0.8982,,,,,,,,1.32455E-08,-0.222222233,0,0,0,,0,54,54,86,1,AIFED,LB,old,z,./images/AIFEDLB.png,,,,,,,,,,,,,,,,,,,,,,,,,,,,,,,,,,,
,,,,,,,,,,,,,,,,,60301b6f654dbde372f01190,20,2022-02-12_15h44.41.552,lexical_decision_task_DD_L3,2021.2.3,Win32,59.99160118,,,,,,,,,,,0.8589,1,,,,,,,,,,,,,,m,1,0.8589,,,,,,,,1.32455E-08,-0.222222233,0,0,0,,0,55,55,49,1,DRUMS,C,old,m,./images/DRUMS.png,,,,,,,,,,,,,,,,,,,,,,,,,,,,,,,,,,,
,,,,,,,,,,,,,,,,,60301b6f654dbde372f01190,20,2022-02-12_15h44.41.552,lexical_decision_task_DD_L3,2021.2.3,Win32,59.99160118,,,,,,,,,,,0.8334,1,,,,,,,,,,,,,,m,1,0.8334,,,,,,,,1.32455E-08,-0.222222233,0,0,0,,0,56,56,60,1,TWINS,LB,old,m,./images/TWINSLB.png,,,,,,,,,,,,,,,,,,,,,,,,,,,,,,,,,,,
,,,,,,,,,,,,,,,,,60301b6f654dbde372f01190,20,2022-02-12_15h44.41.552,lexical_decision_task_DD_L3,2021.2.3,Win32,59.99160118,,,,,,,,,,,0.5991,1,,,,,,,,,,,,,,m,1,0.5991,,,,,,,,1.32455E-08,-0.222222233,0,0,0,,0,57,57,46,1,PEARL,C,old,m,./images/PEARL.png,,,,,,,,,,,,,,,,,,,,,,,,,,,,,,,,,,,
,,,,,,,,,,,,,,,,,60301b6f654dbde372f01190,20,2022-02-12_15h44.41.552,lexical_decision_task_DD_L3,2021.2.3,Win32,59.99160118,,,,,,,,,,,0.7838,1,,,,,,,,,,,,,,m,1,0.7838,,,,,,,,1.32455E-08,-0.222222233,0,0,0,,0,58,58,74,1,CEMENT,HB,old,m,./images/CEMENTHB.png,,,,,,,,,,,,,,,,,,,,,,,,,,,,,,,,,,,
,,,,,,,,,,,,,,,,,60301b6f654dbde372f01190,20,2022-02-12_15h44.41.552,lexical_decision_task_DD_L3,2021.2.3,Win32,59.99160118,,,,,,,,,,,0.8425,1,,,,,,,,,,,,,,z,1,0.8425,,,,,,,,1.32455E-08,-0.222222233,0,0,0,,0,59,59,136,1,WERVE,HB,old,z,./images/WERVEHB.png,,,,,,,,,,,,,,,,,,,,,,,,,,,,,,,,,,,
,,,,,,,,,,,,,,,,,60301b6f654dbde372f01190,20,2022-02-12_15h44.41.552,lexical_decision_task_DD_L3,2021.2.3,Win32,59.99160118,,,,,,,,,,,0.7799,1,,,,,,,,,,,,,,z,1,0.7799,,,,,,,,1.32455E-08,-0.222222233,0,0,0,,0,60,60,138,1,PLICE,C,old,z,./images/PLICE.png,,,,,,,,,,,,,,,,,,,,,,,,,,,,,,,,,,,
,,,,,,,,,,,,,,,,,60301b6f654dbde372f01190,20,2022-02-12_15h44.41.552,lexical_decision_task_DD_L3,2021.2.3,Win32,59.99160118,,,,,,,,,,,0.8109,1,,,,,,,,,,,,,,z,1,0.8109,,,,,,,,1.32455E-08,-0.222222233,0,0,0,,0,61,61,167,1,ZONET,LB,old,z,./images/ZONETLB.png,,,,,,,,,,,,,,,,,,,,,,,,,,,,,,,,,,,
,,,,,,,,,,,,,,,,,60301b6f654dbde372f01190,20,2022-02-12_15h44.41.552,lexical_decision_task_DD_L3,2021.2.3,Win32,59.99160118,,,,,,,,,,,0.6883,1,,,,,,,,,,,,,,m,1,0.6883,,,,,,,,1.32455E-08,-0.222222233,0,0,0,,0,62,62,31,1,QUILL,C,old,m,./images/QUILL.png,,,,,,,,,,,,,,,,,,,,,,,,,,,,,,,,,,,
,,,,,,,,,,,,,,,,,60301b6f654dbde372f01190,20,2022-02-12_15h44.41.552,lexical_decision_task_DD_L3,2021.2.3,Win32,59.99160118,,,,,,,,,,,0.8132,1,,,,,,,,,,,,,,m,1,0.8132,,,,,,,,1.32455E-08,-0.222222233,0,0,0,,0,63,63,2,1,BEARD,HB,old,m,./images/BEARDHB.png,,,,,,,,,,,,,,,,,,,,,,,,,,,,,,,,,,,
,,,,,,,,,,,,,,,,,60301b6f654dbde372f01190,20,2022-02-12_15h44.41.552,lexical_decision_task_DD_L3,2021.2.3,Win32,59.99160118,,,,,,,,,,,0.734,1,,,,,,,,,,,,,,m,1,0.734,,,,,,,,1.32455E-08,-0.222222233,0,0,0,,0,64,64,39,1,SHELF,LB,old,m,./images/SHELFLB.png,,,,,,,,,,,,,,,,,,,,,,,,,,,,,,,,,,,
,,,,,,,,,,,,,,,,,60301b6f654dbde372f01190,20,2022-02-12_15h44.41.552,lexical_decision_task_DD_L3,2021.2.3,Win32,59.99160118,,,,,,,,,,,0.7968,1,,,,,,,,,,,,,,m,1,0.7968,,,,,,,,1.32455E-08,-0.222222233,0,0,0,,0,65,65,70,1,URINE,C,old,m,./images/URINE.png,,,,,,,,,,,,,,,,,,,,,,,,,,,,,,,,,,,
,,,,,,,,,,,,,,,,,60301b6f654dbde372f01190,20,2022-02-12_15h44.41.552,lexical_decision_task_DD_L3,2021.2.3,Win32,59.99160118,,,,,,,,,,,0.643,1,,,,,,,,,,,,,,m,1,0.643,,,,,,,,1.32455E-08,-0.222222233,0,0,0,,0,66,66,45,1,KITTEN,LB,old,m,./images/KITTENLB.png,,,,,,,,,,,,,,,,,,,,,,,,,,,,,,,,,,,
,,,,,,,,,,,,,,,,,60301b6f654dbde372f01190,20,2022-02-12_15h44.41.552,lexical_decision_task_DD_L3,2021.2.3,Win32,59.99160118,,,,,,,,,,,0.6894,1,,,,,,,,,,,,,,m,1,0.6894,,,,,,,,1.32455E-08,-0.222222233,0,0,0,,0,67,67,68,1,TORCH,HB,old,m,./images/TORCHHB.png,,,,,,,,,,,,,,,,,,,,,,,,,,,,,,,,,,,
,,,,,,,,,,,,,,,,,60301b6f654dbde372f01190,20,2022-02-12_15h44.41.552,lexical_decision_task_DD_L3,2021.2.3,Win32,59.99160118,,,,,,,,,,,0.5618,1,,,,,,,,,,,,,,m,1,0.5618,,,,,,,,1.32455E-08,-0.222222233,0,0,0,,0,68,68,78,1,LITTER,LB,old,m,./images/LITTERLB.png,,,,,,,,,,,,,,,,,,,,,,,,,,,,,,,,,,,
,,,,,,,,,,,,,,,,,60301b6f654dbde372f01190,20,2022-02-12_15h44.41.552,lexical_decision_task_DD_L3,2021.2.3,Win32,59.99160118,,,,,,,,,,,0.7112,1,,,,,,,,,,,,,,z,1,0.7112,,,,,,,,1.32455E-08,-0.222222233,0,0,0,,0,69,69,147,1,ZOLES,C,old,z,./images/ZOLES.png,,,,,,,,,,,,,,,,,,,,,,,,,,,,,,,,,,,
,,,,,,,,,,,,,,,,,60301b6f654dbde372f01190,20,2022-02-12_15h44.41.552,lexical_decision_task_DD_L3,2021.2.3,Win32,59.99160118,,,,,,,,,,,0.6421,1,,,,,,,,,,,,,,m,1,0.6421,,,,,,,,1.32455E-08,-0.222222233,0,0,0,,0,70,70,81,1,POODLE,LB,old,m,./images/POODLELB.png,,,,,,,,,,,,,,,,,,,,,,,,,,,,,,,,,,,
,,,,,,,,,,,,,,,,,60301b6f654dbde372f01190,20,2022-02-12_15h44.41.552,lexical_decision_task_DD_L3,2021.2.3,Win32,59.99160118,,,,,,,,,,,0.5763,1,,,,,,,,,,,,,,m,1,0.5763,,,,,,,,1.32455E-08,-0.222222233,0,0,0,,0,71,71,76,1,INFANT,C,old,m,./images/INFANT.png,,,,,,,,,,,,,,,,,,,,,,,,,,,,,,,,,,,
,,,,,,,,,,,,,,,,,60301b6f654dbde372f01190,20,2022-02-12_15h44.41.552,lexical_decision_task_DD_L3,2021.2.3,Win32,59.99160118,,,,,,,,,,,0.5352,1,,,,,,,,,,,,,,m,1,0.5352,,,,,,,,1.32455E-08,-0.222222233,0,0,0,,0,72,72,38,1,LADDER,HB,old,m,./images/LADDERHB.png,,,,,,,,,,,,,,,,,,,,,,,,,,,,,,,,,,,
,,,,,,,,,,,,,,,,,60301b6f654dbde372f01190,20,2022-02-12_15h44.41.552,lexical_decision_task_DD_L3,2021.2.3,Win32,59.99160118,,,,,,,,,,,0.4621,1,,,,,,,,,,,,,,z,1,0.4621,,,,,,,,1.32455E-08,-0.222222233,0,0,0,,0,73,73,156,1,HIXES,C,old,z,./images/HIXES.png,,,,,,,,,,,,,,,,,,,,,,,,,,,,,,,,,,,
,,,,,,,,,,,,,,,,,60301b6f654dbde372f01190,20,2022-02-12_15h44.41.552,lexical_decision_task_DD_L3,2021.2.3,Win32,59.99160118,,,,,,,,,,,0.4303,1,,,,,,,,,,,,,,z,1,0.4303,,,,,,,,1.32455E-08,-0.222222233,0,0,0,,0,74,74,151,1,TINKY,HB,old,z,./images/TINKYHB.png,,,,,,,,,,,,,,,,,,,,,,,,,,,,,,,,,,,
,,,,,,,,,,,,,,,,,60301b6f654dbde372f01190,20,2022-02-12_15h44.41.552,lexical_decision_task_DD_L3,2021.2.3,Win32,59.99160118,,,,,,,,,,,0.5103,1,,,,,,,,,,,,,,z,1,0.5103,,,,,,,,1.32455E-08,-0.222222233,0,0,0,,0,75,75,114,1,RIKES,C,old,z,./images/RIKES.png,,,,,,,,,,,,,,,,,,,,,,,,,,,,,,,,,,,
,,,,,,,,,,,,,,,,,60301b6f654dbde372f01190,20,2022-02-12_15h44.41.552,lexical_decision_task_DD_L3,2021.2.3,Win32,59.99160118,,,,,,,,,,,0.4791,1,,,,,,,,,,,,,,z,1,0.4791,,,,,,,,1.32455E-08,-0.222222233,0,0,0,,0,76,76,140,1,DOVET,LB,old,z,./images/DOVETLB.png,,,,,,,,,,,,,,,,,,,,,,,,,,,,,,,,,,,
,,,,,,,,,,,,,,,,,60301b6f654dbde372f01190,20,2022-02-12_15h44.41.552,lexical_decision_task_DD_L3,2021.2.3,Win32,59.99160118,,,,,,,,,,,0.3575,0,,,,,,,,,,,,,,m,0,0.3575,,,,,,,,1.32455E-08,-0.222222233,0,0,0,,0,77,77,132,1,SCIFF,C,old,z,./images/SCIFF.png,,,,,,,,,,,,,,,,,,,,,,,,,,,,,,,,,,,
,,,,,,,,,,,,,,,,,60301b6f654dbde372f01190,20,2022-02-12_15h44.41.552,lexical_decision_task_DD_L3,2021.2.3,Win32,59.99160118,,,,,,,,,,,0.4189,1,,,,,,,,,,,,,,m,1,0.4189,,,,,,,,1.32455E-08,-0.222222233,0,0,0,,0,78,78,32,1,BARREL,HB,old,m,./images/BARRELHB.png,,,,,,,,,,,,,,,,,,,,,,,,,,,,,,,,,,,
,,,,,,,,,,,,,,,,,60301b6f654dbde372f01190,20,2022-02-12_15h44.41.552,lexical_decision_task_DD_L3,2021.2.3,Win32,59.99160118,,,,,,,,,,,0.4478,0,,,,,,,,,,,,,,z,0,0.4478,,,,,,,,1.32455E-08,-0.222222233,0,0,0,,0,79,79,75,1,GRAIN,LB,old,m,./images/GRAINLB.png,,,,,,,,,,,,,,,,,,,,,,,,,,,,,,,,,,,
,,,,,,,,,,,,,,,,,60301b6f654dbde372f01190,20,2022-02-12_15h44.41.552,lexical_decision_task_DD_L3,2021.2.3,Win32,59.99160118,,,,,,,,,,,0.9058,1,,,,,,,,,,,,,,z,1,0.9058,,,,,,,,1.32455E-08,-0.222222233,0,0,0,,0,80,80,90,1,NEAST,C,old,z,./images/NEAST.png,,,,,,,,,,,,,,,,,,,,,,,,,,,,,,,,,,,
,,,,,,,,,,,,,,,,,60301b6f654dbde372f01190,20,2022-02-12_15h44.41.552,lexical_decision_task_DD_L3,2021.2.3,Win32,59.99160118,,,,,,,,,,,0.7239,1,,,,,,,,,,,,,,m,1,0.7239,,,,,,,,1.32455E-08,-0.222222233,0,0,0,,0,81,81,63,1,MIRROR,LB,old,m,./images/MIRRORLB.png,,,,,,,,,,,,,,,,,,,,,,,,,,,,,,,,,,,
,,,,,,,,,,,,,,,,,60301b6f654dbde372f01190,20,2022-02-12_15h44.41.552,lexical_decision_task_DD_L3,2021.2.3,Win32,59.99160118,,,,,,,,,,,0.6956,1,,,,,,,,,,,,,,z,1,0.6956,,,,,,,,1.32455E-08,-0.222222233,0,0,0,,0,82,82,155,1,CANGY,LB,old,z,./images/CANGYLB.png,,,,,,,,,,,,,,,,,,,,,,,,,,,,,,,,,,,
,,,,,,,,,,,,,,,,,60301b6f654dbde372f01190,20,2022-02-12_15h44.41.552,lexical_decision_task_DD_L3,2021.2.3,Win32,59.99160118,,,,,,,,,,,0.6552,1,,,,,,,,,,,,,,m,1,0.6552,,,,,,,,1.32455E-08,-0.222222233,0,0,0,space,0,83,83,7,1,PAINT,C,old,m,./images/PAINT.png,1.0663,,,,,,,,,,,,,,,,,,,,,,,,,,,,,,,,,,
,,,,,,,,,,,,,,,,,60301b6f654dbde372f01190,20,2022-02-12_15h44.41.552,lexical_decision_task_DD_L3,2021.2.3,Win32,59.99160118,,,,,,,,,,,1.0471,1,,,,,,,,,,,,,,z,1,1.0471,,,,,,,,1.32455E-08,-0.222222233,0,0,0,,0,84,84,161,1,BLAPS,LB,old,z,./images/BLAPSLB.png,,,,,,,,,,,,,,,,,,,,,,,,,,,,,,,,,,,
,,,,,,,,,,,,,,,,,60301b6f654dbde372f01190,20,2022-02-12_15h44.41.552,lexical_decision_task_DD_L3,2021.2.3,Win32,59.99160118,,,,,,,,,,,0.5974,1,,,,,,,,,,,,,,z,1,0.5974,,,,,,,,1.32455E-08,-0.222222233,0,0,0,,0,85,85,144,1,NAIRY,C,old,z,./images/NAIRY.png,,,,,,,,,,,,,,,,,,,,,,,,,,,,,,,,,,,
,,,,,,,,,,,,,,,,,60301b6f654dbde372f01190,20,2022-02-12_15h44.41.552,lexical_decision_task_DD_L3,2021.2.3,Win32,59.99160118,,,,,,,,,,,1.1595,1,,,,,,,,,,,,,,z,1,1.1595,,,,,,,,1.32455E-08,-0.222222233,0,0,0,,0,86,86,124,1,TUNCH,HB,old,z,./images/TUNCHHB.png,,,,,,,,,,,,,,,,,,,,,,,,,,,,,,,,,,,
,,,,,,,,,,,,,,,,,60301b6f654dbde372f01190,20,2022-02-12_15h44.41.552,lexical_decision_task_DD_L3,2021.2.3,Win32,59.99160118,,,,,,,,,,,0.8452,1,,,,,,,,,,,,,,m,1,0.8452,,,,,,,,1.32455E-08,-0.222222233,0,0,0,,0,87,87,14,1,PICKLE,HB,old,m,./images/PICKLEHB.png,,,,,,,,,,,,,,,,,,,,,,,,,,,,,,,,,,,
,,,,,,,,,,,,,,,,,60301b6f654dbde372f01190,20,2022-02-12_15h44.41.552,lexical_decision_task_DD_L3,2021.2.3,Win32,59.99160118,,,,,,,,,,,0.76,1,,,,,,,,,,,,,,z,1,0.76,,,,,,,,1.32455E-08,-0.222222233,0,0,0,,0,88,88,107,1,FASKS,LB,old,z,./images/FASKSLB.png,,,,,,,,,,,,,,,,,,,,,,,,,,,,,,,,,,,
,,,,,,,,,,,,,,,,,60301b6f654dbde372f01190,20,2022-02-12_15h44.41.552,lexical_decision_task_DD_L3,2021.2.3,Win32,59.99160118,,,,,,,,,,,0.8384,1,,,,,,,,,,,,,,m,1,0.8384,,,,,,,,1.32455E-08,-0.222222233,0,0,0,,0,89,89,24,1,SCREW,LB,old,m,./images/SCREWLB.png,,,,,,,,,,,,,,,,,,,,,,,,,,,,,,,,,,,
,,,,,,,,,,,,,,,,,60301b6f654dbde372f01190,20,2022-02-12_15h44.41.552,lexical_decision_task_DD_L3,2021.2.3,Win32,59.99160118,,,,,,,,,,,0.6375,1,,,,,,,,,,,,,,z,1,0.6375,,,,,,,,1.32455E-08,-0.222222233,0,0,0,,0,90,90,128,1,GRIFT,LB,old,z,./images/GRIFTLB.png,,,,,,,,,,,,,,,,,,,,,,,,,,,,,,,,,,,
,,,,,,,,,,,,,,,,,60301b6f654dbde372f01190,20,2022-02-12_15h44.41.552,lexical_decision_task_DD_L3,2021.2.3,Win32,59.99160118,,,,,,,,,,,0.9047,1,,,,,,,,,,,,,,m,1,0.9047,,,,,,,,1.32455E-08,-0.222222233,0,0,0,,0,91,91,23,1,WALRUS,HB,old,m,./images/WALRUSHB.png,,,,,,,,,,,,,,,,,,,,,,,,,,,,,,,,,,,
,,,,,,,,,,,,,,,,,60301b6f654dbde372f01190,20,2022-02-12_15h44.41.552,lexical_decision_task_DD_L3,2021.2.3,Win32,59.99160118,,,,,,,,,,,0.5454,1,,,,,,,,,,,,,,m,1,0.5454,,,,,,,,1.32455E-08,-0.222222233,0,0,0,,0,92,92,10,1,BELLY,C,old,m,./images/BELLY.png,,,,,,,,,,,,,,,,,,,,,,,,,,,,,,,,,,,
,,,,,,,,,,,,,,,,,60301b6f654dbde372f01190,20,2022-02-12_15h44.41.552,lexical_decision_task_DD_L3,2021.2.3,Win32,59.99160118,,,,,,,,,,,0.7538,1,,,,,,,,,,,,,,z,1,0.7538,,,,,,,,1.32455E-08,-0.222222233,0,0,0,,0,93,93,93,1,SMONE,C,old,z,./images/SMONE.png,,,,,,,,,,,,,,,,,,,,,,,,,,,,,,,,,,,
,,,,,,,,,,,,,,,,,60301b6f654dbde372f01190,20,2022-02-12_15h44.41.552,lexical_decision_task_DD_L3,2021.2.3,Win32,59.99160118,,,,,,,,,,,0.8041,1,,,,,,,,,,,,,,z,1,0.8041,,,,,,,,1.32455E-08,-0.222222233,0,0,0,,0,94,94,143,1,MONGS,LB,old,z,./images/MONGSLB.png,,,,,,,,,,,,,,,,,,,,,,,,,,,,,,,,,,,
,,,,,,,,,,,,,,,,,60301b6f654dbde372f01190,20,2022-02-12_15h44.41.552,lexical_decision_task_DD_L3,2021.2.3,Win32,59.99160118,,,,,,,,,,,0.6491,1,,,,,,,,,,,,,,z,1,0.6491,,,,,,,,1.32455E-08,-0.222222233,0,0,0,,0,95,95,165,1,TROWN,C,old,z,./images/TROWN.png,,,,,,,,,,,,,,,,,,,,,,,,,,,,,,,,,,,
,,,,,,,,,,,,,,,,,60301b6f654dbde372f01190,20,2022-02-12_15h44.41.552,lexical_decision_task_DD_L3,2021.2.3,Win32,59.99160118,,,,,,,,,,,0.6446,1,,,,,,,,,,,,,,z,1,0.6446,,,,,,,,1.32455E-08,-0.222222233,0,0,0,,0,96,96,126,1,GUELS,C,old,z,./images/GUELS.png,,,,,,,,,,,,,,,,,,,,,,,,,,,,,,,,,,,
,,,,,,,,,,,,,,,,,60301b6f654dbde372f01190,20,2022-02-12_15h44.41.552,lexical_decision_task_DD_L3,2021.2.3,Win32,59.99160118,,,,,,,,,,,0.6838,1,,,,,,,,,,,,,,m,1,0.6838,,,,,,,,1.32455E-08,-0.222222233,0,0,0,,0,97,97,51,1,ONION,LB,old,m,./images/ONIONLB.png,,,,,,,,,,,,,,,,,,,,,,,,,,,,,,,,,,,
,,,,,,,,,,,,,,,,,60301b6f654dbde372f01190,20,2022-02-12_15h44.41.552,lexical_decision_task_DD_L3,2021.2.3,Win32,59.99160118,,,,,,,,,,,0.9137,1,,,,,,,,,,,,,,m,1,0.9137,,,,,,,,1.32455E-08,-0.222222233,0,0,0,,0,98,98,8,1,TULIP,HB,old,m,./images/TULIPHB.png,,,,,,,,,,,,,,,,,,,,,,,,,,,,,,,,,,,
,,,,,,,,,,,,,,,,,60301b6f654dbde372f01190,20,2022-02-12_15h44.41.552,lexical_decision_task_DD_L3,2021.2.3,Win32,59.99160118,,,,,,,,,,,0.8538,1,,,,,,,,,,,,,,m,1,0.8538,,,,,,,,1.32455E-08,-0.222222233,0,0,0,,0,99,99,79,1,CRUST,C,old,m,./images/CRUST.png,,,,,,,,,,,,,,,,,,,,,,,,,,,,,,,,,,,
,,,,,,,,,,,,,,,,,60301b6f654dbde372f01190,20,2022-02-12_15h44.41.552,lexical_decision_task_DD_L3,2021.2.3,Win32,59.99160118,,,,,,,,,,,0.9295,0,,,,,,,,,,,,,,z,0,0.9295,,,,,,,,1.32455E-08,-0.222222233,0,0,0,,0,100,100,17,1,SKIING,HB,old,m,./images/SKIINGHB.png,,,,,,,,,,,,,,,,,,,,,,,,,,,,,,,,,,,
,,,,,,,,,,,,,,,,,60301b6f654dbde372f01190,20,2022-02-12_15h44.41.552,lexical_decision_task_DD_L3,2021.2.3,Win32,59.99160118,,,,,,,,,,,0.7625,1,,,,,,,,,,,,,,m,1,0.7625,,,,,,,,1.32455E-08,-0.222222233,0,0,0,,0,101,101,56,1,PACKET,HB,old,m,./images/PACKETHB.png,,,,,,,,,,,,,,,,,,,,,,,,,,,,,,,,,,,
,,,,,,,,,,,,,,,,,60301b6f654dbde372f01190,20,2022-02-12_15h44.41.552,lexical_decision_task_DD_L3,2021.2.3,Win32,59.99160118,,,,,,,,,,,0.746,1,,,,,,,,,,,,,,z,1,0.746,,,,,,,,1.32455E-08,-0.222222233,0,0,0,,0,102,102,119,1,PAFER,LB,old,z,./images/PAFERLB.png,,,,,,,,,,,,,,,,,,,,,,,,,,,,,,,,,,,
,,,,,,,,,,,,,,,,,60301b6f654dbde372f01190,20,2022-02-12_15h44.41.552,lexical_decision_task_DD_L3,2021.2.3,Win32,59.99160118,,,,,,,,,,,1.0603,1,,,,,,,,,,,,,,z,1,1.0603,,,,,,,,1.32455E-08,-0.222222233,0,0,0,,0,103,103,106,1,CLUMS,HB,old,z,./images/CLUMSHB.png,,,,,,,,,,,,,,,,,,,,,,,,,,,,,,,,,,,
,,,,,,,,,,,,,,,,,60301b6f654dbde372f01190,20,2022-02-12_15h44.41.552,lexical_decision_task_DD_L3,2021.2.3,Win32,59.99160118,,,,,,,,,,,0.6703,1,,,,,,,,,,,,,,m,1,0.6703,,,,,,,,1.32455E-08,-0.222222233,0,0,0,,0,104,104,15,1,GREASE,LB,old,m,./images/GREASELB.png,,,,,,,,,,,,,,,,,,,,,,,,,,,,,,,,,,,
,,,,,,,,,,,,,,,,,60301b6f654dbde372f01190,20,2022-02-12_15h44.41.552,lexical_decision_task_DD_L3,2021.2.3,Win32,59.99160118,,,,,,,,,,,0.7461,1,,,,,,,,,,,,,,z,1,0.7461,,,,,,,,1.32455E-08,-0.222222233,0,0,0,,0,105,105,113,1,LINEW,LB,old,z,./images/LINEWLB.png,,,,,,,,,,,,,,,,,,,,,,,,,,,,,,,,,,,
,,,,,,,,,,,,,,,,,60301b6f654dbde372f01190,20,2022-02-12_15h44.41.552,lexical_decision_task_DD_L3,2021.2.3,Win32,59.99160118,,,,,,,,,,,0.881,0,,,,,,,,,,,,,,z,0,0.881,,,,,,,,1.32455E-08,-0.222222233,0,0,0,,0,106,106,27,1,ATTIC,LB,old,m,./images/ATTICLB.png,,,,,,,,,,,,,,,,,,,,,,,,,,,,,,,,,,,
,,,,,,,,,,,,,,,,,60301b6f654dbde372f01190,20,2022-02-12_15h44.41.552,lexical_decision_task_DD_L3,2021.2.3,Win32,59.99160118,,,,,,,,,,,0.9603,1,,,,,,,,,,,,,,z,1,0.9603,,,,,,,,1.32455E-08,-0.222222233,0,0,0,,0,107,107,105,1,MOKER,C,old,z,./images/MOKER.png,,,,,,,,,,,,,,,,,,,,,,,,,,,,,,,,,,,
,,,,,,,,,,,,,,,,,60301b6f654dbde372f01190,20,2022-02-12_15h44.41.552,lexical_decision_task_DD_L3,2021.2.3,Win32,59.99160118,,,,,,,,,,,0.9619,1,,,,,,,,,,,,,,z,1,0.9619,,,,,,,,1.32455E-08,-0.222222233,0,0,0,,0,108,108,100,1,DRIBS,HB,old,z,./images/DRIBSHB.png,,,,,,,,,,,,,,,,,,,,,,,,,,,,,,,,,,,
,,,,,,,,,,,,,,,,,60301b6f654dbde372f01190,20,2022-02-12_15h44.41.552,lexical_decision_task_DD_L3,2021.2.3,Win32,59.99160118,,,,,,,,,,,1.1729,1,,,,,,,,,,,,,,m,1,1.1729,,,,,,,,1.32455E-08,-0.222222233,0,0,0,,0,109,109,41,1,STRING,HB,old,m,./images/STRINGHB.png,,,,,,,,,,,,,,,,,,,,,,,,,,,,,,,,,,,
,,,,,,,,,,,,,,,,,60301b6f654dbde372f01190,20,2022-02-12_15h44.41.552,lexical_decision_task_DD_L3,2021.2.3,Win32,59.99160118,,,,,,,,,,,1.2163,1,,,,,,,,,,,,,,z,1,1.2163,,,,,,,,1.32455E-08,-0.222222233,0,0,0,,0,110,110,97,1,CHIDS,HB,old,z,./images/CHIDSHB.png,,,,,,,,,,,,,,,,,,,,,,,,,,,,,,,,,,,
,,,,,,,,,,,,,,,,,60301b6f654dbde372f01190,20,2022-02-12_15h44.41.552,lexical_decision_task_DD_L3,2021.2.3,Win32,59.99160118,,,,,,,,,,,0.8679,1,,,,,,,,,,,,,,m,1,0.8679,,,,,,,,1.32455E-08,-0.222222233,0,0,0,,0,111,111,54,1,TRIPOD,LB,old,m,./images/TRIPODLB.png,,,,,,,,,,,,,,,,,,,,,,,,,,,,,,,,,,,
,,,,,,,,,,,,,,,,,60301b6f654dbde372f01190,20,2022-02-12_15h44.41.552,lexical_decision_task_DD_L3,2021.2.3,Win32,59.99160118,,,,,,,,,,,0.9699,1,,,,,,,,,,,,,,z,1,0.9699,,,,,,,,1.32455E-08,-0.222222233,0,0,0,,0,112,112,142,1,PLASK,HB,old,z,./images/PLASKHB.png,,,,,,,,,,,,,,,,,,,,,,,,,,,,,,,,,,,
,,,,,,,,,,,,,,,,,60301b6f654dbde372f01190,20,2022-02-12_15h44.41.552,lexical_decision_task_DD_L3,2021.2.3,Win32,59.99160118,,,,,,,,,,,0.882,1,,,,,,,,,,,,,,z,1,0.882,,,,,,,,1.32455E-08,-0.222222233,0,0,0,,0,113,113,123,1,SEDGE,C,old,z,./images/SEDGE.png,,,,,,,,,,,,,,,,,,,,,,,,,,,,,,,,,,,
,,,,,,,,,,,,,,,,,60301b6f654dbde372f01190,20,2022-02-12_15h44.41.552,lexical_decision_task_DD_L3,2021.2.3,Win32,59.99160118,,,,,,,,,,,0.6997,1,,,,,,,,,,,,,,z,1,0.6997,,,,,,,,1.32455E-08,-0.222222233,0,0,0,,0,114,114,141,1,PLEET,C,old,z,./images/PLEET.png,,,,,,,,,,,,,,,,,,,,,,,,,,,,,,,,,,,
,,,,,,,,,,,,,,,,,60301b6f654dbde372f01190,20,2022-02-12_15h44.41.552,lexical_decision_task_DD_L3,2021.2.3,Win32,59.99160118,,,,,,,,,,,0.8848,1,,,,,,,,,,,,,,z,1,0.8848,,,,,,,,1.32455E-08,-0.222222233,0,0,0,,0,115,115,110,1,CRUNK,LB,old,z,./images/CRUNKLB.png,,,,,,,,,,,,,,,,,,,,,,,,,,,,,,,,,,,
,,,,,,,,,,,,,,,,,60301b6f654dbde372f01190,20,2022-02-12_15h44.41.552,lexical_decision_task_DD_L3,2021.2.3,Win32,59.99160118,,,,,,,,,,,0.7179,1,,,,,,,,,,,,,,m,1,0.7179,,,,,,,,1.32455E-08,-0.222222233,0,0,0,,0,116,116,3,1,FINGER,LB,old,m,./images/FINGERLB.png,,,,,,,,,,,,,,,,,,,,,,,,,,,,,,,,,,,
,,,,,,,,,,,,,,,,,60301b6f654dbde372f01190,20,2022-02-12_15h44.41.552,lexical_decision_task_DD_L3,2021.2.3,Win32,59.99160118,,,,,,,,,,,0.7142,1,,,,,,,,,,,,,,z,1,0.7142,,,,,,,,1.32455E-08,-0.222222233,0,0,0,,0,117,117,129,1,PRANS,C,old,z,./images/PRANS.png,,,,,,,,,,,,,,,,,,,,,,,,,,,,,,,,,,,
,,,,,,,,,,,,,,,,,60301b6f654dbde372f01190,20,2022-02-12_15h44.41.552,lexical_decision_task_DD_L3,2021.2.3,Win32,59.99160118,,,,,,,,,,,0.8876,1,,,,,,,,,,,,,,m,1,0.8876,,,,,,,,1.32455E-08,-0.222222233,0,0,0,,0,118,118,40,1,SWING,C,old,m,./images/SWING.png,,,,,,,,,,,,,,,,,,,,,,,,,,,,,,,,,,,
,,,,,,,,,,,,,,,,,60301b6f654dbde372f01190,20,2022-02-12_15h44.41.552,lexical_decision_task_DD_L3,2021.2.3,Win32,59.99160118,,,,,,,,,,,0.9368,1,,,,,,,,,,,,,,m,1,0.9368,,,,,,,,1.32455E-08,-0.222222233,0,0,0,,0,119,119,47,1,BERRY,HB,old,m,./images/BERRYHB.png,,,,,,,,,,,,,,,,,,,,,,,,,,,,,,,,,,,
,,,,,,,,,,,,,,,,,60301b6f654dbde372f01190,20,2022-02-12_15h44.41.552,lexical_decision_task_DD_L3,2021.2.3,Win32,59.99160118,,,,,,,,,,,0.711,1,,,,,,,,,,,,,,z,1,0.711,,,,,,,,1.32455E-08,-0.222222233,0,0,0,,0,120,120,125,1,MOOKY,LB,old,z,./images/MOOKYLB.png,,,,,,,,,,,,,,,,,,,,,,,,,,,,,,,,,,,
,,,,,,,,,,,,,,,,,60301b6f654dbde372f01190,20,2022-02-12_15h44.41.552,lexical_decision_task_DD_L3,2021.2.3,Win32,59.99160118,,,,,,,,,,,0.8265,1,,,,,,,,,,,,,,m,1,0.8265,,,,,,,,1.32455E-08,-0.222222233,0,0,0,,0,121,121,58,1,BABOON,C,old,m,./images/BABOON.png,,,,,,,,,,,,,,,,,,,,,,,,,,,,,,,,,,,
,,,,,,,,,,,,,,,,,60301b6f654dbde372f01190,20,2022-02-12_15h44.41.552,lexical_decision_task_DD_L3,2021.2.3,Win32,59.99160118,,,,,,,,,,,0.954,1,,,,,,,,,,,,,,m,1,0.954,,,,,,,,1.32455E-08,-0.222222233,0,0,0,,0,122,122,13,1,MOTOR,C,old,m,./images/MOTOR.png,,,,,,,,,,,,,,,,,,,,,,,,,,,,,,,,,,,
,,,,,,,,,,,,,,,,,60301b6f654dbde372f01190,20,2022-02-12_15h44.41.552,lexical_decision_task_DD_L3,2021.2.3,Win32,59.99160118,,,,,,,,,,,0.6732,1,,,,,,,,,,,,,,z,1,0.6732,,,,,,,,1.32455E-08,-0.222222233,0,0,0,,0,123,123,101,1,GLEET,LB,old,z,./images/GLEETLB.png,,,,,,,,,,,,,,,,,,,,,,,,,,,,,,,,,,,
,,,,,,,,,,,,,,,,,60301b6f654dbde372f01190,20,2022-02-12_15h44.41.552,lexical_decision_task_DD_L3,2021.2.3,Win32,59.99160118,,,,,,,,,,,0.8252,1,,,,,,,,,,,,,,m,1,0.8252,,,,,,,,1.32455E-08,-0.222222233,0,0,0,,0,124,124,12,1,SHORE,LB,old,m,./images/SHORELB.png,,,,,,,,,,,,,,,,,,,,,,,,,,,,,,,,,,,
,,,,,,,,,,,,,,,,,60301b6f654dbde372f01190,20,2022-02-12_15h44.41.552,lexical_decision_task_DD_L3,2021.2.3,Win32,59.99160118,,,,,,,,,,,1.0948,1,,,,,,,,,,,,,,z,1,1.0948,,,,,,,,0.131481497,-0.187962973,0,0,0,space,0,125,125,111,1,HOSSE,C,old,z,./images/HOSSE.png,36.9594,,,,,,,,,,,,,,,,,,,,,,,,,,,,,,,,,,
,,,,,,,,,,,,,,,,,60301b6f654dbde372f01190,20,2022-02-12_15h44.41.552,lexical_decision_task_DD_L3,2021.2.3,Win32,59.99160118,,,,,,,,,,,0.5798,1,,,,,,,,,,,,,,z,1,0.5798,,,,,,,,0.131481497,-0.187962973,0,0,0,,0,126,126,122,1,BLOOT,LB,old,z,./images/BLOOTLB.png,,,,,,,,,,,,,,,,,,,,,,,,,,,,,,,,,,,
,,,,,,,,,,,,,,,,,60301b6f654dbde372f01190,20,2022-02-12_15h44.41.552,lexical_decision_task_DD_L3,2021.2.3,Win32,59.99160118,,,,,,,,,,,0.6343,1,,,,,,,,,,,,,,m,1,0.6343,,,,,,,,0.131481497,-0.187962973,0,0,0,,0,127,127,48,1,SPORT,LB,old,m,./images/SPORTLB.png,,,,,,,,,,,,,,,,,,,,,,,,,,,,,,,,,,,
,,,,,,,,,,,,,,,,,60301b6f654dbde372f01190,20,2022-02-12_15h44.41.552,lexical_decision_task_DD_L3,2021.2.3,Win32,59.99160118,,,,,,,,,,,0.583,1,,,,,,,,,,,,,,z,1,0.583,,,,,,,,0.131481497,-0.187962973,0,0,0,,0,128,128,135,1,JOODY,C,old,z,./images/JOODY.png,,,,,,,,,,,,,,,,,,,,,,,,,,,,,,,,,,,
,,,,,,,,,,,,,,,,,60301b6f654dbde372f01190,20,2022-02-12_15h44.41.552,lexical_decision_task_DD_L3,2021.2.3,Win32,59.99160118,,,,,,,,,,,0.6803,1,,,,,,,,,,,,,,z,1,0.6803,,,,,,,,0.131481497,-0.187962973,0,0,0,,0,129,129,95,1,HANTY,LB,old,z,./images/HANTYLB.png,,,,,,,,,,,,,,,,,,,,,,,,,,,,,,,,,,,
,,,,,,,,,,,,,,,,,60301b6f654dbde372f01190,20,2022-02-12_15h44.41.552,lexical_decision_task_DD_L3,2021.2.3,Win32,59.99160118,,,,,,,,,,,0.6177,1,,,,,,,,,,,,,,m,1,0.6177,,,,,,,,0.131481497,-0.187962973,0,0,0,,0,130,130,35,1,PEACH,HB,old,m,./images/PEACHHB.png,,,,,,,,,,,,,,,,,,,,,,,,,,,,,,,,,,,
,,,,,,,,,,,,,,,,,60301b6f654dbde372f01190,20,2022-02-12_15h44.41.552,lexical_decision_task_DD_L3,2021.2.3,Win32,59.99160118,,,,,,,,,,,0.653,1,,,,,,,,,,,,,,z,1,0.653,,,,,,,,0.131481497,-0.187962973,0,0,0,,0,131,131,157,1,INLER,HB,old,z,./images/INLERHB.png,,,,,,,,,,,,,,,,,,,,,,,,,,,,,,,,,,,
,,,,,,,,,,,,,,,,,60301b6f654dbde372f01190,20,2022-02-12_15h44.41.552,lexical_decision_task_DD_L3,2021.2.3,Win32,59.99160118,,,,,,,,,,,0.6957,1,,,,,,,,,,,,,,z,1,0.6957,,,,,,,,0.131481497,-0.187962973,0,0,0,,0,132,132,152,1,FRAIN,LB,old,z,./images/FRAINLB.png,,,,,,,,,,,,,,,,,,,,,,,,,,,,,,,,,,,
,,,,,,,,,,,,,,,,,60301b6f654dbde372f01190,20,2022-02-12_15h44.41.552,lexical_decision_task_DD_L3,2021.2.3,Win32,59.99160118,,,,,,,,,,,0.6407,1,,,,,,,,,,,,,,m,1,0.6407,,,,,,,,0.131481497,-0.187962973,0,0,0,,0,133,133,25,1,WRIST,C,old,m,./images/WRIST.png,,,,,,,,,,,,,,,,,,,,,,,,,,,,,,,,,,,
,,,,,,,,,,,,,,,,,60301b6f654dbde372f01190,20,2022-02-12_15h44.41.552,lexical_decision_task_DD_L3,2021.2.3,Win32,59.99160118,,,,,,,,,,,0.9532,1,,,,,,,,,,,,,,m,1,0.9532,,,,,,,,0.131481497,-0.187962973,0,0,0,,0,134,134,65,1,FARMER,HB,old,m,./images/FARMERHB.png,,,,,,,,,,,,,,,,,,,,,,,,,,,,,,,,,,,
,,,,,,,,,,,,,,,,,60301b6f654dbde372f01190,20,2022-02-12_15h44.41.552,lexical_decision_task_DD_L3,2021.2.3,Win32,59.99160118,,,,,,,,,,,0.5831,1,,,,,,,,,,,,,,z,1,0.5831,,,,,,,,0.131481497,-0.187962973,0,0,0,,0,135,135,117,1,STEEG,C,old,z,./images/STEEG.png,,,,,,,,,,,,,,,,,,,,,,,,,,,,,,,,,,,
,,,,,,,,,,,,,,,,,60301b6f654dbde372f01190,20,2022-02-12_15h44.41.552,lexical_decision_task_DD_L3,2021.2.3,Win32,59.99160118,,,,,,,,,,,0.642,1,,,,,,,,,,,,,,z,1,0.642,,,,,,,,0.131481497,-0.187962973,0,0,0,,0,136,136,134,1,TROSS,LB,old,z,./images/TROSSLB.png,,,,,,,,,,,,,,,,,,,,,,,,,,,,,,,,,,,
,,,,,,,,,,,,,,,,,60301b6f654dbde372f01190,20,2022-02-12_15h44.41.552,lexical_decision_task_DD_L3,2021.2.3,Win32,59.99160118,,,,,,,,,,,0.5946,1,,,,,,,,,,,,,,z,1,0.5946,,,,,,,,0.131481497,-0.187962973,0,0,0,,0,137,137,89,1,DRIEK,LB,old,z,./images/DRIEKLB.png,,,,,,,,,,,,,,,,,,,,,,,,,,,,,,,,,,,
,,,,,,,,,,,,,,,,,60301b6f654dbde372f01190,20,2022-02-12_15h44.41.552,lexical_decision_task_DD_L3,2021.2.3,Win32,59.99160118,,,,,,,,,,,0.7022,1,,,,,,,,,,,,,,z,1,0.7022,,,,,,,,0.131481497,-0.187962973,0,0,0,,0,138,138,160,1,VEETS,HB,old,z,./images/VEETSHB.png,,,,,,,,,,,,,,,,,,,,,,,,,,,,,,,,,,,
,,,,,,,,,,,,,,,,,60301b6f654dbde372f01190,20,2022-02-12_15h44.41.552,lexical_decision_task_DD_L3,2021.2.3,Win32,59.99160118,,,,,,,,,,,0.5538,1,,,,,,,,,,,,,,z,1,0.5538,,,,,,,,0.131481497,-0.187962973,0,0,0,,0,139,139,150,1,NOOLS,C,old,z,./images/NOOLS.png,,,,,,,,,,,,,,,,,,,,,,,,,,,,,,,,,,,
,,,,,,,,,,,,,,,,,60301b6f654dbde372f01190,20,2022-02-12_15h44.41.552,lexical_decision_task_DD_L3,2021.2.3,Win32,59.99160118,,,,,,,,,,,0.9211,1,,,,,,,,,,,,,,z,1,0.9211,,,,,,,,0.131481497,-0.187962973,0,0,0,,0,140,140,154,1,THINT,HB,old,z,./images/THINTHB.png,,,,,,,,,,,,,,,,,,,,,,,,,,,,,,,,,,,
,,,,,,,,,,,,,,,,,60301b6f654dbde372f01190,20,2022-02-12_15h44.41.552,lexical_decision_task_DD_L3,2021.2.3,Win32,59.99160118,,,,,,,,,,,0.7046,1,,,,,,,,,,,,,,m,1,0.7046,,,,,,,,0.131481497,-0.187962973,0,0,0,,0,141,141,36,1,THROAT,LB,old,m,./images/THROATLB.png,,,,,,,,,,,,,,,,,,,,,,,,,,,,,,,,,,,
,,,,,,,,,,,,,,,,,60301b6f654dbde372f01190,20,2022-02-12_15h44.41.552,lexical_decision_task_DD_L3,2021.2.3,Win32,59.99160118,,,,,,,,,,,0.5997,1,,,,,,,,,,,,,,z,1,0.5997,,,,,,,,0.131481497,-0.187962973,0,0,0,,0,142,142,112,1,MYING,HB,old,z,./images/MYINGHB.png,,,,,,,,,,,,,,,,,,,,,,,,,,,,,,,,,,,
,,,,,,,,,,,,,,,,,60301b6f654dbde372f01190,20,2022-02-12_15h44.41.552,lexical_decision_task_DD_L3,2021.2.3,Win32,59.99160118,,,,,,,,,,,0.8915,1,,,,,,,,,,,,,,z,1,0.8915,,,,,,,,0.131481497,-0.187962973,0,0,0,,0,143,143,145,1,LAMEL,HB,old,z,./images/LAMELHB.png,,,,,,,,,,,,,,,,,,,,,,,,,,,,,,,,,,,
,,,,,,,,,,,,,,,,,60301b6f654dbde372f01190,20,2022-02-12_15h44.41.552,lexical_decision_task_DD_L3,2021.2.3,Win32,59.99160118,,,,,,,,,,,0.7682,1,,,,,,,,,,,,,,z,1,0.7682,,,,,,,,0.131481497,-0.187962973,0,0,0,,0,144,144,139,1,BLEAR,HB,old,z,./images/BLEARHB.png,,,,,,,,,,,,,,,,,,,,,,,,,,,,,,,,,,,
,,,,,,,,,,,,,,,,,60301b6f654dbde372f01190,20,2022-02-12_15h44.41.552,lexical_decision_task_DD_L3,2021.2.3,Win32,59.99160118,,,,,,,,,,,0.6855,1,,,,,,,,,,,,,,m,1,0.6855,,,,,,,,0.131481497,-0.187962973,0,0,0,,0,145,145,80,1,WEASEL,HB,old,m,./images/WEASELHB.png,,,,,,,,,,,,,,,,,,,,,,,,,,,,,,,,,,,
,,,,,,,,,,,,,,,,,60301b6f654dbde372f01190,20,2022-02-12_15h44.41.552,lexical_decision_task_DD_L3,2021.2.3,Win32,59.99160118,,,,,,,,,,,0.5764,1,,,,,,,,,,,,,,m,1,0.5764,,,,,,,,0.131481497,-0.187962973,0,0,0,,0,146,146,33,1,MAGGOT,LB,old,m,./images/MAGGOTLB.png,,,,,,,,,,,,,,,,,,,,,,,,,,,,,,,,,,,
,,,,,,,,,,,,,,,,,60301b6f654dbde372f01190,20,2022-02-12_15h44.41.552,lexical_decision_task_DD_L3,2021.2.3,Win32,59.99160118,,,,,,,,,,,0.6999,1,,,,,,,,,,,,,,z,1,0.6999,,,,,,,,0.131481497,-0.187962973,0,0,0,,0,147,147,85,1,CHULK,HB,old,z,./images/CHULKHB.png,,,,,,,,,,,,,,,,,,,,,,,,,,,,,,,,,,,
,,,,,,,,,,,,,,,,,60301b6f654dbde372f01190,20,2022-02-12_15h44.41.552,lexical_decision_task_DD_L3,2021.2.3,Win32,59.99160118,,,,,,,,,,,0.6979,1,,,,,,,,,,,,,,z,1,0.6979,,,,,,,,0.131481497,-0.187962973,0,0,0,,0,148,148,108,1,GRUET,C,old,z,./images/GRUET.png,,,,,,,,,,,,,,,,,,,,,,,,,,,,,,,,,,,
,,,,,,,,,,,,,,,,,60301b6f654dbde372f01190,20,2022-02-12_15h44.41.552,lexical_decision_task_DD_L3,2021.2.3,Win32,59.99160118,,,,,,,,,,,0.8602,1,,,,,,,,,,,,,,m,1,0.8602,,,,,,,,0.131481497,-0.187962973,0,0,0,,0,149,149,69,1,COOKER,LB,old,m,./images/COOKERLB.png,,,,,,,,,,,,,,,,,,,,,,,,,,,,,,,,,,,
,,,,,,,,,,,,,,,,,60301b6f654dbde372f01190,20,2022-02-12_15h44.41.552,lexical_decision_task_DD_L3,2021.2.3,Win32,59.99160118,,,,,,,,,,,0.6401,1,,,,,,,,,,,,,,z,1,0.6401,,,,,,,,0.131481497,-0.187962973,0,0,0,,0,150,150,92,1,PAIMS,LB,old,z,./images/PAIMSLB.png,,,,,,,,,,,,,,,,,,,,,,,,,,,,,,,,,,,
,,,,,,,,,,,,,,,,,60301b6f654dbde372f01190,20,2022-02-12_15h44.41.552,lexical_decision_task_DD_L3,2021.2.3,Win32,59.99160118,,,,,,,,,,,0.8516,1,,,,,,,,,,,,,,m,1,0.8516,,,,,,,,0.131481497,-0.187962973,0,0,0,,0,151,151,42,1,FOLDER,LB,old,m,./images/FOLDERLB.png,,,,,,,,,,,,,,,,,,,,,,,,,,,,,,,,,,,
,,,,,,,,,,,,,,,,,60301b6f654dbde372f01190,20,2022-02-12_15h44.41.552,lexical_decision_task_DD_L3,2021.2.3,Win32,59.99160118,,,,,,,,,,,0.5934,1,,,,,,,,,,,,,,m,1,0.5934,,,,,,,,0.131481497,-0.187962973,0,0,0,,0,152,152,4,1,MUSCLE,C,old,m,./images/MUSCLE.png,,,,,,,,,,,,,,,,,,,,,,,,,,,,,,,,,,,
,,,,,,,,,,,,,,,,,60301b6f654dbde372f01190,20,2022-02-12_15h44.41.552,lexical_decision_task_DD_L3,2021.2.3,Win32,59.99160118,,,,,,,,,,,0.6691,1,,,,,,,,,,,,,,m,1,0.6691,,,,,,,,0.131481497,-0.187962973,0,0,0,,0,153,153,57,1,MOOSE,LB,old,m,./images/MOOSELB.png,,,,,,,,,,,,,,,,,,,,,,,,,,,,,,,,,,,
,,,,,,,,,,,,,,,,,60301b6f654dbde372f01190,20,2022-02-12_15h44.41.552,lexical_decision_task_DD_L3,2021.2.3,Win32,59.99160118,,,,,,,,,,,0.6171,1,,,,,,,,,,,,,,z,1,0.6171,,,,,,,,0.131481497,-0.187962973,0,0,0,,0,154,154,131,1,NACES,LB,old,z,./images/NACESLB.png,,,,,,,,,,,,,,,,,,,,,,,,,,,,,,,,,,,
,,,,,,,,,,,,,,,,,60301b6f654dbde372f01190,20,2022-02-12_15h44.41.552,lexical_decision_task_DD_L3,2021.2.3,Win32,59.99160118,,,,,,,,,,,0.6832,1,,,,,,,,,,,,,,m,1,0.6832,,,,,,,,0.131481497,-0.187962973,0,0,0,,0,155,155,5,1,PASTA,HB,old,m,./images/PASTAHB.png,,,,,,,,,,,,,,,,,,,,,,,,,,,,,,,,,,,
,,,,,,,,,,,,,,,,,60301b6f654dbde372f01190,20,2022-02-12_15h44.41.552,lexical_decision_task_DD_L3,2021.2.3,Win32,59.99160118,,,,,,,,,,,0.7343,1,,,,,,,,,,,,,,m,1,0.7343,,,,,,,,0.131481497,-0.187962973,0,0,0,,0,156,156,52,1,BANNER,C,old,m,./images/BANNER.png,,,,,,,,,,,,,,,,,,,,,,,,,,,,,,,,,,,
,,,,,,,,,,,,,,,,,60301b6f654dbde372f01190,20,2022-02-12_15h44.41.552,lexical_decision_task_DD_L3,2021.2.3,Win32,59.99160118,,,,,,,,,,,0.8079,1,,,,,,,,,,,,,,z,1,0.8079,,,,,,,,0.131481497,-0.187962973,0,0,0,,0,157,157,130,1,CRILL,HB,old,z,./images/CRILLHB.png,,,,,,,,,,,,,,,,,,,,,,,,,,,,,,,,,,,
,,,,,,,,,,,,,,,,,60301b6f654dbde372f01190,20,2022-02-12_15h44.41.552,lexical_decision_task_DD_L3,2021.2.3,Win32,59.99160118,,,,,,,,,,,0.5878,1,,,,,,,,,,,,,,m,1,0.5878,,,,,,,,0.131481497,-0.187962973,0,0,0,,0,158,158,37,1,BIRTH,C,old,m,./images/BIRTH.png,,,,,,,,,,,,,,,,,,,,,,,,,,,,,,,,,,,
,,,,,,,,,,,,,,,,,60301b6f654dbde372f01190,20,2022-02-12_15h44.41.552,lexical_decision_task_DD_L3,2021.2.3,Win32,59.99160118,,,,,,,,,,,0.6137,1,,,,,,,,,,,,,,z,1,0.6137,,,,,,,,0.131481497,-0.187962973,0,0,0,,0,159,159,104,1,GITTY,LB,old,z,./images/GITTYLB.png,,,,,,,,,,,,,,,,,,,,,,,,,,,,,,,,,,,
,,,,,,,,,,,,,,,,,60301b6f654dbde372f01190,20,2022-02-12_15h44.41.552,lexical_decision_task_DD_L3,2021.2.3,Win32,59.99160118,,,,,,,,,,,0.7941,1,,,,,,,,,,,,,,z,1,0.7941,,,,,,,,0.131481497,-0.187962973,0,0,0,,0,160,160,163,1,GAMBA,HB,old,z,./images/GAMBAHB.png,,,,,,,,,,,,,,,,,,,,,,,,,,,,,,,,,,,
,,,,,,,,,,,,,,,,,60301b6f654dbde372f01190,20,2022-02-12_15h44.41.552,lexical_decision_task_DD_L3,2021.2.3,Win32,59.99160118,,,,,,,,,,,0.6249,1,,,,,,,,,,,,,,z,1,0.6249,,,,,,,,0.131481497,-0.187962973,0,0,0,,0,161,161,121,1,CEERS,HB,old,z,./images/CEERSHB.png,,,,,,,,,,,,,,,,,,,,,,,,,,,,,,,,,,,
,,,,,,,,,,,,,,,,,60301b6f654dbde372f01190,20,2022-02-12_15h44.41.552,lexical_decision_task_DD_L3,2021.2.3,Win32,59.99160118,,,,,,,,,,,0.9733,1,,,,,,,,,,,,,,z,1,0.9733,,,,,,,,0.131481497,-0.187962973,0,0,0,,0,162,162,109,1,BURGE,HB,old,z,./images/BURGEHB.png,,,,,,,,,,,,,,,,,,,,,,,,,,,,,,,,,,,
,,,,,,,,,,,,,,,,,60301b6f654dbde372f01190,20,2022-02-12_15h44.41.552,lexical_decision_task_DD_L3,2021.2.3,Win32,59.99160118,,,,,,,,,,,0.6702,1,,,,,,,,,,,,,,m,1,0.6702,,,,,,,,0.131481497,-0.187962973,0,0,0,,0,163,163,66,1,SWEAT,LB,old,m,./images/SWEATLB.png,,,,,,,,,,,,,,,,,,,,,,,,,,,,,,,,,,,
,,,,,,,,,,,,,,,,,60301b6f654dbde372f01190,20,2022-02-12_15h44.41.552,lexical_decision_task_DD_L3,2021.2.3,Win32,59.99160118,,,,,,,,,,,0.9667,1,,,,,,,,,,,,,,m,1,0.9667,,,,,,,,0.131481497,-0.187962973,0,0,0,,0,164,164,19,1,DOUGH,C,old,m,./images/DOUGH.png,,,,,,,,,,,,,,,,,,,,,,,,,,,,,,,,,,,
,,,,,,,,,,,,,,,,,60301b6f654dbde372f01190,20,2022-02-12_15h44.41.552,lexical_decision_task_DD_L3,2021.2.3,Win32,59.99160118,,,,,,,,,,,1.0438,1,,,,,,,,,,,,,,m,1,1.0438,,,,,,,,0.131481497,-0.187962973,0,0,0,,0,165,165,77,1,COUCH,HB,old,m,./images/COUCHHB.png,,,,,,,,,,,,,,,,,,,,,,,,,,,,,,,,,,,
,,,,,,,,,,,,,,,,,60301b6f654dbde372f01190,20,2022-02-12_15h44.41.552,lexical_decision_task_DD_L3,2021.2.3,Win32,59.99160118,,,,,,,,,,,0.8971,1,,,,,,,,,,,,,,m,1,0.8971,,,,,,,,0.131481497,-0.187962973,0,0,0,,0,166,166,82,1,SUNSET,C,old,m,./images/SUNSET.png,,,,,,,,,,,,,,,,,,,,,,,,,,,,,,,,,,,
,,,,,,,,,,,,,,,,,60301b6f654dbde372f01190,20,2022-02-12_15h44.41.552,lexical_decision_task_DD_L3,2021.2.3,Win32,59.99160118,,,,,,,,,,,0.6713,1,,,,,,,,,,,,,,m,1,0.6713,,,,,,,,0.131481497,-0.187962973,0,0,0,,0,167,167,22,1,MELON,C,old,m,./images/MELON.png,,,,,,,,,,,,,,,,,,,,,,,,,,,,,,,,,,,
,,,,,,,,,,,,,,,,,60301b6f654dbde372f01190,20,2022-02-12_15h44.41.552,lexical_decision_task_DD_L3,2021.2.3,Win32,59.99160118,,,,,,,,,,,,,,,,,,,,,,,,,,,,,,,,,,,,,,,,,,,,,,,,How likely will it be that you will recognize the words presented clearly on a scale of 0 (not likely) to 100 (most likely)?,,,,,-0.018518506,-0.405555569,1,0,0,jol_adv,3,3.6556,0,0,0,0,1,,,,,,,,,,,,,,,,,,,,,
,,,,,,,,,,,,,,,,,60301b6f654dbde372f01190,20,2022-02-12_15h44.41.552,lexical_decision_task_DD_L3,2021.2.3,Win32,59.99160118,,,,,,,,,,,,,,,,,,,,,,,,,,,,,,,,,,,,,,,,,,,,,,,,How likely will it be that you will recognize the words presented slighly blurred on a scale of 0 (not likely) to 100 (most likely)?,,,,,,,,,,,3,0.2741,0,1,1,1,1,,,,,,,,,,,,,,,,,,,,,
,,,,,,,,,,,,,,,,,60301b6f654dbde372f01190,20,2022-02-12_15h44.41.552,lexical_decision_task_DD_L3,2021.2.3,Win32,59.99160118,,,,,,,,,,,,,,,,,,,,,,,,,,,,,,,,,,,,,,,,,,,,,,,,How likely will it be that you will recognize the words presented very blurred on a scale of 0 (not likely) to 100 (most likely)?,,,,,,,,,,,1,3.2364,0,2,2,2,1,,,,,,,,,,,,,,,,,,,,,
,,0.094444459,-0.385185198,1,0,0,,,,,,1,test,"In the next phase you will be presented with the words from the the first phase. Your job is to decide whether you remember seeing the word or not. If you remember seeing the word press ""old"" or type ""m"". If you do not remember seeing the word press ""new"" or type ""z"". Please press the space bar or click on continue to begin. ",,,60301b6f654dbde372f01190,20,2022-02-12_15h44.41.552,lexical_decision_task_DD_L3,2021.2.3,Win32,59.99160118,,,,,,,,,,,,,,,,,,,,,,,,,,,,,,,,,,,,,,,,,,,,,,,,,,,,,,,,,,,,,,,,,,instr_done_button,0,0,0,0,1,,,,,,,,,,,,,,,
space,1.2159,0.456481502,-0.071296305,0,0,0,,,,,,1,test,"In the next phase you will be presented with the words from the the first phase. Your job is to decide whether you remember seeing the word or not. If you remember seeing the word press ""old"" or type ""m"". If you do not remember seeing the word press ""new"" or type ""z"". Please press the space bar or click on continue to begin. ",,,60301b6f654dbde372f01190,20,2022-02-12_15h44.41.552,lexical_decision_task_DD_L3,2021.2.3,Win32,59.99160118,,,,,,,,,,,,,,,,,,,,,,,,,,,,,,,,,,,,,,,,,,,,,,,,,,,,,,,,,,,,,,,,,,,1,0,1,0,1,,,,,,,,,,,,,,,
space,2.2248,0.456481502,-0.071296305,0,0,0,,,,,,1,test,"In the next phase you will be presented with the words from the the first phase. Your job is to decide whether you remember seeing the word or not. If you remember seeing the word press ""old"" or type ""m"". If you do not remember seeing the word press ""new"" or type ""z"". Please press the space bar or click on continue to begin. ",,,60301b6f654dbde372f01190,20,2022-02-12_15h44.41.552,lexical_decision_task_DD_L3,2021.2.3,Win32,59.99160118,,,,,,,,,,,,,,,,,,,,,,,,,,,,,,,,,,,,,,,,,,,,,,,,,,,,,,,,,,,,,,,,,,,2,0,2,0,1,,,,,,,,,,,,,,,
space,0.3381,0.456481502,-0.071296305,0,0,0,,,,,,1,test,"In the next phase you will be presented with the words from the the first phase. Your job is to decide whether you remember seeing the word or not. If you remember seeing the word press ""old"" or type ""m"". If you do not remember seeing the word press ""new"" or type ""z"". Please press the space bar or click on continue to begin. ",,,60301b6f654dbde372f01190,20,2022-02-12_15h44.41.552,lexical_decision_task_DD_L3,2021.2.3,Win32,59.99160118,,,,,,,,,,,,,,,,,,,,,,,,,,,,,,,,,,,,,,,,,,,,,,,,,,,,,,,,,,,,,,,,,,,3,0,3,0,1,,,,,,,,,,,,,,,
space,2.3842,0.013888902,0.315740738,0,0,0,,,,,,1,test,"In the next phase you will be presented with the words from the the first phase. Your job is to decide whether you remember seeing the word or not. If you remember seeing the word press ""old"" or type ""m"". If you do not remember seeing the word press ""new"" or type ""z"". Please press the space bar or click on continue to begin. ",,,60301b6f654dbde372f01190,20,2022-02-12_15h44.41.552,lexical_decision_task_DD_L3,2021.2.3,Win32,59.99160118,,,,,,,,,,,,,,,,,,,,,,,,,,,,,,,,,,,,,,,,,,,,,,,,,,,,,,,,,,,,,,,,,,,4,0,4,0,1,,,,,,,,,,,,,,,
,,,,,,,,,,,,,,,,,60301b6f654dbde372f01190,20,2022-02-12_15h44.41.552,lexical_decision_task_DD_L3,2021.2.3,Win32,59.99160118,,,,,,,,,,,1.9894,1,,,,,,,,,,,,,,,,,,,,,,,,0.013888902,0.315740738,0,0,0,,,,,,,STREAM,HB,z,m,./images/STREAMHB.png,,,,,,,,,,,,,,,,,,,,,z,1,1.9894,,,,,,,,0,0,0,125,1
,,,,,,,,,,,,,,,,,60301b6f654dbde372f01190,20,2022-02-12_15h44.41.552,lexical_decision_task_DD_L3,2021.2.3,Win32,59.99160118,,,,,,,,,,,1.1653,1,,,,,,,,,,,,,,,,,,,,,,,,0.013888902,0.315740738,0,0,0,,,,,,,BISHOP,C,z,m,./images/BISHOP.png,,,,,,,,,,,,,,,,,,,,,z,1,1.1653,,,,,,,,0,1,1,133,1
,,,,,,,,,,,,,,,,,60301b6f654dbde372f01190,20,2022-02-12_15h44.41.552,lexical_decision_task_DD_L3,2021.2.3,Win32,59.99160118,,,,,,,,,,,0.8325,1,,,,,,,,,,,,,,,,,,,,,,,,0.013888902,0.315740738,0,0,0,,,,,,,CHAIN,LB,z,m,./images/CHAINLB.png,,,,,,,,,,,,,,,,,,,,,z,1,0.8325,,,,,,,,0,2,2,126,1
,,,,,,,,,,,,,,,,,60301b6f654dbde372f01190,20,2022-02-12_15h44.41.552,lexical_decision_task_DD_L3,2021.2.3,Win32,59.99160118,,,,,,,,,,,0.6366,1,,,,,,,,,,,,,,,,,,,,,,,,0.013888902,0.315740738,0,0,0,,,,,,,MUSCLE,C,m,m,./images/MUSCLE.png,,,,,,,,,,,,,,,,,,,,,m,1,0.6366,,,,,,,,0,3,3,4,1
,,,,,,,,,,,,,,,,,60301b6f654dbde372f01190,20,2022-02-12_15h44.41.552,lexical_decision_task_DD_L3,2021.2.3,Win32,59.99160118,,,,,,,,,,,0.7716,1,,,,,,,,,,,,,,,,,,,,,,,,0.013888902,0.315740738,0,0,0,,,,,,,BIRTH,C,m,m,./images/BIRTH.png,,,,,,,,,,,,,,,,,,,,,m,1,0.7716,,,,,,,,0,4,4,37,1
,,,,,,,,,,,,,,,,,60301b6f654dbde372f01190,20,2022-02-12_15h44.41.552,lexical_decision_task_DD_L3,2021.2.3,Win32,59.99160118,,,,,,,,,,,0.9292,1,,,,,,,,,,,,,,,,,,,,,,,,0.013888902,0.315740738,0,0,0,,,,,,,DOUGH,C,m,m,./images/DOUGH.png,,,,,,,,,,,,,,,,,,,,,m,1,0.9292,,,,,,,,0,5,5,19,1
,,,,,,,,,,,,,,,,,60301b6f654dbde372f01190,20,2022-02-12_15h44.41.552,lexical_decision_task_DD_L3,2021.2.3,Win32,59.99160118,,,,,,,,,,,0.6959,1,,,,,,,,,,,,,,,,,,,,,,,,0.013888902,0.315740738,0,0,0,,,,,,,CRADLE,HB,m,m,./images/CRADLEHB.png,,,,,,,,,,,,,,,,,,,,,m,1,0.6959,,,,,,,,0,6,6,20,1
,,,,,,,,,,,,,,,,,60301b6f654dbde372f01190,20,2022-02-12_15h44.41.552,lexical_decision_task_DD_L3,2021.2.3,Win32,59.99160118,,,,,,,,,,,0.8124,0,,,,,,,,,,,,,,,,,,,,,,,,0.013888902,0.315740738,0,0,0,,,,,,,BASKET,HB,z,m,./images/BASKETHB.png,,,,,,,,,,,,,,,,,,,,,m,0,0.8124,,,,,,,,0,7,7,128,1
,,,,,,,,,,,,,,,,,60301b6f654dbde372f01190,20,2022-02-12_15h44.41.552,lexical_decision_task_DD_L3,2021.2.3,Win32,59.99160118,,,,,,,,,,,0.7185,1,,,,,,,,,,,,,,,,,,,,,,,,0.013888902,0.315740738,0,0,0,,,,,,,FARMER,HB,m,m,./images/FARMERHB.png,,,,,,,,,,,,,,,,,,,,,m,1,0.7185,,,,,,,,0,8,8,65,1
,,,,,,,,,,,,,,,,,60301b6f654dbde372f01190,20,2022-02-12_15h44.41.552,lexical_decision_task_DD_L3,2021.2.3,Win32,59.99160118,,,,,,,,,,,0.7001,1,,,,,,,,,,,,,,,,,,,,,,,,0.013888902,0.315740738,0,0,0,,,,,,,JELLY,C,m,m,./images/JELLY.png,,,,,,,,,,,,,,,,,,,,,m,1,0.7001,,,,,,,,0,9,9,64,1
,,,,,,,,,,,,,,,,,60301b6f654dbde372f01190,20,2022-02-12_15h44.41.552,lexical_decision_task_DD_L3,2021.2.3,Win32,59.99160118,,,,,,,,,,,0.8362,1,,,,,,,,,,,,,,,,,,,,,,,,0.013888902,0.315740738,0,0,0,,,,,,,POKER,C,z,m,./images/POKER.png,,,,,,,,,,,,,,,,,,,,,z,1,0.8362,,,,,,,,0,10,10,151,1
,,,,,,,,,,,,,,,,,60301b6f654dbde372f01190,20,2022-02-12_15h44.41.552,lexical_decision_task_DD_L3,2021.2.3,Win32,59.99160118,,,,,,,,,,,0.8479,1,,,,,,,,,,,,,,,,,,,,,,,,0.013888902,0.315740738,0,0,0,,,,,,,QUILL,C,m,m,./images/QUILL.png,,,,,,,,,,,,,,,,,,,,,m,1,0.8479,,,,,,,,0,11,11,31,1
,,,,,,,,,,,,,,,,,60301b6f654dbde372f01190,20,2022-02-12_15h44.41.552,lexical_decision_task_DD_L3,2021.2.3,Win32,59.99160118,,,,,,,,,,,0.892,1,,,,,,,,,,,,,,,,,,,,,,,,0.013888902,0.315740738,0,0,0,,,,,,,CRUST,C,m,m,./images/CRUST.png,,,,,,,,,,,,,,,,,,,,,m,1,0.892,,,,,,,,0,12,12,79,1
,,,,,,,,,,,,,,,,,60301b6f654dbde372f01190,20,2022-02-12_15h44.41.552,lexical_decision_task_DD_L3,2021.2.3,Win32,59.99160118,,,,,,,,,,,1.0355,1,,,,,,,,,,,,,,,,,,,,,,,,0.013888902,0.315740738,0,0,0,,,,,,,CEMENT,HB,m,m,./images/CEMENTHB.png,,,,,,,,,,,,,,,,,,,,,m,1,1.0355,,,,,,,,0,13,13,74,1
,,,,,,,,,,,,,,,,,60301b6f654dbde372f01190,20,2022-02-12_15h44.41.552,lexical_decision_task_DD_L3,2021.2.3,Win32,59.99160118,,,,,,,,,,,0.8461,1,,,,,,,,,,,,,,,,,,,,,,,,0.013888902,0.315740738,0,0,0,,,,,,,BROOM,LB,z,m,./images/BROOMLB.png,,,,,,,,,,,,,,,,,,,,,z,1,0.8461,,,,,,,,0,14,14,162,1
,,,,,,,,,,,,,,,,,60301b6f654dbde372f01190,20,2022-02-12_15h44.41.552,lexical_decision_task_DD_L3,2021.2.3,Win32,59.99160118,,,,,,,,,,,1.6643,1,,,,,,,,,,,,,,,,,,,,,,,,0.013888902,0.315740738,0,0,0,,,,,,,RHINO,LB,m,m,./images/RHINOLB.png,,,,,,,,,,,,,,,,,,,,,m,1,1.6643,,,,,,,,0,15,15,9,1
,,,,,,,,,,,,,,,,,60301b6f654dbde372f01190,20,2022-02-12_15h44.41.552,lexical_decision_task_DD_L3,2021.2.3,Win32,59.99160118,,,,,,,,,,,1.1364,0,,,,,,,,,,,,,,,,,,,,,,,,0.013888902,0.315740738,0,0,0,,,,,,,FLESH,LB,z,m,./images/FLESHLB.png,,,,,,,,,,,,,,,,,,,,,m,0,1.1364,,,,,,,,0,16,16,108,1
,,,,,,,,,,,,,,,,,60301b6f654dbde372f01190,20,2022-02-12_15h44.41.552,lexical_decision_task_DD_L3,2021.2.3,Win32,59.99160118,,,,,,,,,,,0.8636,1,,,,,,,,,,,,,,,,,,,,,,,,0.013888902,0.315740738,0,0,0,,,,,,,LIZARD,HB,m,m,./images/LIZARDHB.png,,,,,,,,,,,,,,,,,,,,,m,1,0.8636,,,,,,,,0,17,17,44,1
,,,,,,,,,,,,,,,,,60301b6f654dbde372f01190,20,2022-02-12_15h44.41.552,lexical_decision_task_DD_L3,2021.2.3,Win32,59.99160118,,,,,,,,,,,0.7524,1,,,,,,,,,,,,,,,,,,,,,,,,0.013888902,0.315740738,0,0,0,,,,,,,BERRY,HB,m,m,./images/BERRYHB.png,,,,,,,,,,,,,,,,,,,,,m,1,0.7524,,,,,,,,0,18,18,47,1
,,,,,,,,,,,,,,,,,60301b6f654dbde372f01190,20,2022-02-12_15h44.41.552,lexical_decision_task_DD_L3,2021.2.3,Win32,59.99160118,,,,,,,,,,,0.6836,1,,,,,,,,,,,,,,,,,,,,,,,,0.013888902,0.315740738,0,0,0,,,,,,,FINGER,LB,m,m,./images/FINGERLB.png,,,,,,,,,,,,,,,,,,,,,m,1,0.6836,,,,,,,,0,19,19,3,1
,,,,,,,,,,,,,,,,,60301b6f654dbde372f01190,20,2022-02-12_15h44.41.552,lexical_decision_task_DD_L3,2021.2.3,Win32,59.99160118,,,,,,,,,,,0.9969,1,,,,,,,,,,,,,,,,,,,,,,,,0.013888902,0.315740738,0,0,0,,,,,,,STAIN,LB,z,m,./images/STAINLB.png,,,,,,,,,,,,,,,,,,,,,z,1,0.9969,,,,,,,,0,20,20,90,1
,,,,,,,,,,,,,,,,,60301b6f654dbde372f01190,20,2022-02-12_15h44.41.552,lexical_decision_task_DD_L3,2021.2.3,Win32,59.99160118,,,,,,,,,,,0.7697,1,,,,,,,,,,,,,,,,,,,,,,,,0.013888902,0.315740738,0,0,0,,,,,,,PLANET,HB,z,m,./images/PLANETHB.png,,,,,,,,,,,,,,,,,,,,,z,1,0.7697,,,,,,,,0,21,21,164,1
,,,,,,,,,,,,,,,,,60301b6f654dbde372f01190,20,2022-02-12_15h44.41.552,lexical_decision_task_DD_L3,2021.2.3,Win32,59.99160118,,,,,,,,,,,0.89,0,,,,,,,,,,,,,,,,,,,,,,,,0.013888902,0.315740738,0,0,0,,,,,,,TULIP,HB,m,m,./images/TULIPHB.png,,,,,,,,,,,,,,,,,,,,,z,0,0.89,,,,,,,,0,22,22,8,1
,,,,,,,,,,,,,,,,,60301b6f654dbde372f01190,20,2022-02-12_15h44.41.552,lexical_decision_task_DD_L3,2021.2.3,Win32,59.99160118,,,,,,,,,,,0.9847,1,,,,,,,,,,,,,,,,,,,,,,,,0.013888902,0.315740738,0,0,0,,,,,,,KITTEN,LB,m,m,./images/KITTENLB.png,,,,,,,,,,,,,,,,,,,,,m,1,0.9847,,,,,,,,0,23,23,45,1
,,,,,,,,,,,,,,,,,60301b6f654dbde372f01190,20,2022-02-12_15h44.41.552,lexical_decision_task_DD_L3,2021.2.3,Win32,59.99160118,,,,,,,,,,,0.8199,1,,,,,,,,,,,,,,,,,,,,,,,,0.013888902,0.315740738,0,0,0,,,,,,,WEASEL,HB,m,m,./images/WEASELHB.png,,,,,,,,,,,,,,,,,,,,,m,1,0.8199,,,,,,,,0,24,24,80,1
,,,,,,,,,,,,,,,,,60301b6f654dbde372f01190,20,2022-02-12_15h44.41.552,lexical_decision_task_DD_L3,2021.2.3,Win32,59.99160118,,,,,,,,,,,1.3032,1,,,,,,,,,,,,,,,,,,,,,,,,0.013888902,0.315740738,0,0,0,,,,,,,PENCE,C,m,m,./images/PENCE.png,,,,,,,,,,,,,,,,,,,,,m,1,1.3032,,,,,,,,0,25,25,16,1
,,,,,,,,,,,,,,,,,60301b6f654dbde372f01190,20,2022-02-12_15h44.41.552,lexical_decision_task_DD_L3,2021.2.3,Win32,59.99160118,,,,,,,,,,,0.8704,1,,,,,,,,,,,,,,,,,,,,,,,,0.013888902,0.315740738,0,0,0,,,,,,,DRUMS,C,m,m,./images/DRUMS.png,,,,,,,,,,,,,,,,,,,,,m,1,0.8704,,,,,,,,0,26,26,49,1
,,,,,,,,,,,,,,,,,60301b6f654dbde372f01190,20,2022-02-12_15h44.41.552,lexical_decision_task_DD_L3,2021.2.3,Win32,59.99160118,,,,,,,,,,,0.6698,1,,,,,,,,,,,,,,,,,,,,,,,,0.013888902,0.315740738,0,0,0,,,,,,,MOOSE,LB,m,m,./images/MOOSELB.png,,,,,,,,,,,,,,,,,,,,,m,1,0.6698,,,,,,,,0,27,27,57,1
,,,,,,,,,,,,,,,,,60301b6f654dbde372f01190,20,2022-02-12_15h44.41.552,lexical_decision_task_DD_L3,2021.2.3,Win32,59.99160118,,,,,,,,,,,0.6326,1,,,,,,,,,,,,,,,,,,,,,,,,0.013888902,0.315740738,0,0,0,,,,,,,PACKET,HB,m,m,./images/PACKETHB.png,,,,,,,,,,,,,,,,,,,,,m,1,0.6326,,,,,,,,0,28,28,56,1
,,,,,,,,,,,,,,,,,60301b6f654dbde372f01190,20,2022-02-12_15h44.41.552,lexical_decision_task_DD_L3,2021.2.3,Win32,59.99160118,,,,,,,,,,,0.6187,1,,,,,,,,,,,,,,,,,,,,,,,,0.013888902,0.315740738,0,0,0,,,,,,,PEARL,C,m,m,./images/PEARL.png,,,,,,,,,,,,,,,,,,,,,m,1,0.6187,,,,,,,,0,29,29,46,1
,,,,,,,,,,,,,,,,,60301b6f654dbde372f01190,20,2022-02-12_15h44.41.552,lexical_decision_task_DD_L3,2021.2.3,Win32,59.99160118,,,,,,,,,,,0.8241,0,,,,,,,,,,,,,,,,,,,,,,,,0.013888902,0.315740738,0,0,0,,,,,,,CURRY,LB,z,m,./images/CURRYLB.png,,,,,,,,,,,,,,,,,,,,,m,0,0.8241,,,,,,,,0,30,30,144,1
,,,,,,,,,,,,,,,,,60301b6f654dbde372f01190,20,2022-02-12_15h44.41.552,lexical_decision_task_DD_L3,2021.2.3,Win32,59.99160118,,,,,,,,,,,0.5625,1,,,,,,,,,,,,,,,,,,,,,,,,0.013888902,0.315740738,0,0,0,,,,,,,SMOKER,HB,m,m,./images/SMOKERHB.png,,,,,,,,,,,,,,,,,,,,,m,1,0.5625,,,,,,,,0,31,31,26,1
,,,,,,,,,,,,,,,,,60301b6f654dbde372f01190,20,2022-02-12_15h44.41.552,lexical_decision_task_DD_L3,2021.2.3,Win32,59.99160118,,,,,,,,,,,1.4068,1,,,,,,,,,,,,,,,,,,,,,,,,0.013888902,0.315740738,0,0,0,,,,,,,BUTTER,LB,z,m,./images/BUTTERLB.png,,,,,,,,,,,,,,,,,,,,,z,1,1.4068,,,,,,,,0,32,32,111,1
,,,,,,,,,,,,,,,,,60301b6f654dbde372f01190,20,2022-02-12_15h44.41.552,lexical_decision_task_DD_L3,2021.2.3,Win32,59.99160118,,,,,,,,,,,0.7365,1,,,,,,,,,,,,,,,,,,,,,,,,0.013888902,0.315740738,0,0,0,,,,,,,ARROW,LB,z,m,./images/ARROWLB.png,,,,,,,,,,,,,,,,,,,,,z,1,0.7365,,,,,,,,0,33,33,153,1
,,,,,,,,,,,,,,,,,60301b6f654dbde372f01190,20,2022-02-12_15h44.41.552,lexical_decision_task_DD_L3,2021.2.3,Win32,59.99160118,,,,,,,,,,,1.1024,1,,,,,,,,,,,,,,,,,,,,,,,,0.013888902,0.315740738,0,0,0,,,,,,,PARCEL,LB,z,m,./images/PARCELLB.png,,,,,,,,,,,,,,,,,,,,,z,1,1.1024,,,,,,,,0,34,34,102,1
,,,,,,,,,,,,,,,,,60301b6f654dbde372f01190,20,2022-02-12_15h44.41.552,lexical_decision_task_DD_L3,2021.2.3,Win32,59.99160118,,,,,,,,,,,0.7235,1,,,,,,,,,,,,,,,,,,,,,,,,0.013888902,0.315740738,0,0,0,,,,,,,CANOE,C,z,m,./images/CANOE.png,,,,,,,,,,,,,,,,,,,,,z,1,0.7235,,,,,,,,0,35,35,142,1
,,,,,,,,,,,,,,,,,60301b6f654dbde372f01190,20,2022-02-12_15h44.41.552,lexical_decision_task_DD_L3,2021.2.3,Win32,59.99160118,,,,,,,,,,,1.4024,1,,,,,,,,,,,,,,,,,,,,,,,,0.013888902,0.315740738,0,0,0,,,,,,,CHERRY,LB,z,m,./images/CHERRYLB.png,,,,,,,,,,,,,,,,,,,,,z,1,1.4024,,,,,,,,0,36,36,138,1
,,,,,,,,,,,,,,,,,60301b6f654dbde372f01190,20,2022-02-12_15h44.41.552,lexical_decision_task_DD_L3,2021.2.3,Win32,59.99160118,,,,,,,,,,,1.1437,1,,,,,,,,,,,,,,,,,,,,,,,,0.013888902,0.315740738,0,0,0,,,,,,,STOVE,HB,z,m,./images/STOVEHB.png,,,,,,,,,,,,,,,,,,,,,z,1,1.1437,,,,,,,,0,37,37,86,1
,,,,,,,,,,,,,,,,,60301b6f654dbde372f01190,20,2022-02-12_15h44.41.552,lexical_decision_task_DD_L3,2021.2.3,Win32,59.99160118,,,,,,,,,,,0.8512,1,,,,,,,,,,,,,,,,,,,,,,,,0.013888902,0.315740738,0,0,0,,,,,,,MEDAL,HB,z,m,./images/MEDALHB.png,,,,,,,,,,,,,,,,,,,,,z,1,0.8512,,,,,,,,0,38,38,95,1
,,,,,,,,,,,,,,,,,60301b6f654dbde372f01190,20,2022-02-12_15h44.41.552,lexical_decision_task_DD_L3,2021.2.3,Win32,59.99160118,,,,,,,,,,,0.6893,1,,,,,,,,,,,,,,,,,,,,,,,,0.013888902,0.315740738,0,0,0,,,,,,,INFANT,C,m,m,./images/INFANT.png,,,,,,,,,,,,,,,,,,,,,m,1,0.6893,,,,,,,,0,39,39,76,1
,,,,,,,,,,,,,,,,,60301b6f654dbde372f01190,20,2022-02-12_15h44.41.552,lexical_decision_task_DD_L3,2021.2.3,Win32,59.99160118,,,,,,,,,,,0.8024,1,,,,,,,,,,,,,,,,,,,,,,,,0.013888902,0.315740738,0,0,0,,,,,,,PARADE,HB,z,m,./images/PARADEHB.png,,,,,,,,,,,,,,,,,,,,,z,1,0.8024,,,,,,,,0,40,40,101,1
,,,,,,,,,,,,,,,,,60301b6f654dbde372f01190,20,2022-02-12_15h44.41.552,lexical_decision_task_DD_L3,2021.2.3,Win32,59.99160118,,,,,,,,,,,0.8071,0,,,,,,,,,,,,,,,,,,,,,,,,0.100925941,-0.113888898,0,0,0,space,,,,,,SNAKE,C,z,m,./images/SNAKE.png,70.2347,,,,,,,,,,,,,,,,,,,,m,0,0.8071,,,,,,,,0,41,41,124,1
,,,,,,,,,,,,,,,,,60301b6f654dbde372f01190,20,2022-02-12_15h44.41.552,lexical_decision_task_DD_L3,2021.2.3,Win32,59.99160118,,,,,,,,,,,0.7579,1,,,,,,,,,,,,,,,,,,,,,,,,0.100925941,-0.113888898,0,0,0,,,,,,,SUNSET,C,m,m,./images/SUNSET.png,,,,,,,,,,,,,,,,,,,,,m,1,0.7579,,,,,,,,0,42,42,82,1
,,,,,,,,,,,,,,,,,60301b6f654dbde372f01190,20,2022-02-12_15h44.41.552,lexical_decision_task_DD_L3,2021.2.3,Win32,59.99160118,,,,,,,,,,,0.8844,0,,,,,,,,,,,,,,,,,,,,,,,,0.100925941,-0.113888898,0,0,0,,,,,,,STOOL,C,z,m,./images/STOOL.png,,,,,,,,,,,,,,,,,,,,,m,0,0.8844,,,,,,,,0,43,43,127,1
,,,,,,,,,,,,,,,,,60301b6f654dbde372f01190,20,2022-02-12_15h44.41.552,lexical_decision_task_DD_L3,2021.2.3,Win32,59.99160118,,,,,,,,,,,0.7041,0,,,,,,,,,,,,,,,,,,,,,,,,0.100925941,-0.113888898,0,0,0,,,,,,,GRAPE,C,z,m,./images/GRAPE.png,,,,,,,,,,,,,,,,,,,,,m,0,0.7041,,,,,,,,0,44,44,100,1
,,,,,,,,,,,,,,,,,60301b6f654dbde372f01190,20,2022-02-12_15h44.41.552,lexical_decision_task_DD_L3,2021.2.3,Win32,59.99160118,,,,,,,,,,,1.0526,1,,,,,,,,,,,,,,,,,,,,,,,,0.100925941,-0.113888898,0,0,0,,,,,,,DIVER,LB,z,m,./images/DIVERLB.png,,,,,,,,,,,,,,,,,,,,,z,1,1.0526,,,,,,,,0,45,45,93,1
,,,,,,,,,,,,,,,,,60301b6f654dbde372f01190,20,2022-02-12_15h44.41.552,lexical_decision_task_DD_L3,2021.2.3,Win32,59.99160118,,,,,,,,,,,1.0186,0,,,,,,,,,,,,,,,,,,,,,,,,0.100925941,-0.11574075,0,0,0,,,,,,,STATUE,LB,z,m,./images/STATUELB.png,,,,,,,,,,,,,,,,,,,,,m,0,1.0186,,,,,,,,0,46,46,150,1
,,,,,,,,,,,,,,,,,60301b6f654dbde372f01190,20,2022-02-12_15h44.41.552,lexical_decision_task_DD_L3,2021.2.3,Win32,59.99160118,,,,,,,,,,,0.6083,1,,,,,,,,,,,,,,,,,,,,,,,,0.100925941,-0.11574075,0,0,0,,,,,,,PICKLE,HB,m,m,./images/PICKLEHB.png,,,,,,,,,,,,,,,,,,,,,m,1,0.6083,,,,,,,,0,47,47,14,1
,,,,,,,,,,,,,,,,,60301b6f654dbde372f01190,20,2022-02-12_15h44.41.552,lexical_decision_task_DD_L3,2021.2.3,Win32,59.99160118,,,,,,,,,,,0.753,1,,,,,,,,,,,,,,,,,,,,,,,,0.100925941,-0.11574075,0,0,0,,,,,,,MOSQUE,C,m,m,./images/MOSQUE.png,,,,,,,,,,,,,,,,,,,,,m,1,0.753,,,,,,,,0,48,48,43,1
,,,,,,,,,,,,,,,,,60301b6f654dbde372f01190,20,2022-02-12_15h44.41.552,lexical_decision_task_DD_L3,2021.2.3,Win32,59.99160118,,,,,,,,,,,0.7694,1,,,,,,,,,,,,,,,,,,,,,,,,0.100925941,-0.11574075,0,0,0,,,,,,,MALLET,HB,m,m,./images/MALLETHB.png,,,,,,,,,,,,,,,,,,,,,m,1,0.7694,,,,,,,,0,49,49,50,1
,,,,,,,,,,,,,,,,,60301b6f654dbde372f01190,20,2022-02-12_15h44.41.552,lexical_decision_task_DD_L3,2021.2.3,Win32,59.99160118,,,,,,,,,,,0.8532,1,,,,,,,,,,,,,,,,,,,,,,,,0.100925941,-0.11574075,0,0,0,,,,,,,WAGON,C,z,m,./images/WAGON.png,,,,,,,,,,,,,,,,,,,,,z,1,0.8532,,,,,,,,0,50,50,91,1
,,,,,,,,,,,,,,,,,60301b6f654dbde372f01190,20,2022-02-12_15h44.41.552,lexical_decision_task_DD_L3,2021.2.3,Win32,59.99160118,,,,,,,,,,,1.1843,1,,,,,,,,,,,,,,,,,,,,,,,,0.100925941,-0.11574075,0,0,0,,,,,,,POSTER,HB,z,m,./images/POSTERHB.png,,,,,,,,,,,,,,,,,,,,,z,1,1.1843,,,,,,,,0,51,51,137,1
,,,,,,,,,,,,,,,,,60301b6f654dbde372f01190,20,2022-02-12_15h44.41.552,lexical_decision_task_DD_L3,2021.2.3,Win32,59.99160118,,,,,,,,,,,1.1561,0,,,,,,,,,,,,,,,,,,,,,,,,0.100925941,-0.11574075,0,0,0,,,,,,,MUFFIN,C,m,m,./images/MUFFIN.png,,,,,,,,,,,,,,,,,,,,,z,0,1.1561,,,,,,,,0,52,52,55,1
,,,,,,,,,,,,,,,,,60301b6f654dbde372f01190,20,2022-02-12_15h44.41.552,lexical_decision_task_DD_L3,2021.2.3,Win32,59.99160118,,,,,,,,,,,1.0684,1,,,,,,,,,,,,,,,,,,,,,,,,0.100925941,-0.11574075,0,0,0,,,,,,,SAILOR,C,m,m,./images/SAILOR.png,,,,,,,,,,,,,,,,,,,,,m,1,1.0684,,,,,,,,0,53,53,67,1
,,,,,,,,,,,,,,,,,60301b6f654dbde372f01190,20,2022-02-12_15h44.41.552,lexical_decision_task_DD_L3,2021.2.3,Win32,59.99160118,,,,,,,,,,,1.1554,0,,,,,,,,,,,,,,,,,,,,,,,,0.100925941,-0.11574075,0,0,0,,,,,,,BELLY,C,m,m,./images/BELLY.png,,,,,,,,,,,,,,,,,,,,,z,0,1.1554,,,,,,,,0,54,54,10,1
,,,,,,,,,,,,,,,,,60301b6f654dbde372f01190,20,2022-02-12_15h44.41.552,lexical_decision_task_DD_L3,2021.2.3,Win32,59.99160118,,,,,,,,,,,0.958,1,,,,,,,,,,,,,,,,,,,,,,,,0.100925941,-0.11574075,0,0,0,,,,,,,NOOSE,LB,m,m,./images/NOOSELB.png,,,,,,,,,,,,,,,,,,,,,m,1,0.958,,,,,,,,0,55,55,72,1
,,,,,,,,,,,,,,,,,60301b6f654dbde372f01190,20,2022-02-12_15h44.41.552,lexical_decision_task_DD_L3,2021.2.3,Win32,59.99160118,,,,,,,,,,,1.1672,0,,,,,,,,,,,,,,,,,,,,,,,,0.100925941,-0.11574075,0,0,0,,,,,,,SWEAT,LB,m,m,./images/SWEATLB.png,,,,,,,,,,,,,,,,,,,,,z,0,1.1672,,,,,,,,0,56,56,66,1
,,,,,,,,,,,,,,,,,60301b6f654dbde372f01190,20,2022-02-12_15h44.41.552,lexical_decision_task_DD_L3,2021.2.3,Win32,59.99160118,,,,,,,,,,,1.2682,1,,,,,,,,,,,,,,,,,,,,,,,,0.100925941,-0.11574075,0,0,0,,,,,,,CRATER,LB,z,m,./images/CRATERLB.png,,,,,,,,,,,,,,,,,,,,,z,1,1.2682,,,,,,,,0,57,57,87,1
,,,,,,,,,,,,,,,,,60301b6f654dbde372f01190,20,2022-02-12_15h44.41.552,lexical_decision_task_DD_L3,2021.2.3,Win32,59.99160118,,,,,,,,,,,0.7793,1,,,,,,,,,,,,,,,,,,,,,,,,0.100925941,-0.11574075,0,0,0,,,,,,,SHORE,LB,m,m,./images/SHORELB.png,,,,,,,,,,,,,,,,,,,,,m,1,0.7793,,,,,,,,0,58,58,12,1
,,,,,,,,,,,,,,,,,60301b6f654dbde372f01190,20,2022-02-12_15h44.41.552,lexical_decision_task_DD_L3,2021.2.3,Win32,59.99160118,,,,,,,,,,,1.0834,0,,,,,,,,,,,,,,,,,,,,,,,,0.100925941,-0.11574075,0,0,0,,,,,,,WRIST,C,m,m,./images/WRIST.png,,,,,,,,,,,,,,,,,,,,,z,0,1.0834,,,,,,,,0,59,59,25,1
,,,,,,,,,,,,,,,,,60301b6f654dbde372f01190,20,2022-02-12_15h44.41.552,lexical_decision_task_DD_L3,2021.2.3,Win32,59.99160118,,,,,,,,,,,0.9188,1,,,,,,,,,,,,,,,,,,,,,,,,0.100925941,-0.11574075,0,0,0,,,,,,,GRANNY,HB,z,m,./images/GRANNYHB.png,,,,,,,,,,,,,,,,,,,,,z,1,0.9188,,,,,,,,0,60,60,104,1
,,,,,,,,,,,,,,,,,60301b6f654dbde372f01190,20,2022-02-12_15h44.41.552,lexical_decision_task_DD_L3,2021.2.3,Win32,59.99160118,,,,,,,,,,,1.8376,0,,,,,,,,,,,,,,,,,,,,,,,,0.100925941,-0.11574075,0,0,0,,,,,,,CARPET,HB,m,m,./images/CARPETHB.png,,,,,,,,,,,,,,,,,,,,,z,0,1.8376,,,,,,,,0,61,61,53,1
,,,,,,,,,,,,,,,,,60301b6f654dbde372f01190,20,2022-02-12_15h44.41.552,lexical_decision_task_DD_L3,2021.2.3,Win32,59.99160118,,,,,,,,,,,0.7848,1,,,,,,,,,,,,,,,,,,,,,,,,0.100925941,-0.11574075,0,0,0,,,,,,,MOTOR,C,m,m,./images/MOTOR.png,,,,,,,,,,,,,,,,,,,,,m,1,0.7848,,,,,,,,0,62,62,13,1
,,,,,,,,,,,,,,,,,60301b6f654dbde372f01190,20,2022-02-12_15h44.41.552,lexical_decision_task_DD_L3,2021.2.3,Win32,59.99160118,,,,,,,,,,,0.8569,0,,,,,,,,,,,,,,,,,,,,,,,,0.100925941,-0.11574075,0,0,0,,,,,,,SCREW,LB,m,m,./images/SCREWLB.png,,,,,,,,,,,,,,,,,,,,,z,0,0.8569,,,,,,,,0,63,63,24,1
,,,,,,,,,,,,,,,,,60301b6f654dbde372f01190,20,2022-02-12_15h44.41.552,lexical_decision_task_DD_L3,2021.2.3,Win32,59.99160118,,,,,,,,,,,1.0015,1,,,,,,,,,,,,,,,,,,,,,,,,0.100925941,-0.11574075,0,0,0,,,,,,,PEBBLE,C,z,m,./images/PEBBLE.png,,,,,,,,,,,,,,,,,,,,,z,1,1.0015,,,,,,,,0,64,64,166,1
,,,,,,,,,,,,,,,,,60301b6f654dbde372f01190,20,2022-02-12_15h44.41.552,lexical_decision_task_DD_L3,2021.2.3,Win32,59.99160118,,,,,,,,,,,0.9857,1,,,,,,,,,,,,,,,,,,,,,,,,0.100925941,-0.11574075,0,0,0,,,,,,,ARTIST,C,z,m,./images/ARTIST.png,,,,,,,,,,,,,,,,,,,,,z,1,0.9857,,,,,,,,0,65,65,145,1
,,,,,,,,,,,,,,,,,60301b6f654dbde372f01190,20,2022-02-12_15h44.41.552,lexical_decision_task_DD_L3,2021.2.3,Win32,59.99160118,,,,,,,,,,,0.6907,1,,,,,,,,,,,,,,,,,,,,,,,,0.100925941,-0.11574075,0,0,0,,,,,,,FALCON,C,m,m,./images/FALCON.png,,,,,,,,,,,,,,,,,,,,,m,1,0.6907,,,,,,,,0,66,66,28,1
,,,,,,,,,,,,,,,,,60301b6f654dbde372f01190,20,2022-02-12_15h44.41.552,lexical_decision_task_DD_L3,2021.2.3,Win32,59.99160118,,,,,,,,,,,0.917,1,,,,,,,,,,,,,,,,,,,,,,,,0.100925941,-0.11574075,0,0,0,,,,,,,LAGOON,HB,z,m,./images/LAGOONHB.png,,,,,,,,,,,,,,,,,,,,,z,1,0.917,,,,,,,,0,67,67,131,1
,,,,,,,,,,,,,,,,,60301b6f654dbde372f01190,20,2022-02-12_15h44.41.552,lexical_decision_task_DD_L3,2021.2.3,Win32,59.99160118,,,,,,,,,,,0.9014,1,,,,,,,,,,,,,,,,,,,,,,,,0.100925941,-0.11574075,0,0,0,,,,,,,ENGINE,HB,z,m,./images/ENGINEHB.png,,,,,,,,,,,,,,,,,,,,,z,1,0.9014,,,,,,,,0,68,68,122,1
,,,,,,,,,,,,,,,,,60301b6f654dbde372f01190,20,2022-02-12_15h44.41.552,lexical_decision_task_DD_L3,2021.2.3,Win32,59.99160118,,,,,,,,,,,0.8804,1,,,,,,,,,,,,,,,,,,,,,,,,0.100925941,-0.11574075,0,0,0,,,,,,,PLANK,C,m,m,./images/PLANK.png,,,,,,,,,,,,,,,,,,,,,m,1,0.8804,,,,,,,,0,69,69,1,1
,,,,,,,,,,,,,,,,,60301b6f654dbde372f01190,20,2022-02-12_15h44.41.552,lexical_decision_task_DD_L3,2021.2.3,Win32,59.99160118,,,,,,,,,,,0.7917,1,,,,,,,,,,,,,,,,,,,,,,,,0.100925941,-0.11574075,0,0,0,,,,,,,BUNNY,C,z,m,./images/BUNNY.png,,,,,,,,,,,,,,,,,,,,,z,1,0.7917,,,,,,,,0,70,70,97,1
,,,,,,,,,,,,,,,,,60301b6f654dbde372f01190,20,2022-02-12_15h44.41.552,lexical_decision_task_DD_L3,2021.2.3,Win32,59.99160118,,,,,,,,,,,1.1376,1,,,,,,,,,,,,,,,,,,,,,,,,0.100925941,-0.11574075,0,0,0,,,,,,,DESERT,C,z,m,./images/DESERT.png,,,,,,,,,,,,,,,,,,,,,z,1,1.1376,,,,,,,,0,71,71,136,1
,,,,,,,,,,,,,,,,,60301b6f654dbde372f01190,20,2022-02-12_15h44.41.552,lexical_decision_task_DD_L3,2021.2.3,Win32,59.99160118,,,,,,,,,,,0.9842,1,,,,,,,,,,,,,,,,,,,,,,,,0.100925941,-0.11574075,0,0,0,,,,,,,PISTOL,HB,z,m,./images/PISTOLHB.png,,,,,,,,,,,,,,,,,,,,,z,1,0.9842,,,,,,,,0,72,72,113,1
,,,,,,,,,,,,,,,,,60301b6f654dbde372f01190,20,2022-02-12_15h44.41.552,lexical_decision_task_DD_L3,2021.2.3,Win32,59.99160118,,,,,,,,,,,0.9893,1,,,,,,,,,,,,,,,,,,,,,,,,0.100925941,-0.11574075,0,0,0,,,,,,,CLIFF,HB,z,m,./images/CLIFFHB.png,,,,,,,,,,,,,,,,,,,,,z,1,0.9893,,,,,,,,0,73,73,92,1
,,,,,,,,,,,,,,,,,60301b6f654dbde372f01190,20,2022-02-12_15h44.41.552,lexical_decision_task_DD_L3,2021.2.3,Win32,59.99160118,,,,,,,,,,,0.9234,1,,,,,,,,,,,,,,,,,,,,,,,,0.100925941,-0.11574075,0,0,0,,,,,,,TWINS,LB,m,m,./images/TWINSLB.png,,,,,,,,,,,,,,,,,,,,,m,1,0.9234,,,,,,,,0,74,74,60,1
,,,,,,,,,,,,,,,,,60301b6f654dbde372f01190,20,2022-02-12_15h44.41.552,lexical_decision_task_DD_L3,2021.2.3,Win32,59.99160118,,,,,,,,,,,0.7686,1,,,,,,,,,,,,,,,,,,,,,,,,0.100925941,-0.11574075,0,0,0,,,,,,,HOCKEY,HB,z,m,./images/HOCKEYHB.png,,,,,,,,,,,,,,,,,,,,,z,1,0.7686,,,,,,,,0,75,75,116,1
,,,,,,,,,,,,,,,,,60301b6f654dbde372f01190,20,2022-02-12_15h44.41.552,lexical_decision_task_DD_L3,2021.2.3,Win32,59.99160118,,,,,,,,,,,0.9771,1,,,,,,,,,,,,,,,,,,,,,,,,0.100925941,-0.11574075,0,0,0,,,,,,,DONKEY,C,z,m,./images/DONKEY.png,,,,,,,,,,,,,,,,,,,,,z,1,0.9771,,,,,,,,0,76,76,103,1
,,,,,,,,,,,,,,,,,60301b6f654dbde372f01190,20,2022-02-12_15h44.41.552,lexical_decision_task_DD_L3,2021.2.3,Win32,59.99160118,,,,,,,,,,,0.9214,1,,,,,,,,,,,,,,,,,,,,,,,,0.100925941,-0.11574075,0,0,0,,,,,,,WHEEL,HB,z,m,./images/WHEELHB.png,,,,,,,,,,,,,,,,,,,,,z,1,0.9214,,,,,,,,0,77,77,161,1
,,,,,,,,,,,,,,,,,60301b6f654dbde372f01190,20,2022-02-12_15h44.41.552,lexical_decision_task_DD_L3,2021.2.3,Win32,59.99160118,,,,,,,,,,,0.945,0,,,,,,,,,,,,,,,,,,,,,,,,0.100925941,-0.11574075,0,0,0,,,,,,,THROAT,LB,m,m,./images/THROATLB.png,,,,,,,,,,,,,,,,,,,,,z,0,0.945,,,,,,,,0,78,78,36,1
,,,,,,,,,,,,,,,,,60301b6f654dbde372f01190,20,2022-02-12_15h44.41.552,lexical_decision_task_DD_L3,2021.2.3,Win32,59.99160118,,,,,,,,,,,0.9832,0,,,,,,,,,,,,,,,,,,,,,,,,0.100925941,-0.11574075,0,0,0,,,,,,,STRING,HB,m,m,./images/STRINGHB.png,,,,,,,,,,,,,,,,,,,,,z,0,0.9832,,,,,,,,0,79,79,41,1
,,,,,,,,,,,,,,,,,60301b6f654dbde372f01190,20,2022-02-12_15h44.41.552,lexical_decision_task_DD_L3,2021.2.3,Win32,59.99160118,,,,,,,,,,,0.7369,0,,,,,,,,,,,,,,,,,,,,,,,,0.100925941,-0.11574075,0,0,0,,,,,,,PEACH,HB,m,m,./images/PEACHHB.png,,,,,,,,,,,,,,,,,,,,,z,0,0.7369,,,,,,,,0,80,80,35,1
,,,,,,,,,,,,,,,,,60301b6f654dbde372f01190,20,2022-02-12_15h44.41.552,lexical_decision_task_DD_L3,2021.2.3,Win32,59.99160118,,,,,,,,,,,0.6944,0,,,,,,,,,,,,,,,,,,,,,,,,0.100925941,-0.11574075,0,0,0,,,,,,,SNACK,C,m,m,./images/SNACK.png,,,,,,,,,,,,,,,,,,,,,z,0,0.6944,,,,,,,,0,81,81,73,1
,,,,,,,,,,,,,,,,,60301b6f654dbde372f01190,20,2022-02-12_15h44.41.552,lexical_decision_task_DD_L3,2021.2.3,Win32,59.99160118,,,,,,,,,,,0.809,1,,,,,,,,,,,,,,,,,,,,,,,,0.100925941,-0.11574075,0,0,0,,,,,,,BANNER,C,m,m,./images/BANNER.png,,,,,,,,,,,,,,,,,,,,,m,1,0.809,,,,,,,,0,82,82,52,1
,,,,,,,,,,,,,,,,,60301b6f654dbde372f01190,20,2022-02-12_15h44.41.552,lexical_decision_task_DD_L3,2021.2.3,Win32,59.99160118,,,,,,,,,,,0.6919,1,,,,,,,,,,,,,,,,,,,,,,,,0.100925941,-0.11574075,0,0,0,space,,,,,,ONION,LB,m,m,./images/ONIONLB.png,0.7183,,,,,,,,,,,,,,,,,,,,m,1,0.6919,,,,,,,,0,83,83,51,1
,,,,,,,,,,,,,,,,,60301b6f654dbde372f01190,20,2022-02-12_15h44.41.552,lexical_decision_task_DD_L3,2021.2.3,Win32,59.99160118,,,,,,,,,,,0.6352,1,,,,,,,,,,,,,,,,,,,,,,,,0.100925941,-0.11574075,0,0,0,,,,,,,GARDEN,C,z,m,./images/GARDEN.png,,,,,,,,,,,,,,,,,,,,,z,1,0.6352,,,,,,,,0,84,84,94,1
,,,,,,,,,,,,,,,,,60301b6f654dbde372f01190,20,2022-02-12_15h44.41.552,lexical_decision_task_DD_L3,2021.2.3,Win32,59.99160118,,,,,,,,,,,0.701,1,,,,,,,,,,,,,,,,,,,,,,,,0.100925941,-0.11574075,0,0,0,,,,,,,BEARD,HB,m,m,./images/BEARDHB.png,,,,,,,,,,,,,,,,,,,,,m,1,0.701,,,,,,,,0,85,85,2,1
,,,,,,,,,,,,,,,,,60301b6f654dbde372f01190,20,2022-02-12_15h44.41.552,lexical_decision_task_DD_L3,2021.2.3,Win32,59.99160118,,,,,,,,,,,0.8413,1,,,,,,,,,,,,,,,,,,,,,,,,0.100925941,-0.11574075,0,0,0,,,,,,,SPINE,HB,z,m,./images/SPINEHB.png,,,,,,,,,,,,,,,,,,,,,z,1,0.8413,,,,,,,,0,86,86,149,1
,,,,,,,,,,,,,,,,,60301b6f654dbde372f01190,20,2022-02-12_15h44.41.552,lexical_decision_task_DD_L3,2021.2.3,Win32,59.99160118,,,,,,,,,,,0.9229,1,,,,,,,,,,,,,,,,,,,,,,,,0.100925941,-0.11574075,0,0,0,,,,,,,BUBBLE,HB,z,m,./images/BUBBLEHB.png,,,,,,,,,,,,,,,,,,,,,z,1,0.9229,,,,,,,,0,87,87,155,1
,,,,,,,,,,,,,,,,,60301b6f654dbde372f01190,20,2022-02-12_15h44.41.552,lexical_decision_task_DD_L3,2021.2.3,Win32,59.99160118,,,,,,,,,,,0.8519,1,,,,,,,,,,,,,,,,,,,,,,,,0.100925941,-0.11574075,0,0,0,,,,,,,CLOTH,HB,z,m,./images/CLOTHHB.png,,,,,,,,,,,,,,,,,,,,,z,1,0.8519,,,,,,,,0,88,88,107,1
,,,,,,,,,,,,,,,,,60301b6f654dbde372f01190,20,2022-02-12_15h44.41.552,lexical_decision_task_DD_L3,2021.2.3,Win32,59.99160118,,,,,,,,,,,0.8672,1,,,,,,,,,,,,,,,,,,,,,,,,0.100925941,-0.11574075,0,0,0,,,,,,,BOILER,LB,z,m,./images/BOILERLB.png,,,,,,,,,,,,,,,,,,,,,z,1,0.8672,,,,,,,,0,89,89,120,1
,,,,,,,,,,,,,,,,,60301b6f654dbde372f01190,20,2022-02-12_15h44.41.552,lexical_decision_task_DD_L3,2021.2.3,Win32,59.99160118,,,,,,,,,,,0.5745,1,,,,,,,,,,,,,,,,,,,,,,,,0.100925941,-0.11574075,0,0,0,,,,,,,MAMMAL,HB,z,m,./images/MAMMALHB.png,,,,,,,,,,,,,,,,,,,,,z,1,0.5745,,,,,,,,0,90,90,146,1
,,,,,,,,,,,,,,,,,60301b6f654dbde372f01190,20,2022-02-12_15h44.41.552,lexical_decision_task_DD_L3,2021.2.3,Win32,59.99160118,,,,,,,,,,,0.6508,1,,,,,,,,,,,,,,,,,,,,,,,,0.100925941,-0.11574075,0,0,0,,,,,,,BAKER,LB,z,m,./images/BAKERLB.png,,,,,,,,,,,,,,,,,,,,,z,1,0.6508,,,,,,,,0,91,91,147,1
,,,,,,,,,,,,,,,,,60301b6f654dbde372f01190,20,2022-02-12_15h44.41.552,lexical_decision_task_DD_L3,2021.2.3,Win32,59.99160118,,,,,,,,,,,0.6275,0,,,,,,,,,,,,,,,,,,,,,,,,0.100925941,-0.11574075,0,0,0,,,,,,,BURIAL,HB,m,m,./images/BURIALHB.png,,,,,,,,,,,,,,,,,,,,,z,0,0.6275,,,,,,,,0,92,92,59,1
,,,,,,,,,,,,,,,,,60301b6f654dbde372f01190,20,2022-02-12_15h44.41.552,lexical_decision_task_DD_L3,2021.2.3,Win32,59.99160118,,,,,,,,,,,0.835,1,,,,,,,,,,,,,,,,,,,,,,,,0.100925941,-0.11574075,0,0,0,,,,,,,CANYON,C,m,m,./images/CANYON.png,,,,,,,,,,,,,,,,,,,,,m,1,0.835,,,,,,,,0,93,93,34,1
,,,,,,,,,,,,,,,,,60301b6f654dbde372f01190,20,2022-02-12_15h44.41.552,lexical_decision_task_DD_L3,2021.2.3,Win32,59.99160118,,,,,,,,,,,0.7026,1,,,,,,,,,,,,,,,,,,,,,,,,0.100925941,-0.11574075,0,0,0,,,,,,,FLASK,LB,z,m,./images/FLASKLB.png,,,,,,,,,,,,,,,,,,,,,z,1,0.7026,,,,,,,,0,94,94,156,1
,,,,,,,,,,,,,,,,,60301b6f654dbde372f01190,20,2022-02-12_15h44.41.552,lexical_decision_task_DD_L3,2021.2.3,Win32,59.99160118,,,,,,,,,,,0.5824,0,,,,,,,,,,,,,,,,,,,,,,,,0.100925941,-0.11574075,0,0,0,,,,,,,ATTIC,LB,m,m,./images/ATTICLB.png,,,,,,,,,,,,,,,,,,,,,z,0,0.5824,,,,,,,,0,95,95,27,1
,,,,,,,,,,,,,,,,,60301b6f654dbde372f01190,20,2022-02-12_15h44.41.552,lexical_decision_task_DD_L3,2021.2.3,Win32,59.99160118,,,,,,,,,,,0.9251,1,,,,,,,,,,,,,,,,,,,,,,,,0.100925941,-0.11574075,0,0,0,,,,,,,RULER,C,z,m,./images/RULER.png,,,,,,,,,,,,,,,,,,,,,z,1,0.9251,,,,,,,,0,96,96,163,1
,,,,,,,,,,,,,,,,,60301b6f654dbde372f01190,20,2022-02-12_15h44.41.552,lexical_decision_task_DD_L3,2021.2.3,Win32,59.99160118,,,,,,,,,,,0.7186,1,,,,,,,,,,,,,,,,,,,,,,,,0.100925941,-0.11574075,0,0,0,,,,,,,DRILL,LB,z,m,./images/DRILLLB.png,,,,,,,,,,,,,,,,,,,,,z,1,0.7186,,,,,,,,0,97,97,165,1
,,,,,,,,,,,,,,,,,60301b6f654dbde372f01190,20,2022-02-12_15h44.41.552,lexical_decision_task_DD_L3,2021.2.3,Win32,59.99160118,,,,,,,,,,,0.5536,1,,,,,,,,,,,,,,,,,,,,,,,,0.100925941,-0.11574075,0,0,0,,,,,,,BLOKE,LB,z,m,./images/BLOKELB.png,,,,,,,,,,,,,,,,,,,,,z,1,0.5536,,,,,,,,0,98,98,96,1
,,,,,,,,,,,,,,,,,60301b6f654dbde372f01190,20,2022-02-12_15h44.41.552,lexical_decision_task_DD_L3,2021.2.3,Win32,59.99160118,,,,,,,,,,,0.8184,0,,,,,,,,,,,,,,,,,,,,,,,,0.100925941,-0.11574075,0,0,0,,,,,,,BARREL,HB,m,m,./images/BARRELHB.png,,,,,,,,,,,,,,,,,,,,,z,0,0.8184,,,,,,,,0,99,99,32,1
,,,,,,,,,,,,,,,,,60301b6f654dbde372f01190,20,2022-02-12_15h44.41.552,lexical_decision_task_DD_L3,2021.2.3,Win32,59.99160118,,,,,,,,,,,0.6853,1,,,,,,,,,,,,,,,,,,,,,,,,0.100925941,-0.11574075,0,0,0,,,,,,,SHIELD,LB,z,m,./images/SHIELDLB.png,,,,,,,,,,,,,,,,,,,,,z,1,0.6853,,,,,,,,0,100,100,132,1
,,,,,,,,,,,,,,,,,60301b6f654dbde372f01190,20,2022-02-12_15h44.41.552,lexical_decision_task_DD_L3,2021.2.3,Win32,59.99160118,,,,,,,,,,,0.7353,1,,,,,,,,,,,,,,,,,,,,,,,,0.100925941,-0.11574075,0,0,0,,,,,,,SAUNA,LB,z,m,./images/SAUNALB.png,,,,,,,,,,,,,,,,,,,,,z,1,0.7353,,,,,,,,0,101,101,117,1
,,,,,,,,,,,,,,,,,60301b6f654dbde372f01190,20,2022-02-12_15h44.41.552,lexical_decision_task_DD_L3,2021.2.3,Win32,59.99160118,,,,,,,,,,,0.6821,1,,,,,,,,,,,,,,,,,,,,,,,,0.100925941,-0.11574075,0,0,0,,,,,,,JUMPER,HB,z,m,./images/JUMPERHB.png,,,,,,,,,,,,,,,,,,,,,z,1,0.6821,,,,,,,,0,102,102,158,1
,,,,,,,,,,,,,,,,,60301b6f654dbde372f01190,20,2022-02-12_15h44.41.552,lexical_decision_task_DD_L3,2021.2.3,Win32,59.99160118,,,,,,,,,,,0.668,1,,,,,,,,,,,,,,,,,,,,,,,,0.100925941,-0.11574075,0,0,0,,,,,,,HEATER,HB,z,m,./images/HEATERHB.png,,,,,,,,,,,,,,,,,,,,,z,1,0.668,,,,,,,,0,103,103,140,1
,,,,,,,,,,,,,,,,,60301b6f654dbde372f01190,20,2022-02-12_15h44.41.552,lexical_decision_task_DD_L3,2021.2.3,Win32,59.99160118,,,,,,,,,,,0.6523,1,,,,,,,,,,,,,,,,,,,,,,,,0.100925941,-0.11574075,0,0,0,,,,,,,COLLAR,LB,z,m,./images/COLLARLB.png,,,,,,,,,,,,,,,,,,,,,z,1,0.6523,,,,,,,,0,104,104,99,1
,,,,,,,,,,,,,,,,,60301b6f654dbde372f01190,20,2022-02-12_15h44.41.552,lexical_decision_task_DD_L3,2021.2.3,Win32,59.99160118,,,,,,,,,,,0.6896,1,,,,,,,,,,,,,,,,,,,,,,,,0.100925941,-0.11574075,0,0,0,,,,,,,MIDGET,C,z,m,./images/MIDGET.png,,,,,,,,,,,,,,,,,,,,,z,1,0.6896,,,,,,,,0,105,105,160,1
,,,,,,,,,,,,,,,,,60301b6f654dbde372f01190,20,2022-02-12_15h44.41.552,lexical_decision_task_DD_L3,2021.2.3,Win32,59.99160118,,,,,,,,,,,1.2247,0,,,,,,,,,,,,,,,,,,,,,,,,0.100925941,-0.11574075,0,0,0,,,,,,,STORM,LB,m,m,./images/STORMLB.png,,,,,,,,,,,,,,,,,,,,,z,0,1.2247,,,,,,,,0,106,106,30,1
,,,,,,,,,,,,,,,,,60301b6f654dbde372f01190,20,2022-02-12_15h44.41.552,lexical_decision_task_DD_L3,2021.2.3,Win32,59.99160118,,,,,,,,,,,0.8869,0,,,,,,,,,,,,,,,,,,,,,,,,0.100925941,-0.11574075,0,0,0,,,,,,,BRUSH,HB,z,m,./images/BRUSHHB.png,,,,,,,,,,,,,,,,,,,,,m,0,0.8869,,,,,,,,0,107,107,143,1
,,,,,,,,,,,,,,,,,60301b6f654dbde372f01190,20,2022-02-12_15h44.41.552,lexical_decision_task_DD_L3,2021.2.3,Win32,59.99160118,,,,,,,,,,,0.7014,0,,,,,,,,,,,,,,,,,,,,,,,,0.100925941,-0.11574075,0,0,0,,,,,,,SQUARE,LB,m,m,./images/SQUARELB.png,,,,,,,,,,,,,,,,,,,,,z,0,0.7014,,,,,,,,0,108,108,6,1
,,,,,,,,,,,,,,,,,60301b6f654dbde372f01190,20,2022-02-12_15h44.41.552,lexical_decision_task_DD_L3,2021.2.3,Win32,59.99160118,,,,,,,,,,,0.931,1,,,,,,,,,,,,,,,,,,,,,,,,0.100925941,-0.11574075,0,0,0,,,,,,,STEAK,C,z,m,./images/STEAK.png,,,,,,,,,,,,,,,,,,,,,z,1,0.931,,,,,,,,0,109,109,115,1
,,,,,,,,,,,,,,,,,60301b6f654dbde372f01190,20,2022-02-12_15h44.41.552,lexical_decision_task_DD_L3,2021.2.3,Win32,59.99160118,,,,,,,,,,,0.667,0,,,,,,,,,,,,,,,,,,,,,,,,0.100925941,-0.11574075,0,0,0,,,,,,,SHELF,LB,m,m,./images/SHELFLB.png,,,,,,,,,,,,,,,,,,,,,z,0,0.667,,,,,,,,0,110,110,39,1
,,,,,,,,,,,,,,,,,60301b6f654dbde372f01190,20,2022-02-12_15h44.41.552,lexical_decision_task_DD_L3,2021.2.3,Win32,59.99160118,,,,,,,,,,,1.471,0,,,,,,,,,,,,,,,,,,,,,,,,0.100925941,-0.11574075,0,0,0,,,,,,,PURSE,HB,m,m,./images/PURSEHB.png,,,,,,,,,,,,,,,,,,,,,z,0,1.471,,,,,,,,0,111,111,62,1
,,,,,,,,,,,,,,,,,60301b6f654dbde372f01190,20,2022-02-12_15h44.41.552,lexical_decision_task_DD_L3,2021.2.3,Win32,59.99160118,,,,,,,,,,,0.6889,0,,,,,,,,,,,,,,,,,,,,,,,,0.100925941,-0.11574075,0,0,0,,,,,,,JAGUAR,LB,m,m,./images/JAGUARLB.png,,,,,,,,,,,,,,,,,,,,,z,0,0.6889,,,,,,,,0,112,112,18,1
,,,,,,,,,,,,,,,,,60301b6f654dbde372f01190,20,2022-02-12_15h44.41.552,lexical_decision_task_DD_L3,2021.2.3,Win32,59.99160118,,,,,,,,,,,0.7372,1,,,,,,,,,,,,,,,,,,,,,,,,0.100925941,-0.11574075,0,0,0,,,,,,,FOLDER,LB,m,m,./images/FOLDERLB.png,,,,,,,,,,,,,,,,,,,,,m,1,0.7372,,,,,,,,0,113,113,42,1
,,,,,,,,,,,,,,,,,60301b6f654dbde372f01190,20,2022-02-12_15h44.41.552,lexical_decision_task_DD_L3,2021.2.3,Win32,59.99160118,,,,,,,,,,,0.8683,0,,,,,,,,,,,,,,,,,,,,,,,,0.100925941,-0.11574075,0,0,0,,,,,,,CRUMB,HB,m,m,./images/CRUMBHB.png,,,,,,,,,,,,,,,,,,,,,z,0,0.8683,,,,,,,,0,114,114,29,1
,,,,,,,,,,,,,,,,,60301b6f654dbde372f01190,20,2022-02-12_15h44.41.552,lexical_decision_task_DD_L3,2021.2.3,Win32,59.99160118,,,,,,,,,,,0.8678,1,,,,,,,,,,,,,,,,,,,,,,,,0.100925941,-0.11574075,0,0,0,,,,,,,BONNET,HB,m,m,./images/BONNETHB.png,,,,,,,,,,,,,,,,,,,,,m,1,0.8678,,,,,,,,0,115,115,11,1
,,,,,,,,,,,,,,,,,60301b6f654dbde372f01190,20,2022-02-12_15h44.41.552,lexical_decision_task_DD_L3,2021.2.3,Win32,59.99160118,,,,,,,,,,,0.789,0,,,,,,,,,,,,,,,,,,,,,,,,0.100925941,-0.11574075,0,0,0,,,,,,,FENCE,HB,z,m,./images/FENCEHB.png,,,,,,,,,,,,,,,,,,,,,m,0,0.789,,,,,,,,0,116,116,98,1
,,,,,,,,,,,,,,,,,60301b6f654dbde372f01190,20,2022-02-12_15h44.41.552,lexical_decision_task_DD_L3,2021.2.3,Win32,59.99160118,,,,,,,,,,,0.7755,1,,,,,,,,,,,,,,,,,,,,,,,,0.100925941,-0.11574075,0,0,0,,,,,,,SLOPE,LB,z,m,./images/SLOPELB.png,,,,,,,,,,,,,,,,,,,,,z,1,0.7755,,,,,,,,0,117,117,114,1
,,,,,,,,,,,,,,,,,60301b6f654dbde372f01190,20,2022-02-12_15h44.41.552,lexical_decision_task_DD_L3,2021.2.3,Win32,59.99160118,,,,,,,,,,,1.0199,0,,,,,,,,,,,,,,,,,,,,,,,,0.100925941,-0.11574075,0,0,0,,,,,,,PIMPLE,HB,m,m,./images/PIMPLEHB.png,,,,,,,,,,,,,,,,,,,,,z,0,1.0199,,,,,,,,0,118,118,71,1
,,,,,,,,,,,,,,,,,60301b6f654dbde372f01190,20,2022-02-12_15h44.41.552,lexical_decision_task_DD_L3,2021.2.3,Win32,59.99160118,,,,,,,,,,,0.8696,0,,,,,,,,,,,,,,,,,,,,,,,,0.100925941,-0.11574075,0,0,0,,,,,,,COUCH,HB,m,m,./images/COUCHHB.png,,,,,,,,,,,,,,,,,,,,,z,0,0.8696,,,,,,,,0,119,119,77,1
,,,,,,,,,,,,,,,,,60301b6f654dbde372f01190,20,2022-02-12_15h44.41.552,lexical_decision_task_DD_L3,2021.2.3,Win32,59.99160118,,,,,,,,,,,0.7072,1,,,,,,,,,,,,,,,,,,,,,,,,0.100925941,-0.11574075,0,0,0,,,,,,,MONKEY,LB,z,m,./images/MONKEYLB.png,,,,,,,,,,,,,,,,,,,,,z,1,0.7072,,,,,,,,0,120,120,129,1
,,,,,,,,,,,,,,,,,60301b6f654dbde372f01190,20,2022-02-12_15h44.41.552,lexical_decision_task_DD_L3,2021.2.3,Win32,59.99160118,,,,,,,,,,,0.6317,0,,,,,,,,,,,,,,,,,,,,,,,,0.100925941,-0.11574075,0,0,0,,,,,,,SPORT,LB,m,m,./images/SPORTLB.png,,,,,,,,,,,,,,,,,,,,,z,0,0.6317,,,,,,,,0,121,121,48,1
,,,,,,,,,,,,,,,,,60301b6f654dbde372f01190,20,2022-02-12_15h44.41.552,lexical_decision_task_DD_L3,2021.2.3,Win32,59.99160118,,,,,,,,,,,0.6822,0,,,,,,,,,,,,,,,,,,,,,,,,0.100925941,-0.11574075,0,0,0,,,,,,,PAINT,C,m,m,./images/PAINT.png,,,,,,,,,,,,,,,,,,,,,z,0,0.6822,,,,,,,,0,122,122,7,1
,,,,,,,,,,,,,,,,,60301b6f654dbde372f01190,20,2022-02-12_15h44.41.552,lexical_decision_task_DD_L3,2021.2.3,Win32,59.99160118,,,,,,,,,,,0.6223,1,,,,,,,,,,,,,,,,,,,,,,,,0.100925941,-0.11574075,0,0,0,,,,,,,WHISKY,HB,z,m,./images/WHISKYHB.png,,,,,,,,,,,,,,,,,,,,,z,1,0.6223,,,,,,,,0,123,123,167,1
,,,,,,,,,,,,,,,,,60301b6f654dbde372f01190,20,2022-02-12_15h44.41.552,lexical_decision_task_DD_L3,2021.2.3,Win32,59.99160118,,,,,,,,,,,0.4672,1,,,,,,,,,,,,,,,,,,,,,,,,0.100925941,-0.11574075,0,0,0,,,,,,,GLOVE,C,z,m,./images/GLOVE.png,,,,,,,,,,,,,,,,,,,,,z,1,0.4672,,,,,,,,0,124,124,157,1
,,,,,,,,,,,,,,,,,60301b6f654dbde372f01190,20,2022-02-12_15h44.41.552,lexical_decision_task_DD_L3,2021.2.3,Win32,59.99160118,,,,,,,,,,,0.6024,0,,,,,,,,,,,,,,,,,,,,,,,,0.100925941,-0.11574075,0,0,0,space,,,,,,TOMATO,LB,m,m,./images/TOMATOLB.png,1.441,,,,,,,,,,,,,,,,,,,,z,0,0.6024,,,,,,,,0,125,125,0,1
,,,,,,,,,,,,,,,,,60301b6f654dbde372f01190,20,2022-02-12_15h44.41.552,lexical_decision_task_DD_L3,2021.2.3,Win32,59.99160118,,,,,,,,,,,0.6016,1,,,,,,,,,,,,,,,,,,,,,,,,0.100925941,-0.11574075,0,0,0,,,,,,,CANDY,LB,z,m,./images/CANDYLB.png,,,,,,,,,,,,,,,,,,,,,z,1,0.6016,,,,,,,,0,126,126,123,1
,,,,,,,,,,,,,,,,,60301b6f654dbde372f01190,20,2022-02-12_15h44.41.552,lexical_decision_task_DD_L3,2021.2.3,Win32,59.99160118,,,,,,,,,,,1.9913,1,,,,,,,,,,,,,,,,,,,,,,,,0.100925941,-0.11574075,0,0,0,,,,,,,POODLE,LB,m,m,./images/POODLELB.png,,,,,,,,,,,,,,,,,,,,,m,1,1.9913,,,,,,,,0,127,127,81,1
,,,,,,,,,,,,,,,,,60301b6f654dbde372f01190,20,2022-02-12_15h44.41.552,lexical_decision_task_DD_L3,2021.2.3,Win32,59.99160118,,,,,,,,,,,0.7675,1,,,,,,,,,,,,,,,,,,,,,,,,0.100925941,-0.11574075,0,0,0,,,,,,,VALLEY,HB,z,m,./images/VALLEYHB.png,,,,,,,,,,,,,,,,,,,,,z,1,0.7675,,,,,,,,0,128,128,152,1
,,,,,,,,,,,,,,,,,60301b6f654dbde372f01190,20,2022-02-12_15h44.41.552,lexical_decision_task_DD_L3,2021.2.3,Win32,59.99160118,,,,,,,,,,,0.7383,1,,,,,,,,,,,,,,,,,,,,,,,,0.100925941,-0.11574075,0,0,0,,,,,,,URINE,C,m,m,./images/URINE.png,,,,,,,,,,,,,,,,,,,,,m,1,0.7383,,,,,,,,0,129,129,70,1
,,,,,,,,,,,,,,,,,60301b6f654dbde372f01190,20,2022-02-12_15h44.41.552,lexical_decision_task_DD_L3,2021.2.3,Win32,59.99160118,,,,,,,,,,,0.868,1,,,,,,,,,,,,,,,,,,,,,,,,0.100925941,-0.11574075,0,0,0,,,,,,,WALNUT,LB,z,m,./images/WALNUTLB.png,,,,,,,,,,,,,,,,,,,,,z,1,0.868,,,,,,,,0,130,130,84,1
,,,,,,,,,,,,,,,,,60301b6f654dbde372f01190,20,2022-02-12_15h44.41.552,lexical_decision_task_DD_L3,2021.2.3,Win32,59.99160118,,,,,,,,,,,0.7257,0,,,,,,,,,,,,,,,,,,,,,,,,0.100925941,-0.11574075,0,0,0,,,,,,,SKIING,HB,m,m,./images/SKIINGHB.png,,,,,,,,,,,,,,,,,,,,,z,0,0.7257,,,,,,,,0,131,131,17,1
,,,,,,,,,,,,,,,,,60301b6f654dbde372f01190,20,2022-02-12_15h44.41.552,lexical_decision_task_DD_L3,2021.2.3,Win32,59.99160118,,,,,,,,,,,0.9095,0,,,,,,,,,,,,,,,,,,,,,,,,0.100925941,-0.11574075,0,0,0,,,,,,,MIRROR,LB,m,m,./images/MIRRORLB.png,,,,,,,,,,,,,,,,,,,,,z,0,0.9095,,,,,,,,0,132,132,63,1
