key_resp.keys,key_resp.rt,instr_done_touch.x,instr_done_touch.y,instr_done_touch.leftButton,instr_done_touch.midButton,instr_done_touch.rightButton,instruction_pages.thisRepN,instruction_pages.thisTrialN,instruction_pages.thisN,instruction_pages.thisIndex,instruction_pages.ran,pageN,phase,instruct_text,has_image,instruct_image,participant,age,date,expName,psychopyVersion,OS,frameRate,response.keys,response.corr,response.rt,touch_resp.x,touch_resp.y,touch_resp.leftButton,touch_resp.midButton,touch_resp.rightButton,touch_resp.time,touch_resp.clicked_name,rt,corr,practrials.thisRepN,practrials.thisTrialN,practrials.thisN,practrials.thisIndex,practrials.ran,TrialID,Target,corrAns,end_of_practice_trials_pages.thisRepN,end_of_practice_trials_pages.thisTrialN,end_of_practice_trials_pages.thisN,end_of_practice_trials_pages.thisIndex,end_of_practice_trials_pages.ran,key_resp_2.keys,key_resp_2.corr,key_resp_2.rt,targ_click.x,targ_click.y,targ_click.leftButton,targ_click.midButton,targ_click.rightButton,targ_click.time,targ_click.clicked_name,break_done_touch.x,break_done_touch.y,break_done_touch.leftButton,break_done_touch.midButton,break_done_touch.rightButton,break_done_keyboard.keys,maintrials.thisRepN,maintrials.thisTrialN,maintrials.thisN,maintrials.thisIndex,maintrials.ran,string,blur,study,lex,stim_path,break_done_keyboard.rt,mouse_2.x,mouse_2.y,mouse_2.leftButton,mouse_2.midButton,mouse_2.rightButton,mouse_2.clicked_name,slider.response,slider.rt,trials.thisRepN,trials.thisTrialN,trials.thisN,trials.thisIndex,trials.ran,instr_done_touch.clicked_name,test_instructions.thisRepN,test_instructions.thisTrialN,test_instructions.thisN,test_instructions.thisIndex,test_instructions.ran,key_resp_3.keys,key_resp_3.corr,key_resp_3.rt,test_click.x,test_click.y,test_click.leftButton,test_click.midButton,test_click.rightButton,test_click.time,test_click.clicked_name,test_phase.thisRepN,test_phase.thisTrialN,test_phase.thisN,test_phase.thisIndex,test_phase.ran
space,1.436,0.35437934,-0.129726563,0,0,0,0,0,0,0,1,1,instructions,"INSTRUCTIONS
At the start of each trial, look at the plus sign  (+) in the center of the screen.  This tells you that a trial is about to begin and where to look. Second, the plus sign will disappear and a string of letters will appear. Your task is to determine if the string of letters is a word or not. If the item is a word press the M key (on keyboard)  or touch the word button (phone/tablet).  If the item is not a word,  press the  Z key (on keyboard)  or touch the nonword button (on phone/tablet). 
Press the space bar or touch  continue.",0,,60fdd7d3a333d0095e9c7cbb,19,2022-02-12_17h59.39.374,lexical_decision_task_DD_L3,2021.2.3,MacIntel,60.0024001,,,,,,,,,,,,,,,,,,,,,,,,,,,,,,,,,,,,,,,,,,,,,,,,,,,,,,,,,,,,,,,,,,,,,,,,,,,,,,,,,,,,,,
space,0.5204,0.35437934,-0.129726563,0,0,0,0,1,1,1,1,2,instructions,"If your device has a keyboard, press the 'Z' key for nonwords and the 'M' key for words.





Press the space bar or touch the button below to continue.",0,keyboard-example.gif,60fdd7d3a333d0095e9c7cbb,19,2022-02-12_17h59.39.374,lexical_decision_task_DD_L3,2021.2.3,MacIntel,60.0024001,,,,,,,,,,,,,,,,,,,,,,,,,,,,,,,,,,,,,,,,,,,,,,,,,,,,,,,,,,,,,,,,,,,,,,,,,,,,,,,,,,,,,,
space,1.453,0.35437934,-0.129726563,0,0,0,0,2,2,2,1,3,instructions,"If you are using a touchscreen only device, use the buttons on the screen. Do not use the mouse.





Press the space bar or touch the button below to continue.",0,touchscreen-example.gif,60fdd7d3a333d0095e9c7cbb,19,2022-02-12_17h59.39.374,lexical_decision_task_DD_L3,2021.2.3,MacIntel,60.0024001,,,,,,,,,,,,,,,,,,,,,,,,,,,,,,,,,,,,,,,,,,,,,,,,,,,,,,,,,,,,,,,,,,,,,,,,,,,,,,,,,,,,,,
space,0.4185,0.35437934,-0.129726563,0,0,0,0,3,3,3,1,4,instructions,"It is very important that you respond as quickly and accurately as possible, as each letter string will only be on the screen for two seconds. If you do not respond within this time, the message 'Too slow!' will be displayed and the experiment will progress to the next letter string. The first 20 trials will be practice trials and you will receive feedback on your answers. 

Press the space bar or touch the button below to start the practice trials.",0,,60fdd7d3a333d0095e9c7cbb,19,2022-02-12_17h59.39.374,lexical_decision_task_DD_L3,2021.2.3,MacIntel,60.0024001,,,,,,,,,,,,,,,,,,,,,,,,,,,,,,,,,,,,,,,,,,,,,,,,,,,,,,,,,,,,,,,,,,,,,,,,,,,,,,,,,,,,,,
,,,,,,,,,,,,,,,,,60fdd7d3a333d0095e9c7cbb,19,2022-02-12_17h59.39.374,lexical_decision_task_DD_L3,2021.2.3,MacIntel,60.0024001,z,1,5.0813,,,,,,,,5.0813,1,0,0,0,9,1,1001,FARINY,z,,,,,,,,,,,,,,,,,,,,,,,,,,,,,,,,,,,,,,,,,,,,,,,,,,,,,,,,,,,,,,,,,,
,,,,,,,,,,,,,,,,,60fdd7d3a333d0095e9c7cbb,19,2022-02-12_17h59.39.374,lexical_decision_task_DD_L3,2021.2.3,MacIntel,60.0024001,z,1,0.7357,,,,,,,,0.7357,1,0,1,1,13,1,1001,ROUPET,z,,,,,,,,,,,,,,,,,,,,,,,,,,,,,,,,,,,,,,,,,,,,,,,,,,,,,,,,,,,,,,,,,,
,,,,,,,,,,,,,,,,,60fdd7d3a333d0095e9c7cbb,19,2022-02-12_17h59.39.374,lexical_decision_task_DD_L3,2021.2.3,MacIntel,60.0024001,z,1,0.9135,,,,,,,,0.9135,1,0,2,2,10,1,1001,INLADE,z,,,,,,,,,,,,,,,,,,,,,,,,,,,,,,,,,,,,,,,,,,,,,,,,,,,,,,,,,,,,,,,,,,
,,,,,,,,,,,,,,,,,60fdd7d3a333d0095e9c7cbb,19,2022-02-12_17h59.39.374,lexical_decision_task_DD_L3,2021.2.3,MacIntel,60.0024001,z,1,1.0835,,,,,,,,1.0835,1,0,3,3,12,1,1001,SPRINY,z,,,,,,,,,,,,,,,,,,,,,,,,,,,,,,,,,,,,,,,,,,,,,,,,,,,,,,,,,,,,,,,,,,
,,,,,,,,,,,,,,,,,60fdd7d3a333d0095e9c7cbb,19,2022-02-12_17h59.39.374,lexical_decision_task_DD_L3,2021.2.3,MacIntel,60.0024001,z,1,0.7763,,,,,,,,0.7763,1,0,4,4,15,1,1001,WHAISE,z,,,,,,,,,,,,,,,,,,,,,,,,,,,,,,,,,,,,,,,,,,,,,,,,,,,,,,,,,,,,,,,,,,
,,,,,,,,,,,,,,,,,60fdd7d3a333d0095e9c7cbb,19,2022-02-12_17h59.39.374,lexical_decision_task_DD_L3,2021.2.3,MacIntel,60.0024001,m,1,0.9121,,,,,,,,0.9121,1,0,5,5,0,1,1001,UTOPIA,m,,,,,,,,,,,,,,,,,,,,,,,,,,,,,,,,,,,,,,,,,,,,,,,,,,,,,,,,,,,,,,,,,,
,,,,,,,,,,,,,,,,,60fdd7d3a333d0095e9c7cbb,19,2022-02-12_17h59.39.374,lexical_decision_task_DD_L3,2021.2.3,MacIntel,60.0024001,z,1,0.5839,,,,,,,,0.5839,1,0,6,6,8,1,1001,ASLERT,z,,,,,,,,,,,,,,,,,,,,,,,,,,,,,,,,,,,,,,,,,,,,,,,,,,,,,,,,,,,,,,,,,,
,,,,,,,,,,,,,,,,,60fdd7d3a333d0095e9c7cbb,19,2022-02-12_17h59.39.374,lexical_decision_task_DD_L3,2021.2.3,MacIntel,60.0024001,m,1,0.5795,,,,,,,,0.5795,1,0,7,7,4,1,1001,SQUEAK,m,,,,,,,,,,,,,,,,,,,,,,,,,,,,,,,,,,,,,,,,,,,,,,,,,,,,,,,,,,,,,,,,,,
,,,,,,,,,,,,,,,,,60fdd7d3a333d0095e9c7cbb,19,2022-02-12_17h59.39.374,lexical_decision_task_DD_L3,2021.2.3,MacIntel,60.0024001,m,1,0.5737,,,,,,,,0.5737,1,0,8,8,1,1,1001,ADJUST,m,,,,,,,,,,,,,,,,,,,,,,,,,,,,,,,,,,,,,,,,,,,,,,,,,,,,,,,,,,,,,,,,,,
,,,,,,,,,,,,,,,,,60fdd7d3a333d0095e9c7cbb,19,2022-02-12_17h59.39.374,lexical_decision_task_DD_L3,2021.2.3,MacIntel,60.0024001,m,1,0.4461,,,,,,,,0.4461,1,0,9,9,7,1,1001,VOLUME,m,,,,,,,,,,,,,,,,,,,,,,,,,,,,,,,,,,,,,,,,,,,,,,,,,,,,,,,,,,,,,,,,,,
,,,,,,,,,,,,,,,,,60fdd7d3a333d0095e9c7cbb,19,2022-02-12_17h59.39.374,lexical_decision_task_DD_L3,2021.2.3,MacIntel,60.0024001,z,1,0.7288,,,,,,,,0.7288,1,0,10,10,14,1,1001,THRALE,z,,,,,,,,,,,,,,,,,,,,,,,,,,,,,,,,,,,,,,,,,,,,,,,,,,,,,,,,,,,,,,,,,,
,,,,,,,,,,,,,,,,,60fdd7d3a333d0095e9c7cbb,19,2022-02-12_17h59.39.374,lexical_decision_task_DD_L3,2021.2.3,MacIntel,60.0024001,z,1,0.6632,,,,,,,,0.6632,1,0,11,11,11,1,1001,RASHET,z,,,,,,,,,,,,,,,,,,,,,,,,,,,,,,,,,,,,,,,,,,,,,,,,,,,,,,,,,,,,,,,,,,
,,,,,,,,,,,,,,,,,60fdd7d3a333d0095e9c7cbb,19,2022-02-12_17h59.39.374,lexical_decision_task_DD_L3,2021.2.3,MacIntel,60.0024001,m,1,0.6132,,,,,,,,0.6132,1,0,12,12,6,1,1001,ZOMBIE,m,,,,,,,,,,,,,,,,,,,,,,,,,,,,,,,,,,,,,,,,,,,,,,,,,,,,,,,,,,,,,,,,,,
,,,,,,,,,,,,,,,,,60fdd7d3a333d0095e9c7cbb,19,2022-02-12_17h59.39.374,lexical_decision_task_DD_L3,2021.2.3,MacIntel,60.0024001,m,1,0.6228,,,,,,,,0.6228,1,0,13,13,5,1,1001,OBTAIN,m,,,,,,,,,,,,,,,,,,,,,,,,,,,,,,,,,,,,,,,,,,,,,,,,,,,,,,,,,,,,,,,,,,
,,,,,,,,,,,,,,,,,60fdd7d3a333d0095e9c7cbb,19,2022-02-12_17h59.39.374,lexical_decision_task_DD_L3,2021.2.3,MacIntel,60.0024001,m,1,0.6155,,,,,,,,0.6155,1,0,14,14,2,1,1001,ALMOND,m,,,,,,,,,,,,,,,,,,,,,,,,,,,,,,,,,,,,,,,,,,,,,,,,,,,,,,,,,,,,,,,,,,
,,,,,,,,,,,,,,,,,60fdd7d3a333d0095e9c7cbb,19,2022-02-12_17h59.39.374,lexical_decision_task_DD_L3,2021.2.3,MacIntel,60.0024001,m,1,0.7197,,,,,,,,0.7197,1,0,15,15,3,1,1001,MATRIX,m,,,,,,,,,,,,,,,,,,,,,,,,,,,,,,,,,,,,,,,,,,,,,,,,,,,,,,,,,,,,,,,,,,
space,1.1253,0.35437934,-0.129726563,0,0,0,,,,,,1,end_of_practice,"You have completed the practice trials. During the experimental trials, you will not receive feedback. 
Before you begin, please ensure that you are in a comfortable and quiet location and will not be disturbed for about 15 minutes, as we cannot use your data if you do not complete all the trials. 
 When you are ready to start the experimental trials, please press space or touch the button below.",,,60fdd7d3a333d0095e9c7cbb,19,2022-02-12_17h59.39.374,lexical_decision_task_DD_L3,2021.2.3,MacIntel,60.0024001,,,,,,,,,,,,,,,,,,,,,0,0,0,0,1,,,,,,,,,,,,,,,,,,,,,,,,,,,,,,,,,,,,,,,,,,,,,,,,,,,,,,,,,,,,,
,,,,,,,,,,,,,,,,,60fdd7d3a333d0095e9c7cbb,19,2022-02-12_17h59.39.374,lexical_decision_task_DD_L3,2021.2.3,MacIntel,60.0024001,,,,,,,,,,,2.5629,1,,,,,,,,,,,,,,z,1,2.5629,,,,,,,,0.35437934,-0.129726563,0,0,0,,0,0,0,121,1,CEERS,HB,old,z,./images/CEERSHB.png,,,,,,,,,,,,,,,,,,,,,,,,,,,,,,,,,,,
,,,,,,,,,,,,,,,,,60fdd7d3a333d0095e9c7cbb,19,2022-02-12_17h59.39.374,lexical_decision_task_DD_L3,2021.2.3,MacIntel,60.0024001,,,,,,,,,,,0.868,1,,,,,,,,,,,,,,m,1,0.868,,,,,,,,0.35437934,-0.129726563,0,0,0,,0,1,1,17,1,SKIING,HB,old,m,./images/SKIINGHB.png,,,,,,,,,,,,,,,,,,,,,,,,,,,,,,,,,,,
,,,,,,,,,,,,,,,,,60fdd7d3a333d0095e9c7cbb,19,2022-02-12_17h59.39.374,lexical_decision_task_DD_L3,2021.2.3,MacIntel,60.0024001,,,,,,,,,,,0.4169,0,,,,,,,,,,,,,,m,0,0.4169,,,,,,,,0.35437934,-0.129726563,0,0,0,,0,2,2,86,1,AIFED,LB,old,z,./images/AIFEDLB.png,,,,,,,,,,,,,,,,,,,,,,,,,,,,,,,,,,,
,,,,,,,,,,,,,,,,,60fdd7d3a333d0095e9c7cbb,19,2022-02-12_17h59.39.374,lexical_decision_task_DD_L3,2021.2.3,MacIntel,60.0024001,,,,,,,,,,,0.6343,1,,,,,,,,,,,,,,m,1,0.6343,,,,,,,,0.35437934,-0.129726563,0,0,0,,0,3,3,21,1,KIDNEY,LB,old,m,./images/KIDNEYLB.png,,,,,,,,,,,,,,,,,,,,,,,,,,,,,,,,,,,
,,,,,,,,,,,,,,,,,60fdd7d3a333d0095e9c7cbb,19,2022-02-12_17h59.39.374,lexical_decision_task_DD_L3,2021.2.3,MacIntel,60.0024001,,,,,,,,,,,0.805,1,,,,,,,,,,,,,,z,1,0.805,,,,,,,,0.35437934,-0.129726563,0,0,0,,0,4,4,141,1,PLEET,C,old,z,./images/PLEET.png,,,,,,,,,,,,,,,,,,,,,,,,,,,,,,,,,,,
,,,,,,,,,,,,,,,,,60fdd7d3a333d0095e9c7cbb,19,2022-02-12_17h59.39.374,lexical_decision_task_DD_L3,2021.2.3,MacIntel,60.0024001,,,,,,,,,,,0.5076,0,,,,,,,,,,,,,,z,0,0.5076,,,,,,,,0.35437934,-0.129726563,0,0,0,,0,5,5,16,1,PENCE,C,old,m,./images/PENCE.png,,,,,,,,,,,,,,,,,,,,,,,,,,,,,,,,,,,
,,,,,,,,,,,,,,,,,60fdd7d3a333d0095e9c7cbb,19,2022-02-12_17h59.39.374,lexical_decision_task_DD_L3,2021.2.3,MacIntel,60.0024001,,,,,,,,,,,0.568,0,,,,,,,,,,,,,,m,0,0.568,,,,,,,,0.35437934,-0.129726563,0,0,0,,0,6,6,146,1,MOOST,LB,old,z,./images/MOOSTLB.png,,,,,,,,,,,,,,,,,,,,,,,,,,,,,,,,,,,
,,,,,,,,,,,,,,,,,60fdd7d3a333d0095e9c7cbb,19,2022-02-12_17h59.39.374,lexical_decision_task_DD_L3,2021.2.3,MacIntel,60.0024001,,,,,,,,,,,0.156,0,,,,,,,,,,,,,,z,0,0.156,,,,,,,,0.35437934,-0.129726563,0,0,0,,0,7,7,5,1,PASTA,HB,old,m,./images/PASTAHB.png,,,,,,,,,,,,,,,,,,,,,,,,,,,,,,,,,,,
,,,,,,,,,,,,,,,,,60fdd7d3a333d0095e9c7cbb,19,2022-02-12_17h59.39.374,lexical_decision_task_DD_L3,2021.2.3,MacIntel,60.0024001,,,,,,,,,,,0.8298,1,,,,,,,,,,,,,,m,1,0.8298,,,,,,,,0.35437934,-0.129726563,0,0,0,,0,8,8,58,1,BABOON,C,old,m,./images/BABOON.png,,,,,,,,,,,,,,,,,,,,,,,,,,,,,,,,,,,
,,,,,,,,,,,,,,,,,60fdd7d3a333d0095e9c7cbb,19,2022-02-12_17h59.39.374,lexical_decision_task_DD_L3,2021.2.3,MacIntel,60.0024001,,,,,,,,,,,0.5664,1,,,,,,,,,,,,,,m,1,0.5664,,,,,,,,0.35437934,-0.129726563,0,0,0,,0,9,9,42,1,FOLDER,LB,old,m,./images/FOLDERLB.png,,,,,,,,,,,,,,,,,,,,,,,,,,,,,,,,,,,
,,,,,,,,,,,,,,,,,60fdd7d3a333d0095e9c7cbb,19,2022-02-12_17h59.39.374,lexical_decision_task_DD_L3,2021.2.3,MacIntel,60.0024001,,,,,,,,,,,0.7032,1,,,,,,,,,,,,,,z,1,0.7032,,,,,,,,0.35437934,-0.129726563,0,0,0,,0,10,10,126,1,GUELS,C,old,z,./images/GUELS.png,,,,,,,,,,,,,,,,,,,,,,,,,,,,,,,,,,,
,,,,,,,,,,,,,,,,,60fdd7d3a333d0095e9c7cbb,19,2022-02-12_17h59.39.374,lexical_decision_task_DD_L3,2021.2.3,MacIntel,60.0024001,,,,,,,,,,,0.9549,1,,,,,,,,,,,,,,z,1,0.9549,,,,,,,,0.35437934,-0.129726563,0,0,0,,0,11,11,136,1,WERVE,HB,old,z,./images/WERVEHB.png,,,,,,,,,,,,,,,,,,,,,,,,,,,,,,,,,,,
,,,,,,,,,,,,,,,,,60fdd7d3a333d0095e9c7cbb,19,2022-02-12_17h59.39.374,lexical_decision_task_DD_L3,2021.2.3,MacIntel,60.0024001,,,,,,,,,,,0.2657,1,,,,,,,,,,,,,,z,1,0.2657,,,,,,,,0.35437934,-0.129726563,0,0,0,,0,12,12,155,1,CANGY,LB,old,z,./images/CANGYLB.png,,,,,,,,,,,,,,,,,,,,,,,,,,,,,,,,,,,
,,,,,,,,,,,,,,,,,60fdd7d3a333d0095e9c7cbb,19,2022-02-12_17h59.39.374,lexical_decision_task_DD_L3,2021.2.3,MacIntel,60.0024001,,,,,,,,,,,0.0636,1,,,,,,,,,,,,,,z,1,0.0636,,,,,,,,0.35437934,-0.129726563,0,0,0,,0,13,13,114,1,RIKES,C,old,z,./images/RIKES.png,,,,,,,,,,,,,,,,,,,,,,,,,,,,,,,,,,,
,,,,,,,,,,,,,,,,,60fdd7d3a333d0095e9c7cbb,19,2022-02-12_17h59.39.374,lexical_decision_task_DD_L3,2021.2.3,MacIntel,60.0024001,,,,,,,,,,,0.1256,0,,,,,,,,,,,,,,z,0,0.1256,,,,,,,,0.35437934,-0.129726563,0,0,0,,0,14,14,34,1,CANYON,C,old,m,./images/CANYON.png,,,,,,,,,,,,,,,,,,,,,,,,,,,,,,,,,,,
,,,,,,,,,,,,,,,,,60fdd7d3a333d0095e9c7cbb,19,2022-02-12_17h59.39.374,lexical_decision_task_DD_L3,2021.2.3,MacIntel,60.0024001,,,,,,,,,,,0.0033,1,,,,,,,,,,,,,,z,1,0.0033,,,,,,,,0.35437934,-0.129726563,0,0,0,,0,15,15,115,1,MAWNS,HB,old,z,./images/MAWNSHB.png,,,,,,,,,,,,,,,,,,,,,,,,,,,,,,,,,,,
,,,,,,,,,,,,,,,,,60fdd7d3a333d0095e9c7cbb,19,2022-02-12_17h59.39.374,lexical_decision_task_DD_L3,2021.2.3,MacIntel,60.0024001,,,,,,,,,,,0.1588,0,,,,,,,,,,,,,,m,0,0.1588,,,,,,,,0.35437934,-0.129726563,0,0,0,,0,16,16,102,1,DULLE,C,old,z,./images/DULLE.png,,,,,,,,,,,,,,,,,,,,,,,,,,,,,,,,,,,
,,,,,,,,,,,,,,,,,60fdd7d3a333d0095e9c7cbb,19,2022-02-12_17h59.39.374,lexical_decision_task_DD_L3,2021.2.3,MacIntel,60.0024001,,,,,,,,,,,0.0002,0,,,,,,,,,,,,,,z,0,0.0002,,,,,,,,0.35437934,-0.129726563,0,0,0,,0,17,17,64,1,JELLY,C,old,m,./images/JELLY.png,,,,,,,,,,,,,,,,,,,,,,,,,,,,,,,,,,,
,,,,,,,,,,,,,,,,,60fdd7d3a333d0095e9c7cbb,19,2022-02-12_17h59.39.374,lexical_decision_task_DD_L3,2021.2.3,MacIntel,60.0024001,,,,,,,,,,,0.1527,1,,,,,,,,,,,,,,z,1,0.1527,,,,,,,,0.35437934,-0.129726563,0,0,0,,0,18,18,108,1,GRUET,C,old,z,./images/GRUET.png,,,,,,,,,,,,,,,,,,,,,,,,,,,,,,,,,,,
,,,,,,,,,,,,,,,,,60fdd7d3a333d0095e9c7cbb,19,2022-02-12_17h59.39.374,lexical_decision_task_DD_L3,2021.2.3,MacIntel,60.0024001,,,,,,,,,,,0.4577,1,,,,,,,,,,,,,,z,1,0.4577,,,,,,,,0.35437934,-0.129726563,0,0,0,,0,19,19,119,1,PAFER,LB,old,z,./images/PAFERLB.png,,,,,,,,,,,,,,,,,,,,,,,,,,,,,,,,,,,
,,,,,,,,,,,,,,,,,60fdd7d3a333d0095e9c7cbb,19,2022-02-12_17h59.39.374,lexical_decision_task_DD_L3,2021.2.3,MacIntel,60.0024001,,,,,,,,,,,0.5558,1,,,,,,,,,,,,,,z,1,0.5558,,,,,,,,0.35437934,-0.129726563,0,0,0,,0,20,20,131,1,NACES,LB,old,z,./images/NACESLB.png,,,,,,,,,,,,,,,,,,,,,,,,,,,,,,,,,,,
,,,,,,,,,,,,,,,,,60fdd7d3a333d0095e9c7cbb,19,2022-02-12_17h59.39.374,lexical_decision_task_DD_L3,2021.2.3,MacIntel,60.0024001,,,,,,,,,,,0.6975,1,,,,,,,,,,,,,,m,1,0.6975,,,,,,,,0.35437934,-0.129726563,0,0,0,,0,21,21,45,1,KITTEN,LB,old,m,./images/KITTENLB.png,,,,,,,,,,,,,,,,,,,,,,,,,,,,,,,,,,,
,,,,,,,,,,,,,,,,,60fdd7d3a333d0095e9c7cbb,19,2022-02-12_17h59.39.374,lexical_decision_task_DD_L3,2021.2.3,MacIntel,60.0024001,,,,,,,,,,,0.6946,1,,,,,,,,,,,,,,m,1,0.6946,,,,,,,,0.35437934,-0.129726563,0,0,0,,0,22,22,75,1,GRAIN,LB,old,m,./images/GRAINLB.png,,,,,,,,,,,,,,,,,,,,,,,,,,,,,,,,,,,
,,,,,,,,,,,,,,,,,60fdd7d3a333d0095e9c7cbb,19,2022-02-12_17h59.39.374,lexical_decision_task_DD_L3,2021.2.3,MacIntel,60.0024001,,,,,,,,,,,0.5089,0,,,,,,,,,,,,,,m,0,0.5089,,,,,,,,0.35437934,-0.129726563,0,0,0,,0,23,23,128,1,GRIFT,LB,old,z,./images/GRIFTLB.png,,,,,,,,,,,,,,,,,,,,,,,,,,,,,,,,,,,
,,,,,,,,,,,,,,,,,60fdd7d3a333d0095e9c7cbb,19,2022-02-12_17h59.39.374,lexical_decision_task_DD_L3,2021.2.3,MacIntel,60.0024001,,,,,,,,,,,0.0673,0,,,,,,,,,,,,,,z,0,0.0673,,,,,,,,0.35437934,-0.129726563,0,0,0,,0,24,24,15,1,GREASE,LB,old,m,./images/GREASELB.png,,,,,,,,,,,,,,,,,,,,,,,,,,,,,,,,,,,
,,,,,,,,,,,,,,,,,60fdd7d3a333d0095e9c7cbb,19,2022-02-12_17h59.39.374,lexical_decision_task_DD_L3,2021.2.3,MacIntel,60.0024001,,,,,,,,,,,0.1567,0,,,,,,,,,,,,,,z,0,0.1567,,,,,,,,0.35437934,-0.129726563,0,0,0,,0,25,25,78,1,LITTER,LB,old,m,./images/LITTERLB.png,,,,,,,,,,,,,,,,,,,,,,,,,,,,,,,,,,,
,,,,,,,,,,,,,,,,,60fdd7d3a333d0095e9c7cbb,19,2022-02-12_17h59.39.374,lexical_decision_task_DD_L3,2021.2.3,MacIntel,60.0024001,,,,,,,,,,,0.6569,1,,,,,,,,,,,,,,z,1,0.6569,,,,,,,,0.35437934,-0.129726563,0,0,0,,0,26,26,161,1,BLAPS,LB,old,z,./images/BLAPSLB.png,,,,,,,,,,,,,,,,,,,,,,,,,,,,,,,,,,,
,,,,,,,,,,,,,,,,,60fdd7d3a333d0095e9c7cbb,19,2022-02-12_17h59.39.374,lexical_decision_task_DD_L3,2021.2.3,MacIntel,60.0024001,,,,,,,,,,,1.2742,1,,,,,,,,,,,,,,z,1,1.2742,,,,,,,,0.35437934,-0.129726563,0,0,0,,0,27,27,145,1,LAMEL,HB,old,z,./images/LAMELHB.png,,,,,,,,,,,,,,,,,,,,,,,,,,,,,,,,,,,
,,,,,,,,,,,,,,,,,60fdd7d3a333d0095e9c7cbb,19,2022-02-12_17h59.39.374,lexical_decision_task_DD_L3,2021.2.3,MacIntel,60.0024001,,,,,,,,,,,0.6234,1,,,,,,,,,,,,,,m,1,0.6234,,,,,,,,0.35437934,-0.129726563,0,0,0,,0,28,28,70,1,URINE,C,old,m,./images/URINE.png,,,,,,,,,,,,,,,,,,,,,,,,,,,,,,,,,,,
,,,,,,,,,,,,,,,,,60fdd7d3a333d0095e9c7cbb,19,2022-02-12_17h59.39.374,lexical_decision_task_DD_L3,2021.2.3,MacIntel,60.0024001,,,,,,,,,,,0.6481,1,,,,,,,,,,,,,,m,1,0.6481,,,,,,,,0.35437934,-0.129726563,0,0,0,,0,29,29,66,1,SWEAT,LB,old,m,./images/SWEATLB.png,,,,,,,,,,,,,,,,,,,,,,,,,,,,,,,,,,,
,,,,,,,,,,,,,,,,,60fdd7d3a333d0095e9c7cbb,19,2022-02-12_17h59.39.374,lexical_decision_task_DD_L3,2021.2.3,MacIntel,60.0024001,,,,,,,,,,,0.5765,1,,,,,,,,,,,,,,m,1,0.5765,,,,,,,,0.35437934,-0.129726563,0,0,0,,0,30,30,55,1,MUFFIN,C,old,m,./images/MUFFIN.png,,,,,,,,,,,,,,,,,,,,,,,,,,,,,,,,,,,
,,,,,,,,,,,,,,,,,60fdd7d3a333d0095e9c7cbb,19,2022-02-12_17h59.39.374,lexical_decision_task_DD_L3,2021.2.3,MacIntel,60.0024001,,,,,,,,,,,0.4126,0,,,,,,,,,,,,,,m,0,0.4126,,,,,,,,0.35437934,-0.129726563,0,0,0,,0,31,31,87,1,TRING,C,old,z,./images/TRING.png,,,,,,,,,,,,,,,,,,,,,,,,,,,,,,,,,,,
,,,,,,,,,,,,,,,,,60fdd7d3a333d0095e9c7cbb,19,2022-02-12_17h59.39.374,lexical_decision_task_DD_L3,2021.2.3,MacIntel,60.0024001,,,,,,,,,,,0.4344,1,,,,,,,,,,,,,,m,1,0.4344,,,,,,,,0.35437934,-0.129726563,0,0,0,,0,32,32,3,1,FINGER,LB,old,m,./images/FINGERLB.png,,,,,,,,,,,,,,,,,,,,,,,,,,,,,,,,,,,
,,,,,,,,,,,,,,,,,60fdd7d3a333d0095e9c7cbb,19,2022-02-12_17h59.39.374,lexical_decision_task_DD_L3,2021.2.3,MacIntel,60.0024001,,,,,,,,,,,0.497,1,,,,,,,,,,,,,,z,1,0.497,,,,,,,,0.35437934,-0.129726563,0,0,0,,0,33,33,94,1,BLANS,HB,old,z,./images/BLANSHB.png,,,,,,,,,,,,,,,,,,,,,,,,,,,,,,,,,,,
,,,,,,,,,,,,,,,,,60fdd7d3a333d0095e9c7cbb,19,2022-02-12_17h59.39.374,lexical_decision_task_DD_L3,2021.2.3,MacIntel,60.0024001,,,,,,,,,,,0.438,0,,,,,,,,,,,,,,z,0,0.438,,,,,,,,0.35437934,-0.129726563,0,0,0,,0,34,34,53,1,CARPET,HB,old,m,./images/CARPETHB.png,,,,,,,,,,,,,,,,,,,,,,,,,,,,,,,,,,,
,,,,,,,,,,,,,,,,,60fdd7d3a333d0095e9c7cbb,19,2022-02-12_17h59.39.374,lexical_decision_task_DD_L3,2021.2.3,MacIntel,60.0024001,,,,,,,,,,,0.9048,1,,,,,,,,,,,,,,z,1,0.9048,,,,,,,,0.35437934,-0.129726563,0,0,0,,0,35,35,99,1,BACKY,C,old,z,./images/BACKY.png,,,,,,,,,,,,,,,,,,,,,,,,,,,,,,,,,,,
,,,,,,,,,,,,,,,,,60fdd7d3a333d0095e9c7cbb,19,2022-02-12_17h59.39.374,lexical_decision_task_DD_L3,2021.2.3,MacIntel,60.0024001,,,,,,,,,,,0.4249,0,,,,,,,,,,,,,,m,0,0.4249,,,,,,,,0.35437934,-0.129726563,0,0,0,,0,36,36,159,1,CUDDY,C,old,z,./images/CUDDY.png,,,,,,,,,,,,,,,,,,,,,,,,,,,,,,,,,,,
,,,,,,,,,,,,,,,,,60fdd7d3a333d0095e9c7cbb,19,2022-02-12_17h59.39.374,lexical_decision_task_DD_L3,2021.2.3,MacIntel,60.0024001,,,,,,,,,,,0.5742,1,,,,,,,,,,,,,,m,1,0.5742,,,,,,,,0.35437934,-0.129726563,0,0,0,,0,37,37,60,1,TWINS,LB,old,m,./images/TWINSLB.png,,,,,,,,,,,,,,,,,,,,,,,,,,,,,,,,,,,
,,,,,,,,,,,,,,,,,60fdd7d3a333d0095e9c7cbb,19,2022-02-12_17h59.39.374,lexical_decision_task_DD_L3,2021.2.3,MacIntel,60.0024001,,,,,,,,,,,0.6051,1,,,,,,,,,,,,,,m,1,0.6051,,,,,,,,0.35437934,-0.129726563,0,0,0,,0,38,38,49,1,DRUMS,C,old,m,./images/DRUMS.png,,,,,,,,,,,,,,,,,,,,,,,,,,,,,,,,,,,
,,,,,,,,,,,,,,,,,60fdd7d3a333d0095e9c7cbb,19,2022-02-12_17h59.39.374,lexical_decision_task_DD_L3,2021.2.3,MacIntel,60.0024001,,,,,,,,,,,0.9254,1,,,,,,,,,,,,,,z,1,0.9254,,,,,,,,0.35437934,-0.129726563,0,0,0,,0,39,39,162,1,LEICH,C,old,z,./images/LEICH.png,,,,,,,,,,,,,,,,,,,,,,,,,,,,,,,,,,,
,,,,,,,,,,,,,,,,,60fdd7d3a333d0095e9c7cbb,19,2022-02-12_17h59.39.374,lexical_decision_task_DD_L3,2021.2.3,MacIntel,60.0024001,,,,,,,,,,,0.1642,0,,,,,,,,,,,,,,z,0,0.1642,,,,,,,,0.35437934,-0.129726563,0,0,0,,0,40,40,65,1,FARMER,HB,old,m,./images/FARMERHB.png,,,,,,,,,,,,,,,,,,,,,,,,,,,,,,,,,,,
,,,,,,,,,,,,,,,,,60fdd7d3a333d0095e9c7cbb,19,2022-02-12_17h59.39.374,lexical_decision_task_DD_L3,2021.2.3,MacIntel,60.0024001,,,,,,,,,,,0.5765,1,,,,,,,,,,,,,,m,1,0.5765,,,,,,,,0.35437934,-0.129726563,0,0,0,space,0,41,41,18,1,JAGUAR,LB,old,m,./images/JAGUARLB.png,2.2189,,,,,,,,,,,,,,,,,,,,,,,,,,,,,,,,,,
,,,,,,,,,,,,,,,,,60fdd7d3a333d0095e9c7cbb,19,2022-02-12_17h59.39.374,lexical_decision_task_DD_L3,2021.2.3,MacIntel,60.0024001,,,,,,,,,,,0.6187,1,,,,,,,,,,,,,,m,1,0.6187,,,,,,,,0.35437934,-0.129726563,0,0,0,,0,42,42,38,1,LADDER,HB,old,m,./images/LADDERHB.png,,,,,,,,,,,,,,,,,,,,,,,,,,,,,,,,,,,
,,,,,,,,,,,,,,,,,60fdd7d3a333d0095e9c7cbb,19,2022-02-12_17h59.39.374,lexical_decision_task_DD_L3,2021.2.3,MacIntel,60.0024001,,,,,,,,,,,0.1746,1,,,,,,,,,,,,,,z,1,0.1746,,,,,,,,0.35437934,-0.129726563,0,0,0,,0,43,43,110,1,CRUNK,LB,old,z,./images/CRUNKLB.png,,,,,,,,,,,,,,,,,,,,,,,,,,,,,,,,,,,
,,,,,,,,,,,,,,,,,60fdd7d3a333d0095e9c7cbb,19,2022-02-12_17h59.39.374,lexical_decision_task_DD_L3,2021.2.3,MacIntel,60.0024001,,,,,,,,,,,0.3814,0,,,,,,,,,,,,,,z,0,0.3814,,,,,,,,0.35437934,-0.129726563,0,0,0,,0,44,44,33,1,MAGGOT,LB,old,m,./images/MAGGOTLB.png,,,,,,,,,,,,,,,,,,,,,,,,,,,,,,,,,,,
,,,,,,,,,,,,,,,,,60fdd7d3a333d0095e9c7cbb,19,2022-02-12_17h59.39.374,lexical_decision_task_DD_L3,2021.2.3,MacIntel,60.0024001,,,,,,,,,,,0.6235,1,,,,,,,,,,,,,,z,1,0.6235,,,,,,,,0.35437934,-0.129726563,0,0,0,,0,45,45,160,1,VEETS,HB,old,z,./images/VEETSHB.png,,,,,,,,,,,,,,,,,,,,,,,,,,,,,,,,,,,
,,,,,,,,,,,,,,,,,60fdd7d3a333d0095e9c7cbb,19,2022-02-12_17h59.39.374,lexical_decision_task_DD_L3,2021.2.3,MacIntel,60.0024001,,,,,,,,,,,0.6868,0,,,,,,,,,,,,,,z,0,0.6868,,,,,,,,0.35437934,-0.129726563,0,0,0,,0,46,46,72,1,NOOSE,LB,old,m,./images/NOOSELB.png,,,,,,,,,,,,,,,,,,,,,,,,,,,,,,,,,,,
,,,,,,,,,,,,,,,,,60fdd7d3a333d0095e9c7cbb,19,2022-02-12_17h59.39.374,lexical_decision_task_DD_L3,2021.2.3,MacIntel,60.0024001,,,,,,,,,,,0.4902,1,,,,,,,,,,,,,,z,1,0.4902,,,,,,,,0.35437934,-0.129726563,0,0,0,,0,47,47,105,1,MOKER,C,old,z,./images/MOKER.png,,,,,,,,,,,,,,,,,,,,,,,,,,,,,,,,,,,
,,,,,,,,,,,,,,,,,60fdd7d3a333d0095e9c7cbb,19,2022-02-12_17h59.39.374,lexical_decision_task_DD_L3,2021.2.3,MacIntel,60.0024001,,,,,,,,,,,0.4409,1,,,,,,,,,,,,,,z,1,0.4409,,,,,,,,0.35437934,-0.129726563,0,0,0,,0,48,48,120,1,RINED,C,old,z,./images/RINED.png,,,,,,,,,,,,,,,,,,,,,,,,,,,,,,,,,,,
,,,,,,,,,,,,,,,,,60fdd7d3a333d0095e9c7cbb,19,2022-02-12_17h59.39.374,lexical_decision_task_DD_L3,2021.2.3,MacIntel,60.0024001,,,,,,,,,,,0.7657,1,,,,,,,,,,,,,,z,1,0.7657,,,,,,,,0.35437934,-0.129726563,0,0,0,,0,49,49,101,1,GLEET,LB,old,z,./images/GLEETLB.png,,,,,,,,,,,,,,,,,,,,,,,,,,,,,,,,,,,
,,,,,,,,,,,,,,,,,60fdd7d3a333d0095e9c7cbb,19,2022-02-12_17h59.39.374,lexical_decision_task_DD_L3,2021.2.3,MacIntel,60.0024001,,,,,,,,,,,0.7249,1,,,,,,,,,,,,,,z,1,0.7249,,,,,,,,0.35437934,-0.129726563,0,0,0,,0,50,50,157,1,INLER,HB,old,z,./images/INLERHB.png,,,,,,,,,,,,,,,,,,,,,,,,,,,,,,,,,,,
,,,,,,,,,,,,,,,,,60fdd7d3a333d0095e9c7cbb,19,2022-02-12_17h59.39.374,lexical_decision_task_DD_L3,2021.2.3,MacIntel,60.0024001,,,,,,,,,,,0.5738,1,,,,,,,,,,,,,,z,1,0.5738,,,,,,,,0.35437934,-0.129726563,0,0,0,,0,51,51,111,1,HOSSE,C,old,z,./images/HOSSE.png,,,,,,,,,,,,,,,,,,,,,,,,,,,,,,,,,,,
,,,,,,,,,,,,,,,,,60fdd7d3a333d0095e9c7cbb,19,2022-02-12_17h59.39.374,lexical_decision_task_DD_L3,2021.2.3,MacIntel,60.0024001,,,,,,,,,,,0.6426,1,,,,,,,,,,,,,,m,1,0.6426,,,,,,,,0.35437934,-0.129726563,0,0,0,,0,52,52,13,1,MOTOR,C,old,m,./images/MOTOR.png,,,,,,,,,,,,,,,,,,,,,,,,,,,,,,,,,,,
,,,,,,,,,,,,,,,,,60fdd7d3a333d0095e9c7cbb,19,2022-02-12_17h59.39.374,lexical_decision_task_DD_L3,2021.2.3,MacIntel,60.0024001,,,,,,,,,,,0.5723,1,,,,,,,,,,,,,,z,1,0.5723,,,,,,,,0.35437934,-0.129726563,0,0,0,,0,53,53,88,1,GLUSH,HB,old,z,./images/GLUSHHB.png,,,,,,,,,,,,,,,,,,,,,,,,,,,,,,,,,,,
,,,,,,,,,,,,,,,,,60fdd7d3a333d0095e9c7cbb,19,2022-02-12_17h59.39.374,lexical_decision_task_DD_L3,2021.2.3,MacIntel,60.0024001,,,,,,,,,,,0.5812,0,,,,,,,,,,,,,,z,0,0.5812,,,,,,,,0.35437934,-0.129726563,0,0,0,,0,54,54,57,1,MOOSE,LB,old,m,./images/MOOSELB.png,,,,,,,,,,,,,,,,,,,,,,,,,,,,,,,,,,,
,,,,,,,,,,,,,,,,,60fdd7d3a333d0095e9c7cbb,19,2022-02-12_17h59.39.374,lexical_decision_task_DD_L3,2021.2.3,MacIntel,60.0024001,,,,,,,,,,,0.6301,1,,,,,,,,,,,,,,z,1,0.6301,,,,,,,,0.35437934,-0.129726563,0,0,0,,0,55,55,124,1,TUNCH,HB,old,z,./images/TUNCHHB.png,,,,,,,,,,,,,,,,,,,,,,,,,,,,,,,,,,,
,,,,,,,,,,,,,,,,,60fdd7d3a333d0095e9c7cbb,19,2022-02-12_17h59.39.374,lexical_decision_task_DD_L3,2021.2.3,MacIntel,60.0024001,,,,,,,,,,,0.7528,1,,,,,,,,,,,,,,z,1,0.7528,,,,,,,,0.35437934,-0.129726563,0,0,0,,0,56,56,139,1,BLEAR,HB,old,z,./images/BLEARHB.png,,,,,,,,,,,,,,,,,,,,,,,,,,,,,,,,,,,
,,,,,,,,,,,,,,,,,60fdd7d3a333d0095e9c7cbb,19,2022-02-12_17h59.39.374,lexical_decision_task_DD_L3,2021.2.3,MacIntel,60.0024001,,,,,,,,,,,0.3193,0,,,,,,,,,,,,,,m,0,0.3193,,,,,,,,0.35437934,-0.129726563,0,0,0,,0,57,57,113,1,LINEW,LB,old,z,./images/LINEWLB.png,,,,,,,,,,,,,,,,,,,,,,,,,,,,,,,,,,,
,,,,,,,,,,,,,,,,,60fdd7d3a333d0095e9c7cbb,19,2022-02-12_17h59.39.374,lexical_decision_task_DD_L3,2021.2.3,MacIntel,60.0024001,,,,,,,,,,,0.0489,0,,,,,,,,,,,,,,z,0,0.0489,,,,,,,,0.35437934,-0.129726563,0,0,0,,0,58,58,27,1,ATTIC,LB,old,m,./images/ATTICLB.png,,,,,,,,,,,,,,,,,,,,,,,,,,,,,,,,,,,
,,,,,,,,,,,,,,,,,60fdd7d3a333d0095e9c7cbb,19,2022-02-12_17h59.39.374,lexical_decision_task_DD_L3,2021.2.3,MacIntel,60.0024001,,,,,,,,,,,0.0311,0,,,,,,,,,,,,,,m,0,0.0311,,,,,,,,0.35437934,-0.129726563,0,0,0,,0,59,59,151,1,TINKY,HB,old,z,./images/TINKYHB.png,,,,,,,,,,,,,,,,,,,,,,,,,,,,,,,,,,,
,,,,,,,,,,,,,,,,,60fdd7d3a333d0095e9c7cbb,19,2022-02-12_17h59.39.374,lexical_decision_task_DD_L3,2021.2.3,MacIntel,60.0024001,,,,,,,,,,,0.1181,1,,,,,,,,,,,,,,z,1,0.1181,,,,,,,,0.35437934,-0.129726563,0,0,0,,0,60,60,137,1,JOOST,LB,old,z,./images/JOOSTLB.png,,,,,,,,,,,,,,,,,,,,,,,,,,,,,,,,,,,
,,,,,,,,,,,,,,,,,60fdd7d3a333d0095e9c7cbb,19,2022-02-12_17h59.39.374,lexical_decision_task_DD_L3,2021.2.3,MacIntel,60.0024001,,,,,,,,,,,0.3396,0,,,,,,,,,,,,,,m,0,0.3396,,,,,,,,0.35437934,-0.129726563,0,0,0,,0,61,61,95,1,HANTY,LB,old,z,./images/HANTYLB.png,,,,,,,,,,,,,,,,,,,,,,,,,,,,,,,,,,,
,,,,,,,,,,,,,,,,,60fdd7d3a333d0095e9c7cbb,19,2022-02-12_17h59.39.374,lexical_decision_task_DD_L3,2021.2.3,MacIntel,60.0024001,,,,,,,,,,,0.6183,0,,,,,,,,,,,,,,m,0,0.6183,,,,,,,,0.35437934,-0.129726563,0,0,0,,0,62,62,149,1,VEASE,LB,old,z,./images/VEASELB.png,,,,,,,,,,,,,,,,,,,,,,,,,,,,,,,,,,,
,,,,,,,,,,,,,,,,,60fdd7d3a333d0095e9c7cbb,19,2022-02-12_17h59.39.374,lexical_decision_task_DD_L3,2021.2.3,MacIntel,60.0024001,,,,,,,,,,,0.3408,1,,,,,,,,,,,,,,z,1,0.3408,,,,,,,,0.35437934,-0.129726563,0,0,0,,0,63,63,156,1,HIXES,C,old,z,./images/HIXES.png,,,,,,,,,,,,,,,,,,,,,,,,,,,,,,,,,,,
,,,,,,,,,,,,,,,,,60fdd7d3a333d0095e9c7cbb,19,2022-02-12_17h59.39.374,lexical_decision_task_DD_L3,2021.2.3,MacIntel,60.0024001,,,,,,,,,,,0.1583,0,,,,,,,,,,,,,,z,0,0.1583,,,,,,,,0.35437934,-0.129726563,0,0,0,,0,64,64,43,1,MOSQUE,C,old,m,./images/MOSQUE.png,,,,,,,,,,,,,,,,,,,,,,,,,,,,,,,,,,,
,,,,,,,,,,,,,,,,,60fdd7d3a333d0095e9c7cbb,19,2022-02-12_17h59.39.374,lexical_decision_task_DD_L3,2021.2.3,MacIntel,60.0024001,,,,,,,,,,,0.0849,0,,,,,,,,,,,,,,z,0,0.0849,,,,,,,,0.35437934,-0.129726563,0,0,0,,0,65,65,51,1,ONION,LB,old,m,./images/ONIONLB.png,,,,,,,,,,,,,,,,,,,,,,,,,,,,,,,,,,,
,,,,,,,,,,,,,,,,,60fdd7d3a333d0095e9c7cbb,19,2022-02-12_17h59.39.374,lexical_decision_task_DD_L3,2021.2.3,MacIntel,60.0024001,,,,,,,,,,,0.7287,1,,,,,,,,,,,,,,z,1,0.7287,,,,,,,,0.35437934,-0.129726563,0,0,0,,0,66,66,129,1,PRANS,C,old,z,./images/PRANS.png,,,,,,,,,,,,,,,,,,,,,,,,,,,,,,,,,,,
,,,,,,,,,,,,,,,,,60fdd7d3a333d0095e9c7cbb,19,2022-02-12_17h59.39.374,lexical_decision_task_DD_L3,2021.2.3,MacIntel,60.0024001,,,,,,,,,,,0.7496,0,,,,,,,,,,,,,,z,0,0.7496,,,,,,,,0.35437934,-0.129726563,0,0,0,,0,67,67,32,1,BARREL,HB,old,m,./images/BARRELHB.png,,,,,,,,,,,,,,,,,,,,,,,,,,,,,,,,,,,
,,,,,,,,,,,,,,,,,60fdd7d3a333d0095e9c7cbb,19,2022-02-12_17h59.39.374,lexical_decision_task_DD_L3,2021.2.3,MacIntel,60.0024001,,,,,,,,,,,0.5753,1,,,,,,,,,,,,,,z,1,0.5753,,,,,,,,0.35437934,-0.129726563,0,0,0,,0,68,68,135,1,JOODY,C,old,z,./images/JOODY.png,,,,,,,,,,,,,,,,,,,,,,,,,,,,,,,,,,,
,,,,,,,,,,,,,,,,,60fdd7d3a333d0095e9c7cbb,19,2022-02-12_17h59.39.374,lexical_decision_task_DD_L3,2021.2.3,MacIntel,60.0024001,,,,,,,,,,,0.6169,0,,,,,,,,,,,,,,z,0,0.6169,,,,,,,,0.35437934,-0.129726563,0,0,0,,0,69,69,26,1,SMOKER,HB,old,m,./images/SMOKERHB.png,,,,,,,,,,,,,,,,,,,,,,,,,,,,,,,,,,,
,,,,,,,,,,,,,,,,,60fdd7d3a333d0095e9c7cbb,19,2022-02-12_17h59.39.374,lexical_decision_task_DD_L3,2021.2.3,MacIntel,60.0024001,,,,,,,,,,,0.8073,1,,,,,,,,,,,,,,z,1,0.8073,,,,,,,,0.35437934,-0.129726563,0,0,0,,0,70,70,164,1,SGREW,LB,old,z,./images/SGREWLB.png,,,,,,,,,,,,,,,,,,,,,,,,,,,,,,,,,,,
,,,,,,,,,,,,,,,,,60fdd7d3a333d0095e9c7cbb,19,2022-02-12_17h59.39.374,lexical_decision_task_DD_L3,2021.2.3,MacIntel,60.0024001,,,,,,,,,,,0.716,0,,,,,,,,,,,,,,z,0,0.716,,,,,,,,0.35437934,-0.129726563,0,0,0,,0,71,71,20,1,CRADLE,HB,old,m,./images/CRADLEHB.png,,,,,,,,,,,,,,,,,,,,,,,,,,,,,,,,,,,
,,,,,,,,,,,,,,,,,60fdd7d3a333d0095e9c7cbb,19,2022-02-12_17h59.39.374,lexical_decision_task_DD_L3,2021.2.3,MacIntel,60.0024001,,,,,,,,,,,0.5757,1,,,,,,,,,,,,,,m,1,0.5757,,,,,,,,0.35437934,-0.129726563,0,0,0,,0,72,72,19,1,DOUGH,C,old,m,./images/DOUGH.png,,,,,,,,,,,,,,,,,,,,,,,,,,,,,,,,,,,
,,,,,,,,,,,,,,,,,60fdd7d3a333d0095e9c7cbb,19,2022-02-12_17h59.39.374,lexical_decision_task_DD_L3,2021.2.3,MacIntel,60.0024001,,,,,,,,,,,0.6813,1,,,,,,,,,,,,,,z,1,0.6813,,,,,,,,0.35437934,-0.129726563,0,0,0,,0,73,73,109,1,BURGE,HB,old,z,./images/BURGEHB.png,,,,,,,,,,,,,,,,,,,,,,,,,,,,,,,,,,,
,,,,,,,,,,,,,,,,,60fdd7d3a333d0095e9c7cbb,19,2022-02-12_17h59.39.374,lexical_decision_task_DD_L3,2021.2.3,MacIntel,60.0024001,,,,,,,,,,,0.5841,1,,,,,,,,,,,,,,m,1,0.5841,,,,,,,,0.35437934,-0.129726563,0,0,0,,0,74,74,77,1,COUCH,HB,old,m,./images/COUCHHB.png,,,,,,,,,,,,,,,,,,,,,,,,,,,,,,,,,,,
,,,,,,,,,,,,,,,,,60fdd7d3a333d0095e9c7cbb,19,2022-02-12_17h59.39.374,lexical_decision_task_DD_L3,2021.2.3,MacIntel,60.0024001,,,,,,,,,,,0.5986,1,,,,,,,,,,,,,,z,1,0.5986,,,,,,,,0.35437934,-0.129726563,0,0,0,,0,75,75,118,1,BAVEL,HB,old,z,./images/BAVELHB.png,,,,,,,,,,,,,,,,,,,,,,,,,,,,,,,,,,,
,,,,,,,,,,,,,,,,,60fdd7d3a333d0095e9c7cbb,19,2022-02-12_17h59.39.374,lexical_decision_task_DD_L3,2021.2.3,MacIntel,60.0024001,,,,,,,,,,,0.6559,1,,,,,,,,,,,,,,z,1,0.6559,,,,,,,,0.35437934,-0.129726563,0,0,0,,0,76,76,167,1,ZONET,LB,old,z,./images/ZONETLB.png,,,,,,,,,,,,,,,,,,,,,,,,,,,,,,,,,,,
,,,,,,,,,,,,,,,,,60fdd7d3a333d0095e9c7cbb,19,2022-02-12_17h59.39.374,lexical_decision_task_DD_L3,2021.2.3,MacIntel,60.0024001,,,,,,,,,,,0.1991,1,,,,,,,,,,,,,,z,1,0.1991,,,,,,,,0.35437934,-0.129726563,0,0,0,,0,77,77,92,1,PAIMS,LB,old,z,./images/PAIMSLB.png,,,,,,,,,,,,,,,,,,,,,,,,,,,,,,,,,,,
,,,,,,,,,,,,,,,,,60fdd7d3a333d0095e9c7cbb,19,2022-02-12_17h59.39.374,lexical_decision_task_DD_L3,2021.2.3,MacIntel,60.0024001,,,,,,,,,,,0.6182,0,,,,,,,,,,,,,,z,0,0.6182,,,,,,,,0.35437934,-0.129726563,0,0,0,,0,78,78,59,1,BURIAL,HB,old,m,./images/BURIALHB.png,,,,,,,,,,,,,,,,,,,,,,,,,,,,,,,,,,,
,,,,,,,,,,,,,,,,,60fdd7d3a333d0095e9c7cbb,19,2022-02-12_17h59.39.374,lexical_decision_task_DD_L3,2021.2.3,MacIntel,60.0024001,,,,,,,,,,,0.3675,1,,,,,,,,,,,,,,z,1,0.3675,,,,,,,,0.35437934,-0.129726563,0,0,0,,0,79,79,154,1,THINT,HB,old,z,./images/THINTHB.png,,,,,,,,,,,,,,,,,,,,,,,,,,,,,,,,,,,
,,,,,,,,,,,,,,,,,60fdd7d3a333d0095e9c7cbb,19,2022-02-12_17h59.39.374,lexical_decision_task_DD_L3,2021.2.3,MacIntel,60.0024001,,,,,,,,,,,0.125,1,,,,,,,,,,,,,,m,1,0.125,,,,,,,,0.35437934,-0.129726563,0,0,0,,0,80,80,0,1,TOMATO,LB,old,m,./images/TOMATOLB.png,,,,,,,,,,,,,,,,,,,,,,,,,,,,,,,,,,,
,,,,,,,,,,,,,,,,,60fdd7d3a333d0095e9c7cbb,19,2022-02-12_17h59.39.374,lexical_decision_task_DD_L3,2021.2.3,MacIntel,60.0024001,,,,,,,,,,,0.266,0,,,,,,,,,,,,,,m,0,0.266,,,,,,,,0.35437934,-0.129726563,0,0,0,,0,81,81,100,1,DRIBS,HB,old,z,./images/DRIBSHB.png,,,,,,,,,,,,,,,,,,,,,,,,,,,,,,,,,,,
,,,,,,,,,,,,,,,,,60fdd7d3a333d0095e9c7cbb,19,2022-02-12_17h59.39.374,lexical_decision_task_DD_L3,2021.2.3,MacIntel,60.0024001,,,,,,,,,,,0.2528,0,,,,,,,,,,,,,,z,0,0.2528,,,,,,,,0.35437934,-0.129726563,0,0,0,,0,82,82,48,1,SPORT,LB,old,m,./images/SPORTLB.png,,,,,,,,,,,,,,,,,,,,,,,,,,,,,,,,,,,
,,,,,,,,,,,,,,,,,60fdd7d3a333d0095e9c7cbb,19,2022-02-12_17h59.39.374,lexical_decision_task_DD_L3,2021.2.3,MacIntel,60.0024001,,,,,,,,,,,0.3025,1,,,,,,,,,,,,,,m,1,0.3025,,,,,,,,0.35437934,-0.129726563,0,0,0,space,0,83,83,62,1,PURSE,HB,old,m,./images/PURSEHB.png,0.8046,,,,,,,,,,,,,,,,,,,,,,,,,,,,,,,,,,
,,,,,,,,,,,,,,,,,60fdd7d3a333d0095e9c7cbb,19,2022-02-12_17h59.39.374,lexical_decision_task_DD_L3,2021.2.3,MacIntel,60.0024001,,,,,,,,,,,0.5531,1,,,,,,,,,,,,,,m,1,0.5531,,,,,,,,0.35437934,-0.129726563,0,0,0,,0,84,84,54,1,TRIPOD,LB,old,m,./images/TRIPODLB.png,,,,,,,,,,,,,,,,,,,,,,,,,,,,,,,,,,,
,,,,,,,,,,,,,,,,,60fdd7d3a333d0095e9c7cbb,19,2022-02-12_17h59.39.374,lexical_decision_task_DD_L3,2021.2.3,MacIntel,60.0024001,,,,,,,,,,,0.2168,1,,,,,,,,,,,,,,z,1,0.2168,,,,,,,,0.35437934,-0.129726563,0,0,0,,0,85,85,143,1,MONGS,LB,old,z,./images/MONGSLB.png,,,,,,,,,,,,,,,,,,,,,,,,,,,,,,,,,,,
,,,,,,,,,,,,,,,,,60fdd7d3a333d0095e9c7cbb,19,2022-02-12_17h59.39.374,lexical_decision_task_DD_L3,2021.2.3,MacIntel,60.0024001,,,,,,,,,,,0.3684,0,,,,,,,,,,,,,,z,0,0.3684,,,,,,,,0.35437934,-0.129726563,0,0,0,,0,86,86,30,1,STORM,LB,old,m,./images/STORMLB.png,,,,,,,,,,,,,,,,,,,,,,,,,,,,,,,,,,,
,,,,,,,,,,,,,,,,,60fdd7d3a333d0095e9c7cbb,19,2022-02-12_17h59.39.374,lexical_decision_task_DD_L3,2021.2.3,MacIntel,60.0024001,,,,,,,,,,,0.0132,1,,,,,,,,,,,,,,z,1,0.0132,,,,,,,,0.35437934,-0.129726563,0,0,0,,0,87,87,112,1,MYING,HB,old,z,./images/MYINGHB.png,,,,,,,,,,,,,,,,,,,,,,,,,,,,,,,,,,,
,,,,,,,,,,,,,,,,,60fdd7d3a333d0095e9c7cbb,19,2022-02-12_17h59.39.374,lexical_decision_task_DD_L3,2021.2.3,MacIntel,60.0024001,,,,,,,,,,,0.1513,0,,,,,,,,,,,,,,z,0,0.1513,,,,,,,,0.35437934,-0.129726563,0,0,0,,0,88,88,74,1,CEMENT,HB,old,m,./images/CEMENTHB.png,,,,,,,,,,,,,,,,,,,,,,,,,,,,,,,,,,,
,,,,,,,,,,,,,,,,,60fdd7d3a333d0095e9c7cbb,19,2022-02-12_17h59.39.374,lexical_decision_task_DD_L3,2021.2.3,MacIntel,60.0024001,,,,,,,,,,,0.1498,0,,,,,,,,,,,,,,z,0,0.1498,,,,,,,,0.35437934,-0.129726563,0,0,0,,0,89,89,9,1,RHINO,LB,old,m,./images/RHINOLB.png,,,,,,,,,,,,,,,,,,,,,,,,,,,,,,,,,,,
,,,,,,,,,,,,,,,,,60fdd7d3a333d0095e9c7cbb,19,2022-02-12_17h59.39.374,lexical_decision_task_DD_L3,2021.2.3,MacIntel,60.0024001,,,,,,,,,,,0.5262,0,,,,,,,,,,,,,,z,0,0.5262,,,,,,,,0.35437934,-0.129726563,0,0,0,,0,90,90,7,1,PAINT,C,old,m,./images/PAINT.png,,,,,,,,,,,,,,,,,,,,,,,,,,,,,,,,,,,
,,,,,,,,,,,,,,,,,60fdd7d3a333d0095e9c7cbb,19,2022-02-12_17h59.39.374,lexical_decision_task_DD_L3,2021.2.3,MacIntel,60.0024001,,,,,,,,,,,0.9538,1,,,,,,,,,,,,,,m,1,0.9538,,,,,,,,0.35437934,-0.129726563,0,0,0,,0,91,91,83,1,JUNGLE,HB,old,m,./images/JUNGLEHB.png,,,,,,,,,,,,,,,,,,,,,,,,,,,,,,,,,,,
,,,,,,,,,,,,,,,,,60fdd7d3a333d0095e9c7cbb,19,2022-02-12_17h59.39.374,lexical_decision_task_DD_L3,2021.2.3,MacIntel,60.0024001,,,,,,,,,,,0.4799,1,,,,,,,,,,,,,,m,1,0.4799,,,,,,,,0.35437934,-0.129726563,0,0,0,,0,92,92,37,1,BIRTH,C,old,m,./images/BIRTH.png,,,,,,,,,,,,,,,,,,,,,,,,,,,,,,,,,,,
,,,,,,,,,,,,,,,,,60fdd7d3a333d0095e9c7cbb,19,2022-02-12_17h59.39.374,lexical_decision_task_DD_L3,2021.2.3,MacIntel,60.0024001,,,,,,,,,,,0.1329,0,,,,,,,,,,,,,,z,0,0.1329,,,,,,,,0.35437934,-0.129726563,0,0,0,,0,93,93,2,1,BEARD,HB,old,m,./images/BEARDHB.png,,,,,,,,,,,,,,,,,,,,,,,,,,,,,,,,,,,
,,,,,,,,,,,,,,,,,60fdd7d3a333d0095e9c7cbb,19,2022-02-12_17h59.39.374,lexical_decision_task_DD_L3,2021.2.3,MacIntel,60.0024001,,,,,,,,,,,1.071,0,,,,,,,,,,,,,,z,0,1.071,,,,,,,,0.35437934,-0.129726563,0,0,0,,0,94,94,50,1,MALLET,HB,old,m,./images/MALLETHB.png,,,,,,,,,,,,,,,,,,,,,,,,,,,,,,,,,,,
,,,,,,,,,,,,,,,,,60fdd7d3a333d0095e9c7cbb,19,2022-02-12_17h59.39.374,lexical_decision_task_DD_L3,2021.2.3,MacIntel,60.0024001,,,,,,,,,,,0.5228,1,,,,,,,,,,,,,,m,1,0.5228,,,,,,,,0.35437934,-0.129726563,0,0,0,,0,95,95,73,1,SNACK,C,old,m,./images/SNACK.png,,,,,,,,,,,,,,,,,,,,,,,,,,,,,,,,,,,
,,,,,,,,,,,,,,,,,60fdd7d3a333d0095e9c7cbb,19,2022-02-12_17h59.39.374,lexical_decision_task_DD_L3,2021.2.3,MacIntel,60.0024001,,,,,,,,,,,0.5023,1,,,,,,,,,,,,,,m,1,0.5023,,,,,,,,0.35437934,-0.129726563,0,0,0,,0,96,96,76,1,INFANT,C,old,m,./images/INFANT.png,,,,,,,,,,,,,,,,,,,,,,,,,,,,,,,,,,,
,,,,,,,,,,,,,,,,,60fdd7d3a333d0095e9c7cbb,19,2022-02-12_17h59.39.374,lexical_decision_task_DD_L3,2021.2.3,MacIntel,60.0024001,,,,,,,,,,,0.7291,1,,,,,,,,,,,,,,z,1,0.7291,,,,,,,,0.35437934,-0.129726563,0,0,0,,0,97,97,133,1,POWDY,HB,old,z,./images/POWDYHB.png,,,,,,,,,,,,,,,,,,,,,,,,,,,,,,,,,,,
,,,,,,,,,,,,,,,,,60fdd7d3a333d0095e9c7cbb,19,2022-02-12_17h59.39.374,lexical_decision_task_DD_L3,2021.2.3,MacIntel,60.0024001,,,,,,,,,,,0.4974,0,,,,,,,,,,,,,,z,0,0.4974,,,,,,,,0.35437934,-0.129726563,0,0,0,,0,98,98,67,1,SAILOR,C,old,m,./images/SAILOR.png,,,,,,,,,,,,,,,,,,,,,,,,,,,,,,,,,,,
,,,,,,,,,,,,,,,,,60fdd7d3a333d0095e9c7cbb,19,2022-02-12_17h59.39.374,lexical_decision_task_DD_L3,2021.2.3,MacIntel,60.0024001,,,,,,,,,,,0.0966,0,,,,,,,,,,,,,,m,0,0.0966,,,,,,,,0.35437934,-0.129726563,0,0,0,,0,99,99,134,1,TROSS,LB,old,z,./images/TROSSLB.png,,,,,,,,,,,,,,,,,,,,,,,,,,,,,,,,,,,
,,,,,,,,,,,,,,,,,60fdd7d3a333d0095e9c7cbb,19,2022-02-12_17h59.39.374,lexical_decision_task_DD_L3,2021.2.3,MacIntel,60.0024001,,,,,,,,,,,0.3168,1,,,,,,,,,,,,,,z,1,0.3168,,,,,,,,0.35437934,-0.129726563,0,0,0,,0,100,100,107,1,FASKS,LB,old,z,./images/FASKSLB.png,,,,,,,,,,,,,,,,,,,,,,,,,,,,,,,,,,,
,,,,,,,,,,,,,,,,,60fdd7d3a333d0095e9c7cbb,19,2022-02-12_17h59.39.374,lexical_decision_task_DD_L3,2021.2.3,MacIntel,60.0024001,,,,,,,,,,,0.1146,1,,,,,,,,,,,,,,z,1,0.1146,,,,,,,,0.35437934,-0.129726563,0,0,0,,0,101,101,96,1,KEAMS,C,old,z,./images/KEAMS.png,,,,,,,,,,,,,,,,,,,,,,,,,,,,,,,,,,,
,,,,,,,,,,,,,,,,,60fdd7d3a333d0095e9c7cbb,19,2022-02-12_17h59.39.374,lexical_decision_task_DD_L3,2021.2.3,MacIntel,60.0024001,,,,,,,,,,,0.3945,1,,,,,,,,,,,,,,m,1,0.3945,,,,,,,,0.35437934,-0.129726563,0,0,0,,0,102,102,40,1,SWING,C,old,m,./images/SWING.png,,,,,,,,,,,,,,,,,,,,,,,,,,,,,,,,,,,
,,,,,,,,,,,,,,,,,60fdd7d3a333d0095e9c7cbb,19,2022-02-12_17h59.39.374,lexical_decision_task_DD_L3,2021.2.3,MacIntel,60.0024001,,,,,,,,,,,0.5051,0,,,,,,,,,,,,,,m,0,0.5051,,,,,,,,0.35437934,-0.129726563,0,0,0,,0,103,103,125,1,MOOKY,LB,old,z,./images/MOOKYLB.png,,,,,,,,,,,,,,,,,,,,,,,,,,,,,,,,,,,
,,,,,,,,,,,,,,,,,60fdd7d3a333d0095e9c7cbb,19,2022-02-12_17h59.39.374,lexical_decision_task_DD_L3,2021.2.3,MacIntel,60.0024001,,,,,,,,,,,0.1991,0,,,,,,,,,,,,,,m,0,0.1991,,,,,,,,0.35437934,-0.129726563,0,0,0,,0,104,104,116,1,BALGY,LB,old,z,./images/BALGYLB.png,,,,,,,,,,,,,,,,,,,,,,,,,,,,,,,,,,,
,,,,,,,,,,,,,,,,,60fdd7d3a333d0095e9c7cbb,19,2022-02-12_17h59.39.374,lexical_decision_task_DD_L3,2021.2.3,MacIntel,60.0024001,,,,,,,,,,,0.0999,1,,,,,,,,,,,,,,z,1,0.0999,,,,,,,,0.35437934,-0.129726563,0,0,0,,0,105,105,153,1,CLUPS,C,old,z,./images/CLUPS.png,,,,,,,,,,,,,,,,,,,,,,,,,,,,,,,,,,,
,,,,,,,,,,,,,,,,,60fdd7d3a333d0095e9c7cbb,19,2022-02-12_17h59.39.374,lexical_decision_task_DD_L3,2021.2.3,MacIntel,60.0024001,,,,,,,,,,,0.0331,1,,,,,,,,,,,,,,z,1,0.0331,,,,,,,,0.35437934,-0.129726563,0,0,0,,0,106,106,91,1,SHENS,HB,old,z,./images/SHENSHB.png,,,,,,,,,,,,,,,,,,,,,,,,,,,,,,,,,,,
,,,,,,,,,,,,,,,,,60fdd7d3a333d0095e9c7cbb,19,2022-02-12_17h59.39.374,lexical_decision_task_DD_L3,2021.2.3,MacIntel,60.0024001,,,,,,,,,,,0.0004,1,,,,,,,,,,,,,,z,1,0.0004,,,,,,,,0.35437934,-0.129726563,0,0,0,,0,107,107,85,1,CHULK,HB,old,z,./images/CHULKHB.png,,,,,,,,,,,,,,,,,,,,,,,,,,,,,,,,,,,
,,,,,,,,,,,,,,,,,60fdd7d3a333d0095e9c7cbb,19,2022-02-12_17h59.39.374,lexical_decision_task_DD_L3,2021.2.3,MacIntel,60.0024001,,,,,,,,,,,0.0524,0,,,,,,,,,,,,,,m,0,0.0524,,,,,,,,0.35437934,-0.129726563,0,0,0,,0,108,108,97,1,CHIDS,HB,old,z,./images/CHIDSHB.png,,,,,,,,,,,,,,,,,,,,,,,,,,,,,,,,,,,
,,,,,,,,,,,,,,,,,60fdd7d3a333d0095e9c7cbb,19,2022-02-12_17h59.39.374,lexical_decision_task_DD_L3,2021.2.3,MacIntel,60.0024001,,,,,,,,,,,0.0205,1,,,,,,,,,,,,,,z,1,0.0205,,,,,,,,0.35437934,-0.129726563,0,0,0,,0,109,109,163,1,GAMBA,HB,old,z,./images/GAMBAHB.png,,,,,,,,,,,,,,,,,,,,,,,,,,,,,,,,,,,
,,,,,,,,,,,,,,,,,60fdd7d3a333d0095e9c7cbb,19,2022-02-12_17h59.39.374,lexical_decision_task_DD_L3,2021.2.3,MacIntel,60.0024001,,,,,,,,,,,0.0535,0,,,,,,,,,,,,,,z,0,0.0535,,,,,,,,0.35437934,-0.129726563,0,0,0,,0,110,110,44,1,LIZARD,HB,old,m,./images/LIZARDHB.png,,,,,,,,,,,,,,,,,,,,,,,,,,,,,,,,,,,
,,,,,,,,,,,,,,,,,60fdd7d3a333d0095e9c7cbb,19,2022-02-12_17h59.39.374,lexical_decision_task_DD_L3,2021.2.3,MacIntel,60.0024001,,,,,,,,,,,0.0949,0,,,,,,,,,,,,,,z,0,0.0949,,,,,,,,0.35437934,-0.129726563,0,0,0,,0,111,111,4,1,MUSCLE,C,old,m,./images/MUSCLE.png,,,,,,,,,,,,,,,,,,,,,,,,,,,,,,,,,,,
,,,,,,,,,,,,,,,,,60fdd7d3a333d0095e9c7cbb,19,2022-02-12_17h59.39.374,lexical_decision_task_DD_L3,2021.2.3,MacIntel,60.0024001,,,,,,,,,,,0.0529,0,,,,,,,,,,,,,,z,0,0.0529,,,,,,,,0.35437934,-0.129726563,0,0,0,,0,112,112,71,1,PIMPLE,HB,old,m,./images/PIMPLEHB.png,,,,,,,,,,,,,,,,,,,,,,,,,,,,,,,,,,,
,,,,,,,,,,,,,,,,,60fdd7d3a333d0095e9c7cbb,19,2022-02-12_17h59.39.374,lexical_decision_task_DD_L3,2021.2.3,MacIntel,60.0024001,,,,,,,,,,,0.1998,1,,,,,,,,,,,,,,m,1,0.1998,,,,,,,,0.35437934,-0.129726563,0,0,0,,0,113,113,68,1,TORCH,HB,old,m,./images/TORCHHB.png,,,,,,,,,,,,,,,,,,,,,,,,,,,,,,,,,,,
,,,,,,,,,,,,,,,,,60fdd7d3a333d0095e9c7cbb,19,2022-02-12_17h59.39.374,lexical_decision_task_DD_L3,2021.2.3,MacIntel,60.0024001,,,,,,,,,,,0.1327,0,,,,,,,,,,,,,,m,0,0.1327,,,,,,,,0.35437934,-0.129726563,0,0,0,,0,114,114,130,1,CRILL,HB,old,z,./images/CRILLHB.png,,,,,,,,,,,,,,,,,,,,,,,,,,,,,,,,,,,
,,,,,,,,,,,,,,,,,60fdd7d3a333d0095e9c7cbb,19,2022-02-12_17h59.39.374,lexical_decision_task_DD_L3,2021.2.3,MacIntel,60.0024001,,,,,,,,,,,0.0577,0,,,,,,,,,,,,,,m,0,0.0577,,,,,,,,0.35437934,-0.129726563,0,0,0,,0,115,115,158,1,EGECT,LB,old,z,./images/EGECTLB.png,,,,,,,,,,,,,,,,,,,,,,,,,,,,,,,,,,,
,,,,,,,,,,,,,,,,,60fdd7d3a333d0095e9c7cbb,19,2022-02-12_17h59.39.374,lexical_decision_task_DD_L3,2021.2.3,MacIntel,60.0024001,,,,,,,,,,,0.0855,0,,,,,,,,,,,,,,z,0,0.0855,,,,,,,,0.35437934,-0.129726563,0,0,0,,0,116,116,36,1,THROAT,LB,old,m,./images/THROATLB.png,,,,,,,,,,,,,,,,,,,,,,,,,,,,,,,,,,,
,,,,,,,,,,,,,,,,,60fdd7d3a333d0095e9c7cbb,19,2022-02-12_17h59.39.374,lexical_decision_task_DD_L3,2021.2.3,MacIntel,60.0024001,,,,,,,,,,,0.0004,1,,,,,,,,,,,,,,m,1,0.0004,,,,,,,,0.35437934,-0.129726563,0,0,0,,0,117,117,28,1,FALCON,C,old,m,./images/FALCON.png,,,,,,,,,,,,,,,,,,,,,,,,,,,,,,,,,,,
,,,,,,,,,,,,,,,,,60fdd7d3a333d0095e9c7cbb,19,2022-02-12_17h59.39.374,lexical_decision_task_DD_L3,2021.2.3,MacIntel,60.0024001,,,,,,,,,,,0.0826,1,,,,,,,,,,,,,,m,1,0.0826,,,,,,,,0.35437934,-0.129726563,0,0,0,,0,118,118,23,1,WALRUS,HB,old,m,./images/WALRUSHB.png,,,,,,,,,,,,,,,,,,,,,,,,,,,,,,,,,,,
,,,,,,,,,,,,,,,,,60fdd7d3a333d0095e9c7cbb,19,2022-02-12_17h59.39.374,lexical_decision_task_DD_L3,2021.2.3,MacIntel,60.0024001,,,,,,,,,,,0.1284,1,,,,,,,,,,,,,,z,1,0.1284,,,,,,,,0.35437934,-0.129726563,0,0,0,,0,119,119,132,1,SCIFF,C,old,z,./images/SCIFF.png,,,,,,,,,,,,,,,,,,,,,,,,,,,,,,,,,,,
,,,,,,,,,,,,,,,,,60fdd7d3a333d0095e9c7cbb,19,2022-02-12_17h59.39.374,lexical_decision_task_DD_L3,2021.2.3,MacIntel,60.0024001,,,,,,,,,,,0.0004,1,,,,,,,,,,,,,,m,1,0.0004,,,,,,,,0.35437934,-0.129726563,0,0,0,,0,120,120,47,1,BERRY,HB,old,m,./images/BERRYHB.png,,,,,,,,,,,,,,,,,,,,,,,,,,,,,,,,,,,
,,,,,,,,,,,,,,,,,60fdd7d3a333d0095e9c7cbb,19,2022-02-12_17h59.39.374,lexical_decision_task_DD_L3,2021.2.3,MacIntel,60.0024001,,,,,,,,,,,0.1069,0,,,,,,,,,,,,,,m,0,0.1069,,,,,,,,0.35437934,-0.129726563,0,0,0,,0,121,121,166,1,SHORY,HB,old,z,./images/SHORYHB.png,,,,,,,,,,,,,,,,,,,,,,,,,,,,,,,,,,,
,,,,,,,,,,,,,,,,,60fdd7d3a333d0095e9c7cbb,19,2022-02-12_17h59.39.374,lexical_decision_task_DD_L3,2021.2.3,MacIntel,60.0024001,,,,,,,,,,,0.1763,0,,,,,,,,,,,,,,m,0,0.1763,,,,,,,,0.35437934,-0.129726563,0,0,0,,0,122,122,144,1,NAIRY,C,old,z,./images/NAIRY.png,,,,,,,,,,,,,,,,,,,,,,,,,,,,,,,,,,,
,,,,,,,,,,,,,,,,,60fdd7d3a333d0095e9c7cbb,19,2022-02-12_17h59.39.374,lexical_decision_task_DD_L3,2021.2.3,MacIntel,60.0024001,,,,,,,,,,,0.2752,0,,,,,,,,,,,,,,z,0,0.2752,,,,,,,,0.35437934,-0.129726563,0,0,0,,0,123,123,46,1,PEARL,C,old,m,./images/PEARL.png,,,,,,,,,,,,,,,,,,,,,,,,,,,,,,,,,,,
,,,,,,,,,,,,,,,,,60fdd7d3a333d0095e9c7cbb,19,2022-02-12_17h59.39.374,lexical_decision_task_DD_L3,2021.2.3,MacIntel,60.0024001,,,,,,,,,,,0.1011,1,,,,,,,,,,,,,,m,1,0.1011,,,,,,,,0.35437934,-0.129726563,0,0,0,,0,124,124,52,1,BANNER,C,old,m,./images/BANNER.png,,,,,,,,,,,,,,,,,,,,,,,,,,,,,,,,,,,
,,,,,,,,,,,,,,,,,60fdd7d3a333d0095e9c7cbb,19,2022-02-12_17h59.39.374,lexical_decision_task_DD_L3,2021.2.3,MacIntel,60.0024001,,,,,,,,,,,0.6605,1,,,,,,,,,,,,,,z,1,0.6605,,,,,,,,0.35437934,-0.129726563,0,0,0,space,0,125,125,150,1,NOOLS,C,old,z,./images/NOOLS.png,1.2897,,,,,,,,,,,,,,,,,,,,,,,,,,,,,,,,,,
,,,,,,,,,,,,,,,,,60fdd7d3a333d0095e9c7cbb,19,2022-02-12_17h59.39.374,lexical_decision_task_DD_L3,2021.2.3,MacIntel,60.0024001,,,,,,,,,,,0.7339,1,,,,,,,,,,,,,,m,1,0.7339,,,,,,,,0.35437934,-0.129726563,0,0,0,,0,126,126,56,1,PACKET,HB,old,m,./images/PACKETHB.png,,,,,,,,,,,,,,,,,,,,,,,,,,,,,,,,,,,
,,,,,,,,,,,,,,,,,60fdd7d3a333d0095e9c7cbb,19,2022-02-12_17h59.39.374,lexical_decision_task_DD_L3,2021.2.3,MacIntel,60.0024001,,,,,,,,,,,0.4109,0,,,,,,,,,,,,,,m,0,0.4109,,,,,,,,0.35437934,-0.129726563,0,0,0,,0,127,127,117,1,STEEG,C,old,z,./images/STEEG.png,,,,,,,,,,,,,,,,,,,,,,,,,,,,,,,,,,,
,,,,,,,,,,,,,,,,,60fdd7d3a333d0095e9c7cbb,19,2022-02-12_17h59.39.374,lexical_decision_task_DD_L3,2021.2.3,MacIntel,60.0024001,,,,,,,,,,,0.1247,0,,,,,,,,,,,,,,z,0,0.1247,,,,,,,,0.35437934,-0.129726563,0,0,0,,0,128,128,63,1,MIRROR,LB,old,m,./images/MIRRORLB.png,,,,,,,,,,,,,,,,,,,,,,,,,,,,,,,,,,,
,,,,,,,,,,,,,,,,,60fdd7d3a333d0095e9c7cbb,19,2022-02-12_17h59.39.374,lexical_decision_task_DD_L3,2021.2.3,MacIntel,60.0024001,,,,,,,,,,,0.0839,0,,,,,,,,,,,,,,m,0,0.0839,,,,,,,,0.35437934,-0.129726563,0,0,0,,0,129,129,106,1,CLUMS,HB,old,z,./images/CLUMSHB.png,,,,,,,,,,,,,,,,,,,,,,,,,,,,,,,,,,,
,,,,,,,,,,,,,,,,,60fdd7d3a333d0095e9c7cbb,19,2022-02-12_17h59.39.374,lexical_decision_task_DD_L3,2021.2.3,MacIntel,60.0024001,,,,,,,,,,,0.1548,1,,,,,,,,,,,,,,m,1,0.1548,,,,,,,,0.35437934,-0.129726563,0,0,0,,0,130,130,61,1,CANDLE,C,old,m,./images/CANDLE.png,,,,,,,,,,,,,,,,,,,,,,,,,,,,,,,,,,,
,,,,,,,,,,,,,,,,,60fdd7d3a333d0095e9c7cbb,19,2022-02-12_17h59.39.374,lexical_decision_task_DD_L3,2021.2.3,MacIntel,60.0024001,,,,,,,,,,,0.6869,0,,,,,,,,,,,,,,z,0,0.6869,,,,,,,,0.35437934,-0.129726563,0,0,0,,0,131,131,80,1,WEASEL,HB,old,m,./images/WEASELHB.png,,,,,,,,,,,,,,,,,,,,,,,,,,,,,,,,,,,
,,,,,,,,,,,,,,,,,60fdd7d3a333d0095e9c7cbb,19,2022-02-12_17h59.39.374,lexical_decision_task_DD_L3,2021.2.3,MacIntel,60.0024001,,,,,,,,,,,0.4731,1,,,,,,,,,,,,,,m,1,0.4731,,,,,,,,0.35437934,-0.129726563,0,0,0,,0,132,132,79,1,CRUST,C,old,m,./images/CRUST.png,,,,,,,,,,,,,,,,,,,,,,,,,,,,,,,,,,,
,,,,,,,,,,,,,,,,,60fdd7d3a333d0095e9c7cbb,19,2022-02-12_17h59.39.374,lexical_decision_task_DD_L3,2021.2.3,MacIntel,60.0024001,,,,,,,,,,,0.1755,1,,,,,,,,,,,,,,m,1,0.1755,,,,,,,,0.35437934,-0.129726563,0,0,0,,0,133,133,11,1,BONNET,HB,old,m,./images/BONNETHB.png,,,,,,,,,,,,,,,,,,,,,,,,,,,,,,,,,,,
,,,,,,,,,,,,,,,,,60fdd7d3a333d0095e9c7cbb,19,2022-02-12_17h59.39.374,lexical_decision_task_DD_L3,2021.2.3,MacIntel,60.0024001,,,,,,,,,,,0.067,0,,,,,,,,,,,,,,m,0,0.067,,,,,,,,0.35437934,-0.129726563,0,0,0,,0,134,134,103,1,FLORT,HB,old,z,./images/FLORTHB.png,,,,,,,,,,,,,,,,,,,,,,,,,,,,,,,,,,,
,,,,,,,,,,,,,,,,,60fdd7d3a333d0095e9c7cbb,19,2022-02-12_17h59.39.374,lexical_decision_task_DD_L3,2021.2.3,MacIntel,60.0024001,,,,,,,,,,,0.0884,1,,,,,,,,,,,,,,m,1,0.0884,,,,,,,,0.35437934,-0.129726563,0,0,0,,0,135,135,69,1,COOKER,LB,old,m,./images/COOKERLB.png,,,,,,,,,,,,,,,,,,,,,,,,,,,,,,,,,,,
,,,,,,,,,,,,,,,,,60fdd7d3a333d0095e9c7cbb,19,2022-02-12_17h59.39.374,lexical_decision_task_DD_L3,2021.2.3,MacIntel,60.0024001,,,,,,,,,,,0.0004,0,,,,,,,,,,,,,,z,0,0.0004,,,,,,,,0.35437934,-0.129726563,0,0,0,,0,136,136,10,1,BELLY,C,old,m,./images/BELLY.png,,,,,,,,,,,,,,,,,,,,,,,,,,,,,,,,,,,
,,,,,,,,,,,,,,,,,60fdd7d3a333d0095e9c7cbb,19,2022-02-12_17h59.39.374,lexical_decision_task_DD_L3,2021.2.3,MacIntel,60.0024001,,,,,,,,,,,0.0851,1,,,,,,,,,,,,,,z,1,0.0851,,,,,,,,0.35437934,-0.129726563,0,0,0,,0,137,137,152,1,FRAIN,LB,old,z,./images/FRAINLB.png,,,,,,,,,,,,,,,,,,,,,,,,,,,,,,,,,,,
,,,,,,,,,,,,,,,,,60fdd7d3a333d0095e9c7cbb,19,2022-02-12_17h59.39.374,lexical_decision_task_DD_L3,2021.2.3,MacIntel,60.0024001,,,,,,,,,,,0.1162,1,,,,,,,,,,,,,,m,1,0.1162,,,,,,,,0.35437934,-0.129726563,0,0,0,,0,138,138,6,1,SQUARE,LB,old,m,./images/SQUARELB.png,,,,,,,,,,,,,,,,,,,,,,,,,,,,,,,,,,,
,,,,,,,,,,,,,,,,,60fdd7d3a333d0095e9c7cbb,19,2022-02-12_17h59.39.374,lexical_decision_task_DD_L3,2021.2.3,MacIntel,60.0024001,,,,,,,,,,,0.2502,1,,,,,,,,,,,,,,m,1,0.2502,,,,,,,,0.35437934,-0.129726563,0,0,0,,0,139,139,35,1,PEACH,HB,old,m,./images/PEACHHB.png,,,,,,,,,,,,,,,,,,,,,,,,,,,,,,,,,,,
,,,,,,,,,,,,,,,,,60fdd7d3a333d0095e9c7cbb,19,2022-02-12_17h59.39.374,lexical_decision_task_DD_L3,2021.2.3,MacIntel,60.0024001,,,,,,,,,,,0.0225,0,,,,,,,,,,,,,,m,0,0.0225,,,,,,,,0.35437934,-0.129726563,0,0,0,,0,140,140,140,1,DOVET,LB,old,z,./images/DOVETLB.png,,,,,,,,,,,,,,,,,,,,,,,,,,,,,,,,,,,
,,,,,,,,,,,,,,,,,60fdd7d3a333d0095e9c7cbb,19,2022-02-12_17h59.39.374,lexical_decision_task_DD_L3,2021.2.3,MacIntel,60.0024001,,,,,,,,,,,0.0003,1,,,,,,,,,,,,,,z,1,0.0003,,,,,,,,0.35437934,-0.129726563,0,0,0,,0,141,141,123,1,SEDGE,C,old,z,./images/SEDGE.png,,,,,,,,,,,,,,,,,,,,,,,,,,,,,,,,,,,
,,,,,,,,,,,,,,,,,60fdd7d3a333d0095e9c7cbb,19,2022-02-12_17h59.39.374,lexical_decision_task_DD_L3,2021.2.3,MacIntel,60.0024001,,,,,,,,,,,0.2693,1,,,,,,,,,,,,,,m,1,0.2693,,,,,,,,0.35437934,-0.129726563,0,0,0,,0,142,142,24,1,SCREW,LB,old,m,./images/SCREWLB.png,,,,,,,,,,,,,,,,,,,,,,,,,,,,,,,,,,,
,,,,,,,,,,,,,,,,,60fdd7d3a333d0095e9c7cbb,19,2022-02-12_17h59.39.374,lexical_decision_task_DD_L3,2021.2.3,MacIntel,60.0024001,,,,,,,,,,,1.1922,1,,,,,,,,,,,,,,z,1,1.1922,,,,,,,,0.35437934,-0.129726563,0,0,0,,0,143,143,165,1,TROWN,C,old,z,./images/TROWN.png,,,,,,,,,,,,,,,,,,,,,,,,,,,,,,,,,,,
,,,,,,,,,,,,,,,,,60fdd7d3a333d0095e9c7cbb,19,2022-02-12_17h59.39.374,lexical_decision_task_DD_L3,2021.2.3,MacIntel,60.0024001,,,,,,,,,,,0.0535,0,,,,,,,,,,,,,,m,0,0.0535,,,,,,,,0.35437934,-0.129726563,0,0,0,,0,144,144,148,1,JOMS,HB,old,z,./images/JOMSHB.png,,,,,,,,,,,,,,,,,,,,,,,,,,,,,,,,,,,
,,,,,,,,,,,,,,,,,60fdd7d3a333d0095e9c7cbb,19,2022-02-12_17h59.39.374,lexical_decision_task_DD_L3,2021.2.3,MacIntel,60.0024001,,,,,,,,,,,0.1572,0,,,,,,,,,,,,,,m,0,0.1572,,,,,,,,0.35437934,-0.129726563,0,0,0,,0,145,145,127,1,NINDY,HB,old,z,./images/NINDYHB.png,,,,,,,,,,,,,,,,,,,,,,,,,,,,,,,,,,,
,,,,,,,,,,,,,,,,,60fdd7d3a333d0095e9c7cbb,19,2022-02-12_17h59.39.374,lexical_decision_task_DD_L3,2021.2.3,MacIntel,60.0024001,,,,,,,,,,,0.2081,1,,,,,,,,,,,,,,m,1,0.2081,,,,,,,,0.35437934,-0.129726563,0,0,0,,0,146,146,25,1,WRIST,C,old,m,./images/WRIST.png,,,,,,,,,,,,,,,,,,,,,,,,,,,,,,,,,,,
,,,,,,,,,,,,,,,,,60fdd7d3a333d0095e9c7cbb,19,2022-02-12_17h59.39.374,lexical_decision_task_DD_L3,2021.2.3,MacIntel,60.0024001,,,,,,,,,,,0.0573,0,,,,,,,,,,,,,,z,0,0.0573,,,,,,,,0.35437934,-0.129726563,0,0,0,,0,147,147,14,1,PICKLE,HB,old,m,./images/PICKLEHB.png,,,,,,,,,,,,,,,,,,,,,,,,,,,,,,,,,,,
,,,,,,,,,,,,,,,,,60fdd7d3a333d0095e9c7cbb,19,2022-02-12_17h59.39.374,lexical_decision_task_DD_L3,2021.2.3,MacIntel,60.0024001,,,,,,,,,,,0.0615,1,,,,,,,,,,,,,,z,1,0.0615,,,,,,,,0.35437934,-0.129726563,0,0,0,,0,148,148,138,1,PLICE,C,old,z,./images/PLICE.png,,,,,,,,,,,,,,,,,,,,,,,,,,,,,,,,,,,
,,,,,,,,,,,,,,,,,60fdd7d3a333d0095e9c7cbb,19,2022-02-12_17h59.39.374,lexical_decision_task_DD_L3,2021.2.3,MacIntel,60.0024001,,,,,,,,,,,0.0148,0,,,,,,,,,,,,,,m,0,0.0148,,,,,,,,0.35437934,-0.129726563,0,0,0,,0,149,149,142,1,PLASK,HB,old,z,./images/PLASKHB.png,,,,,,,,,,,,,,,,,,,,,,,,,,,,,,,,,,,
,,,,,,,,,,,,,,,,,60fdd7d3a333d0095e9c7cbb,19,2022-02-12_17h59.39.374,lexical_decision_task_DD_L3,2021.2.3,MacIntel,60.0024001,,,,,,,,,,,0.2015,1,,,,,,,,,,,,,,m,1,0.2015,,,,,,,,0.35437934,-0.129726563,0,0,0,,0,150,150,12,1,SHORE,LB,old,m,./images/SHORELB.png,,,,,,,,,,,,,,,,,,,,,,,,,,,,,,,,,,,
,,,,,,,,,,,,,,,,,60fdd7d3a333d0095e9c7cbb,19,2022-02-12_17h59.39.374,lexical_decision_task_DD_L3,2021.2.3,MacIntel,60.0024001,,,,,,,,,,,0.3167,1,,,,,,,,,,,,,,z,1,0.3167,,,,,,,,0.35437934,-0.129726563,0,0,0,,0,151,151,98,1,BAMPS,LB,old,z,./images/BAMPSLB.png,,,,,,,,,,,,,,,,,,,,,,,,,,,,,,,,,,,
,,,,,,,,,,,,,,,,,60fdd7d3a333d0095e9c7cbb,19,2022-02-12_17h59.39.374,lexical_decision_task_DD_L3,2021.2.3,MacIntel,60.0024001,,,,,,,,,,,0.0881,1,,,,,,,,,,,,,,m,1,0.0881,,,,,,,,0.35437934,-0.129726563,0,0,0,,0,152,152,1,1,PLANK,C,old,m,./images/PLANK.png,,,,,,,,,,,,,,,,,,,,,,,,,,,,,,,,,,,
,,,,,,,,,,,,,,,,,60fdd7d3a333d0095e9c7cbb,19,2022-02-12_17h59.39.374,lexical_decision_task_DD_L3,2021.2.3,MacIntel,60.0024001,,,,,,,,,,,0.0736,0,,,,,,,,,,,,,,m,0,0.0736,,,,,,,,0.35437934,-0.129726563,0,0,0,,0,153,153,104,1,GITTY,LB,old,z,./images/GITTYLB.png,,,,,,,,,,,,,,,,,,,,,,,,,,,,,,,,,,,
,,,,,,,,,,,,,,,,,60fdd7d3a333d0095e9c7cbb,19,2022-02-12_17h59.39.374,lexical_decision_task_DD_L3,2021.2.3,MacIntel,60.0024001,,,,,,,,,,,0.6734,1,,,,,,,,,,,,,,z,1,0.6734,,,,,,,,0.35437934,-0.129726563,0,0,0,,0,154,154,89,1,DRIEK,LB,old,z,./images/DRIEKLB.png,,,,,,,,,,,,,,,,,,,,,,,,,,,,,,,,,,,
,,,,,,,,,,,,,,,,,60fdd7d3a333d0095e9c7cbb,19,2022-02-12_17h59.39.374,lexical_decision_task_DD_L3,2021.2.3,MacIntel,60.0024001,,,,,,,,,,,0.1502,1,,,,,,,,,,,,,,z,1,0.1502,,,,,,,,0.35437934,-0.129726563,0,0,0,,0,155,155,84,1,HAXES,C,old,z,./images/HAXES.png,,,,,,,,,,,,,,,,,,,,,,,,,,,,,,,,,,,
,,,,,,,,,,,,,,,,,60fdd7d3a333d0095e9c7cbb,19,2022-02-12_17h59.39.374,lexical_decision_task_DD_L3,2021.2.3,MacIntel,60.0024001,,,,,,,,,,,0.0222,0,,,,,,,,,,,,,,z,0,0.0222,,,,,,,,0.35437934,-0.129726563,0,0,0,,0,156,156,41,1,STRING,HB,old,m,./images/STRINGHB.png,,,,,,,,,,,,,,,,,,,,,,,,,,,,,,,,,,,
,,,,,,,,,,,,,,,,,60fdd7d3a333d0095e9c7cbb,19,2022-02-12_17h59.39.374,lexical_decision_task_DD_L3,2021.2.3,MacIntel,60.0024001,,,,,,,,,,,0.4988,1,,,,,,,,,,,,,,z,1,0.4988,,,,,,,,0.35437934,-0.129726563,0,0,0,,0,157,157,90,1,NEAST,C,old,z,./images/NEAST.png,,,,,,,,,,,,,,,,,,,,,,,,,,,,,,,,,,,
,,,,,,,,,,,,,,,,,60fdd7d3a333d0095e9c7cbb,19,2022-02-12_17h59.39.374,lexical_decision_task_DD_L3,2021.2.3,MacIntel,60.0024001,,,,,,,,,,,0.6492,1,,,,,,,,,,,,,,z,1,0.6492,,,,,,,,0.35437934,-0.129726563,0,0,0,,0,158,158,122,1,BLOOT,LB,old,z,./images/BLOOTLB.png,,,,,,,,,,,,,,,,,,,,,,,,,,,,,,,,,,,
,,,,,,,,,,,,,,,,,60fdd7d3a333d0095e9c7cbb,19,2022-02-12_17h59.39.374,lexical_decision_task_DD_L3,2021.2.3,MacIntel,60.0024001,,,,,,,,,,,0.6311,1,,,,,,,,,,,,,,m,1,0.6311,,,,,,,,0.35437934,-0.129726563,0,0,0,,0,159,159,81,1,POODLE,LB,old,m,./images/POODLELB.png,,,,,,,,,,,,,,,,,,,,,,,,,,,,,,,,,,,
,,,,,,,,,,,,,,,,,60fdd7d3a333d0095e9c7cbb,19,2022-02-12_17h59.39.374,lexical_decision_task_DD_L3,2021.2.3,MacIntel,60.0024001,,,,,,,,,,,0.5218,0,,,,,,,,,,,,,,z,0,0.5218,,,,,,,,0.35437934,-0.129726563,0,0,0,,0,160,160,31,1,QUILL,C,old,m,./images/QUILL.png,,,,,,,,,,,,,,,,,,,,,,,,,,,,,,,,,,,
,,,,,,,,,,,,,,,,,60fdd7d3a333d0095e9c7cbb,19,2022-02-12_17h59.39.374,lexical_decision_task_DD_L3,2021.2.3,MacIntel,60.0024001,,,,,,,,,,,0.5341,1,,,,,,,,,,,,,,m,1,0.5341,,,,,,,,0.35437934,-0.129726563,0,0,0,,0,161,161,39,1,SHELF,LB,old,m,./images/SHELFLB.png,,,,,,,,,,,,,,,,,,,,,,,,,,,,,,,,,,,
,,,,,,,,,,,,,,,,,60fdd7d3a333d0095e9c7cbb,19,2022-02-12_17h59.39.374,lexical_decision_task_DD_L3,2021.2.3,MacIntel,60.0024001,,,,,,,,,,,0.4238,1,,,,,,,,,,,,,,m,1,0.4238,,,,,,,,0.35437934,-0.129726563,0,0,0,,0,162,162,82,1,SUNSET,C,old,m,./images/SUNSET.png,,,,,,,,,,,,,,,,,,,,,,,,,,,,,,,,,,,
,,,,,,,,,,,,,,,,,60fdd7d3a333d0095e9c7cbb,19,2022-02-12_17h59.39.374,lexical_decision_task_DD_L3,2021.2.3,MacIntel,60.0024001,,,,,,,,,,,0.4567,0,,,,,,,,,,,,,,z,0,0.4567,,,,,,,,0.35437934,-0.129726563,0,0,0,,0,163,163,29,1,CRUMB,HB,old,m,./images/CRUMBHB.png,,,,,,,,,,,,,,,,,,,,,,,,,,,,,,,,,,,
,,,,,,,,,,,,,,,,,60fdd7d3a333d0095e9c7cbb,19,2022-02-12_17h59.39.374,lexical_decision_task_DD_L3,2021.2.3,MacIntel,60.0024001,,,,,,,,,,,0.1419,0,,,,,,,,,,,,,,m,0,0.1419,,,,,,,,0.35437934,-0.129726563,0,0,0,,0,164,164,147,1,ZOLES,C,old,z,./images/ZOLES.png,,,,,,,,,,,,,,,,,,,,,,,,,,,,,,,,,,,
,,,,,,,,,,,,,,,,,60fdd7d3a333d0095e9c7cbb,19,2022-02-12_17h59.39.374,lexical_decision_task_DD_L3,2021.2.3,MacIntel,60.0024001,,,,,,,,,,,0.0004,1,,,,,,,,,,,,,,m,1,0.0004,,,,,,,,0.35437934,-0.129726563,0,0,0,,0,165,165,8,1,TULIP,HB,old,m,./images/TULIPHB.png,,,,,,,,,,,,,,,,,,,,,,,,,,,,,,,,,,,
,,,,,,,,,,,,,,,,,60fdd7d3a333d0095e9c7cbb,19,2022-02-12_17h59.39.374,lexical_decision_task_DD_L3,2021.2.3,MacIntel,60.0024001,,,,,,,,,,,0.1625,0,,,,,,,,,,,,,,m,0,0.1625,,,,,,,,0.35437934,-0.129726563,0,0,0,,0,166,166,93,1,SMONE,C,old,z,./images/SMONE.png,,,,,,,,,,,,,,,,,,,,,,,,,,,,,,,,,,,
,,,,,,,,,,,,,,,,,60fdd7d3a333d0095e9c7cbb,19,2022-02-12_17h59.39.374,lexical_decision_task_DD_L3,2021.2.3,MacIntel,60.0024001,,,,,,,,,,,0.3467,1,,,,,,,,,,,,,,m,1,0.3467,,,,,,,,0.35437934,-0.129726563,0,0,0,,0,167,167,22,1,MELON,C,old,m,./images/MELON.png,,,,,,,,,,,,,,,,,,,,,,,,,,,,,,,,,,,
,,,,,,,,,,,,,,,,,60fdd7d3a333d0095e9c7cbb,19,2022-02-12_17h59.39.374,lexical_decision_task_DD_L3,2021.2.3,MacIntel,60.0024001,,,,,,,,,,,,,,,,,,,,,,,,,,,,,,,,,,,,,,,,,,,,,,,,How likely will it be that you will recognize the words presented clearly on a scale of 0 (not likely) to 100 (most likely)?,,,,,0.007994792,-0.413029514,1,0,0,jol_adv,4,1.428,0,0,0,0,1,,,,,,,,,,,,,,,,,,,,,
,,,,,,,,,,,,,,,,,60fdd7d3a333d0095e9c7cbb,19,2022-02-12_17h59.39.374,lexical_decision_task_DD_L3,2021.2.3,MacIntel,60.0024001,,,,,,,,,,,,,,,,,,,,,,,,,,,,,,,,,,,,,,,,,,,,,,,,How likely will it be that you will recognize the words presented very blurred on a scale of 0 (not likely) to 100 (most likely)?,,,,,,,,,,,3,1.12,0,1,1,2,1,,,,,,,,,,,,,,,,,,,,,
,,,,,,,,,,,,,,,,,60fdd7d3a333d0095e9c7cbb,19,2022-02-12_17h59.39.374,lexical_decision_task_DD_L3,2021.2.3,MacIntel,60.0024001,,,,,,,,,,,,,,,,,,,,,,,,,,,,,,,,,,,,,,,,,,,,,,,,How likely will it be that you will recognize the words presented slighly blurred on a scale of 0 (not likely) to 100 (most likely)?,,,,,,,,,,,4,0.6112,0,2,2,1,1,,,,,,,,,,,,,,,,,,,,,
,,-0.027547743,-0.369105903,1,0,0,,,,,,1,test,"In the next phase you will be presented with the words from the the first phase. Your job is to decide whether you remember seeing the word or not. If you remember seeing the word press ""old"" or type ""m"". If you do not remember seeing the word press ""new"" or type ""z"". Please press the space bar or click on continue to begin. ",,,60fdd7d3a333d0095e9c7cbb,19,2022-02-12_17h59.39.374,lexical_decision_task_DD_L3,2021.2.3,MacIntel,60.0024001,,,,,,,,,,,,,,,,,,,,,,,,,,,,,,,,,,,,,,,,,,,,,,,,,,,,,,,,,,,,,,,,,,instr_done_button,0,0,0,0,1,,,,,,,,,,,,,,,
,,-0.037586806,-0.387439236,1,0,0,,,,,,1,test,"In the next phase you will be presented with the words from the the first phase. Your job is to decide whether you remember seeing the word or not. If you remember seeing the word press ""old"" or type ""m"". If you do not remember seeing the word press ""new"" or type ""z"". Please press the space bar or click on continue to begin. ",,,60fdd7d3a333d0095e9c7cbb,19,2022-02-12_17h59.39.374,lexical_decision_task_DD_L3,2021.2.3,MacIntel,60.0024001,,,,,,,,,,,,,,,,,,,,,,,,,,,,,,,,,,,,,,,,,,,,,,,,,,,,,,,,,,,,,,,,,,instr_done_button,1,0,1,0,1,,,,,,,,,,,,,,,
,,-0.067530382,-0.400138889,1,0,0,,,,,,1,test,"In the next phase you will be presented with the words from the the first phase. Your job is to decide whether you remember seeing the word or not. If you remember seeing the word press ""old"" or type ""m"". If you do not remember seeing the word press ""new"" or type ""z"". Please press the space bar or click on continue to begin. ",,,60fdd7d3a333d0095e9c7cbb,19,2022-02-12_17h59.39.374,lexical_decision_task_DD_L3,2021.2.3,MacIntel,60.0024001,,,,,,,,,,,,,,,,,,,,,,,,,,,,,,,,,,,,,,,,,,,,,,,,,,,,,,,,,,,,,,,,,,instr_done_button,2,0,2,0,1,,,,,,,,,,,,,,,
space,0.6381,-0.068046875,-0.399622396,0,0,0,,,,,,1,test,"In the next phase you will be presented with the words from the the first phase. Your job is to decide whether you remember seeing the word or not. If you remember seeing the word press ""old"" or type ""m"". If you do not remember seeing the word press ""new"" or type ""z"". Please press the space bar or click on continue to begin. ",,,60fdd7d3a333d0095e9c7cbb,19,2022-02-12_17h59.39.374,lexical_decision_task_DD_L3,2021.2.3,MacIntel,60.0024001,,,,,,,,,,,,,,,,,,,,,,,,,,,,,,,,,,,,,,,,,,,,,,,,,,,,,,,,,,,,,,,,,,,3,0,3,0,1,,,,,,,,,,,,,,,
,,-0.068046875,-0.399622396,1,0,0,,,,,,1,test,"In the next phase you will be presented with the words from the the first phase. Your job is to decide whether you remember seeing the word or not. If you remember seeing the word press ""old"" or type ""m"". If you do not remember seeing the word press ""new"" or type ""z"". Please press the space bar or click on continue to begin. ",,,60fdd7d3a333d0095e9c7cbb,19,2022-02-12_17h59.39.374,lexical_decision_task_DD_L3,2021.2.3,MacIntel,60.0024001,,,,,,,,,,,,,,,,,,,,,,,,,,,,,,,,,,,,,,,,,,,,,,,,,,,,,,,,,,,,,,,,,,instr_done_button,4,0,4,0,1,,,,,,,,,,,,,,,
,,,,,,,,,,,,,,,,,60fdd7d3a333d0095e9c7cbb,19,2022-02-12_17h59.39.374,lexical_decision_task_DD_L3,2021.2.3,MacIntel,60.0024001,,,,,,,,,,,1.598,0,,,,,,,,,,,,,,,,,,,,,,,,0.010607639,-0.226046007,0,0,0,,,,,,,GRANNY,HB,z,m,./images/GRANNYHB.png,,,,,,,,,,,,,,,,,,,,,m,0,1.598,,,,,,,,0,0,0,104,1
,,,,,,,,,,,,,,,,,60fdd7d3a333d0095e9c7cbb,19,2022-02-12_17h59.39.374,lexical_decision_task_DD_L3,2021.2.3,MacIntel,60.0024001,,,,,,,,,,,0.0495,1,,,,,,,,,,,,,,,,,,,,,,,,0.010607639,-0.226046007,0,0,0,,,,,,,BONNET,HB,m,m,./images/BONNETHB.png,,,,,,,,,,,,,,,,,,,,,m,1,0.0495,,,,,,,,0,1,1,11,1
,,,,,,,,,,,,,,,,,60fdd7d3a333d0095e9c7cbb,19,2022-02-12_17h59.39.374,lexical_decision_task_DD_L3,2021.2.3,MacIntel,60.0024001,,,,,,,,,,,0.0496,0,,,,,,,,,,,,,,,,,,,,,,,,0.010607639,-0.226046007,0,0,0,,,,,,,CASINO,C,z,m,./images/CASINO.png,,,,,,,,,,,,,,,,,,,,,m,0,0.0496,,,,,,,,0,2,2,112,1
,,,,,,,,,,,,,,,,,60fdd7d3a333d0095e9c7cbb,19,2022-02-12_17h59.39.374,lexical_decision_task_DD_L3,2021.2.3,MacIntel,60.0024001,,,,,,,,,,,0.1525,0,,,,,,,,,,,,,,,,,,,,,,,,0.010607639,-0.226046007,0,0,0,,,,,,,CLIFF,HB,z,m,./images/CLIFFHB.png,,,,,,,,,,,,,,,,,,,,,m,0,0.1525,,,,,,,,0,3,3,92,1
,,,,,,,,,,,,,,,,,60fdd7d3a333d0095e9c7cbb,19,2022-02-12_17h59.39.374,lexical_decision_task_DD_L3,2021.2.3,MacIntel,60.0024001,,,,,,,,,,,0.2338,0,,,,,,,,,,,,,,,,,,,,,,,,0.010607639,-0.226046007,0,0,0,,,,,,,FARMER,HB,m,m,./images/FARMERHB.png,,,,,,,,,,,,,,,,,,,,,z,0,0.2338,,,,,,,,0,4,4,65,1
,,,,,,,,,,,,,,,,,60fdd7d3a333d0095e9c7cbb,19,2022-02-12_17h59.39.374,lexical_decision_task_DD_L3,2021.2.3,MacIntel,60.0024001,,,,,,,,,,,0.0519,0,,,,,,,,,,,,,,,,,,,,,,,,0.010607639,-0.226046007,0,0,0,,,,,,,PASTA,HB,m,m,./images/PASTAHB.png,,,,,,,,,,,,,,,,,,,,,z,0,0.0519,,,,,,,,0,5,5,5,1
,,,,,,,,,,,,,,,,,60fdd7d3a333d0095e9c7cbb,19,2022-02-12_17h59.39.374,lexical_decision_task_DD_L3,2021.2.3,MacIntel,60.0024001,,,,,,,,,,,0.0046,1,,,,,,,,,,,,,,,,,,,,,,,,0.010607639,-0.226046007,0,0,0,,,,,,,BAMBOO,HB,z,m,./images/BAMBOOHB.png,,,,,,,,,,,,,,,,,,,,,z,1,0.0046,,,,,,,,0,6,6,89,1
,,,,,,,,,,,,,,,,,60fdd7d3a333d0095e9c7cbb,19,2022-02-12_17h59.39.374,lexical_decision_task_DD_L3,2021.2.3,MacIntel,60.0024001,,,,,,,,,,,0.0503,1,,,,,,,,,,,,,,,,,,,,,,,,0.010607639,-0.226046007,0,0,0,,,,,,,PARCEL,LB,z,m,./images/PARCELLB.png,,,,,,,,,,,,,,,,,,,,,z,1,0.0503,,,,,,,,0,7,7,102,1
,,,,,,,,,,,,,,,,,60fdd7d3a333d0095e9c7cbb,19,2022-02-12_17h59.39.374,lexical_decision_task_DD_L3,2021.2.3,MacIntel,60.0024001,,,,,,,,,,,0.1395,1,,,,,,,,,,,,,,,,,,,,,,,,0.010607639,-0.226046007,0,0,0,,,,,,,CARPET,HB,m,m,./images/CARPETHB.png,,,,,,,,,,,,,,,,,,,,,m,1,0.1395,,,,,,,,0,8,8,53,1
,,,,,,,,,,,,,,,,,60fdd7d3a333d0095e9c7cbb,19,2022-02-12_17h59.39.374,lexical_decision_task_DD_L3,2021.2.3,MacIntel,60.0024001,,,,,,,,,,,0.0079,1,,,,,,,,,,,,,,,,,,,,,,,,0.010607639,-0.226046007,0,0,0,,,,,,,TOMATO,LB,m,m,./images/TOMATOLB.png,,,,,,,,,,,,,,,,,,,,,m,1,0.0079,,,,,,,,0,9,9,0,1
,,,,,,,,,,,,,,,,,60fdd7d3a333d0095e9c7cbb,19,2022-02-12_17h59.39.374,lexical_decision_task_DD_L3,2021.2.3,MacIntel,60.0024001,,,,,,,,,,,0.0696,0,,,,,,,,,,,,,,,,,,,,,,,,0.010607639,-0.226046007,0,0,0,,,,,,,PIMPLE,HB,m,m,./images/PIMPLEHB.png,,,,,,,,,,,,,,,,,,,,,z,0,0.0696,,,,,,,,0,10,10,71,1
,,,,,,,,,,,,,,,,,60fdd7d3a333d0095e9c7cbb,19,2022-02-12_17h59.39.374,lexical_decision_task_DD_L3,2021.2.3,MacIntel,60.0024001,,,,,,,,,,,0.2327,1,,,,,,,,,,,,,,,,,,,,,,,,0.010607639,-0.226046007,0,0,0,,,,,,,PACKET,HB,m,m,./images/PACKETHB.png,,,,,,,,,,,,,,,,,,,,,m,1,0.2327,,,,,,,,0,11,11,56,1
,,,,,,,,,,,,,,,,,60fdd7d3a333d0095e9c7cbb,19,2022-02-12_17h59.39.374,lexical_decision_task_DD_L3,2021.2.3,MacIntel,60.0024001,,,,,,,,,,,0.0622,1,,,,,,,,,,,,,,,,,,,,,,,,0.010607639,-0.226046007,0,0,0,,,,,,,DRILL,LB,z,m,./images/DRILLLB.png,,,,,,,,,,,,,,,,,,,,,z,1,0.0622,,,,,,,,0,12,12,165,1
,,,,,,,,,,,,,,,,,60fdd7d3a333d0095e9c7cbb,19,2022-02-12_17h59.39.374,lexical_decision_task_DD_L3,2021.2.3,MacIntel,60.0024001,,,,,,,,,,,0.066,0,,,,,,,,,,,,,,,,,,,,,,,,0.010607639,-0.226046007,0,0,0,,,,,,,WHEEL,HB,z,m,./images/WHEELHB.png,,,,,,,,,,,,,,,,,,,,,m,0,0.066,,,,,,,,0,13,13,161,1
,,,,,,,,,,,,,,,,,60fdd7d3a333d0095e9c7cbb,19,2022-02-12_17h59.39.374,lexical_decision_task_DD_L3,2021.2.3,MacIntel,60.0024001,,,,,,,,,,,0.1177,1,,,,,,,,,,,,,,,,,,,,,,,,0.010607639,-0.226046007,0,0,0,,,,,,,STOOL,C,z,m,./images/STOOL.png,,,,,,,,,,,,,,,,,,,,,z,1,0.1177,,,,,,,,0,14,14,127,1
,,,,,,,,,,,,,,,,,60fdd7d3a333d0095e9c7cbb,19,2022-02-12_17h59.39.374,lexical_decision_task_DD_L3,2021.2.3,MacIntel,60.0024001,,,,,,,,,,,0.031,1,,,,,,,,,,,,,,,,,,,,,,,,0.010607639,-0.226046007,0,0,0,,,,,,,ARROW,LB,z,m,./images/ARROWLB.png,,,,,,,,,,,,,,,,,,,,,z,1,0.031,,,,,,,,0,15,15,153,1
,,,,,,,,,,,,,,,,,60fdd7d3a333d0095e9c7cbb,19,2022-02-12_17h59.39.374,lexical_decision_task_DD_L3,2021.2.3,MacIntel,60.0024001,,,,,,,,,,,0.2667,1,,,,,,,,,,,,,,,,,,,,,,,,0.010351562,-0.226046007,0,0,0,,,,,,,PEBBLE,C,z,m,./images/PEBBLE.png,,,,,,,,,,,,,,,,,,,,,z,1,0.2667,,,,,,,,0,16,16,166,1
,,,,,,,,,,,,,,,,,60fdd7d3a333d0095e9c7cbb,19,2022-02-12_17h59.39.374,lexical_decision_task_DD_L3,2021.2.3,MacIntel,60.0024001,,,,,,,,,,,0.0482,1,,,,,,,,,,,,,,,,,,,,,,,,0.010351562,-0.226046007,0,0,0,,,,,,,FLASK,LB,z,m,./images/FLASKLB.png,,,,,,,,,,,,,,,,,,,,,z,1,0.0482,,,,,,,,0,17,17,156,1
,,,,,,,,,,,,,,,,,60fdd7d3a333d0095e9c7cbb,19,2022-02-12_17h59.39.374,lexical_decision_task_DD_L3,2021.2.3,MacIntel,60.0024001,,,,,,,,,,,0.3004,0,,,,,,,,,,,,,,,,,,,,,,,,0.010351562,-0.226046007,0,0,0,,,,,,,WEASEL,HB,m,m,./images/WEASELHB.png,,,,,,,,,,,,,,,,,,,,,z,0,0.3004,,,,,,,,0,18,18,80,1
,,,,,,,,,,,,,,,,,60fdd7d3a333d0095e9c7cbb,19,2022-02-12_17h59.39.374,lexical_decision_task_DD_L3,2021.2.3,MacIntel,60.0024001,,,,,,,,,,,1.9543,1,,,,,,,,,,,,,,,,,,,,,,,,0.010351562,-0.226046007,0,0,0,,,,,,,SPORT,LB,m,m,./images/SPORTLB.png,,,,,,,,,,,,,,,,,,,,,m,1,1.9543,,,,,,,,0,19,19,48,1
,,,,,,,,,,,,,,,,,60fdd7d3a333d0095e9c7cbb,19,2022-02-12_17h59.39.374,lexical_decision_task_DD_L3,2021.2.3,MacIntel,60.0024001,,,,,,,,,,,0.0827,1,,,,,,,,,,,,,,,,,,,,,,,,0.010351562,-0.226046007,0,0,0,,,,,,,DRUMS,C,m,m,./images/DRUMS.png,,,,,,,,,,,,,,,,,,,,,m,1,0.0827,,,,,,,,0,20,20,49,1
,,,,,,,,,,,,,,,,,60fdd7d3a333d0095e9c7cbb,19,2022-02-12_17h59.39.374,lexical_decision_task_DD_L3,2021.2.3,MacIntel,60.0024001,,,,,,,,,,,0.0161,0,,,,,,,,,,,,,,,,,,,,,,,,0.010351562,-0.226046007,0,0,0,,,,,,,POSTER,HB,z,m,./images/POSTERHB.png,,,,,,,,,,,,,,,,,,,,,m,0,0.0161,,,,,,,,0,21,21,137,1
,,,,,,,,,,,,,,,,,60fdd7d3a333d0095e9c7cbb,19,2022-02-12_17h59.39.374,lexical_decision_task_DD_L3,2021.2.3,MacIntel,60.0024001,,,,,,,,,,,2.8818,1,,,,,,,,,,,,,,,,,,,,,,,,0.010351562,-0.226046007,0,0,0,,,,,,,BIRTH,C,m,m,./images/BIRTH.png,,,,,,,,,,,,,,,,,,,,,m,1,2.8818,,,,,,,,0,22,22,37,1
,,,,,,,,,,,,,,,,,60fdd7d3a333d0095e9c7cbb,19,2022-02-12_17h59.39.374,lexical_decision_task_DD_L3,2021.2.3,MacIntel,60.0024001,,,,,,,,,,,0.0145,1,,,,,,,,,,,,,,,,,,,,,,,,0.010351562,-0.226046007,0,0,0,,,,,,,STORM,LB,m,m,./images/STORMLB.png,,,,,,,,,,,,,,,,,,,,,m,1,0.0145,,,,,,,,0,23,23,30,1
,,,,,,,,,,,,,,,,,60fdd7d3a333d0095e9c7cbb,19,2022-02-12_17h59.39.374,lexical_decision_task_DD_L3,2021.2.3,MacIntel,60.0024001,,,,,,,,,,,3.4338,1,,,,,,,,,,,,,,,,,,,,,,,,0.247298133,-0.283237764,0,0,0,,,,,,,JAGUAR,LB,m,m,./images/JAGUARLB.png,,,,,,,,,,,,,,,,,,,,,m,1,3.4338,,,,,,,,0,24,24,18,1
,,,,,,,,,,,,,,,,,60fdd7d3a333d0095e9c7cbb,19,2022-02-12_17h59.39.374,lexical_decision_task_DD_L3,2021.2.3,MacIntel,60.0024001,,,,,,,,,,,0.8836,1,,,,,,,,,,,,,,,,,,,,,,,,-0.675714639,0.481900883,0,0,0,,,,,,,POODLE,LB,m,m,./images/POODLELB.png,,,,,,,,,,,,,,,,,,,,,m,1,0.8836,,,,,,,,0,25,25,81,1
,,,,,,,,,,,,,,,,,60fdd7d3a333d0095e9c7cbb,19,2022-02-12_17h59.39.374,lexical_decision_task_DD_L3,2021.2.3,MacIntel,60.0024001,,,,,,,,,,,4.294,1,,,,,,,,,,,,,,,,,,,,,,,,-0.675714639,0.481900883,0,0,0,,,,,,,SCREW,LB,m,m,./images/SCREWLB.png,,,,,,,,,,,,,,,,,,,,,m,1,4.294,,,,,,,,0,26,26,24,1
,,,,,,,,,,,,,,,,,60fdd7d3a333d0095e9c7cbb,19,2022-02-12_17h59.39.374,lexical_decision_task_DD_L3,2021.2.3,MacIntel,60.0024001,,,,,,,,,,,0.1351,1,,,,,,,,,,,,,,,,,,,,,,,,-0.675714639,0.481900883,0,0,0,,,,,,,BEARD,HB,m,m,./images/BEARDHB.png,,,,,,,,,,,,,,,,,,,,,m,1,0.1351,,,,,,,,0,27,27,2,1
,,,,,,,,,,,,,,,,,60fdd7d3a333d0095e9c7cbb,19,2022-02-12_17h59.39.374,lexical_decision_task_DD_L3,2021.2.3,MacIntel,60.0024001,,,,,,,,,,,5.3635,0,,,,,,,,,,,,,,,,,,,,,,,,-0.668725259,0.280360269,0,0,0,,,,,,,MEDAL,HB,z,m,./images/MEDALHB.png,,,,,,,,,,,,,,,,,,,,,m,0,5.3635,,,,,,,,0,28,28,95,1
,,,,,,,,,,,,,,,,,60fdd7d3a333d0095e9c7cbb,19,2022-02-12_17h59.39.374,lexical_decision_task_DD_L3,2021.2.3,MacIntel,60.0024001,,,,,,,,,,,1.9252,0,,,,,,,,,,,,,,,,,,,,,,,,-0.668725259,0.280360269,0,0,0,,,,,,,PARADE,HB,z,m,./images/PARADEHB.png,,,,,,,,,,,,,,,,,,,,,m,0,1.9252,,,,,,,,0,29,29,101,1
,,,,,,,,,,,,,,,,,60fdd7d3a333d0095e9c7cbb,19,2022-02-12_17h59.39.374,lexical_decision_task_DD_L3,2021.2.3,MacIntel,60.0024001,,,,,,,,,,,0.2135,1,,,,,,,,,,,,,,,,,,,,,,,,-0.668725259,0.280360269,0,0,0,,,,,,,TWINS,LB,m,m,./images/TWINSLB.png,,,,,,,,,,,,,,,,,,,,,m,1,0.2135,,,,,,,,0,30,30,60,1
,,,,,,,,,,,,,,,,,60fdd7d3a333d0095e9c7cbb,19,2022-02-12_17h59.39.374,lexical_decision_task_DD_L3,2021.2.3,MacIntel,60.0024001,,,,,,,,,,,7.9258,0,,,,,,,,,,,,,,,,,,,,,,,,-0.668725259,0.280360269,0,0,0,,,,,,,VALLEY,HB,z,m,./images/VALLEYHB.png,,,,,,,,,,,,,,,,,,,,,m,0,7.9258,,,,,,,,0,31,31,152,1
,,,,,,,,,,,,,,,,,60fdd7d3a333d0095e9c7cbb,19,2022-02-12_17h59.39.374,lexical_decision_task_DD_L3,2021.2.3,MacIntel,60.0024001,,,,,,,,,,,0.249,1,,,,,,,,,,,,,,,,,,,,,,,,-0.668725259,0.280360269,0,0,0,,,,,,,CANDY,LB,z,m,./images/CANDYLB.png,,,,,,,,,,,,,,,,,,,,,z,1,0.249,,,,,,,,0,32,32,123,1
,,,,,,,,,,,,,,,,,60fdd7d3a333d0095e9c7cbb,19,2022-02-12_17h59.39.374,lexical_decision_task_DD_L3,2021.2.3,MacIntel,60.0024001,,,,,,,,,,,0.1871,1,,,,,,,,,,,,,,,,,,,,,,,,-0.668725259,0.280360269,0,0,0,,,,,,,CURRY,LB,z,m,./images/CURRYLB.png,,,,,,,,,,,,,,,,,,,,,z,1,0.1871,,,,,,,,0,33,33,144,1
,,,,,,,,,,,,,,,,,60fdd7d3a333d0095e9c7cbb,19,2022-02-12_17h59.39.374,lexical_decision_task_DD_L3,2021.2.3,MacIntel,60.0024001,,,,,,,,,,,0.2245,1,,,,,,,,,,,,,,,,,,,,,,,,-0.668725259,0.280360269,0,0,0,,,,,,,BABOON,C,m,m,./images/BABOON.png,,,,,,,,,,,,,,,,,,,,,m,1,0.2245,,,,,,,,0,34,34,58,1
,,,,,,,,,,,,,,,,,60fdd7d3a333d0095e9c7cbb,19,2022-02-12_17h59.39.374,lexical_decision_task_DD_L3,2021.2.3,MacIntel,60.0024001,,,,,,,,,,,0.0206,1,,,,,,,,,,,,,,,,,,,,,,,,-0.668725259,0.280360269,0,0,0,,,,,,,BOXER,C,z,m,./images/BOXER.png,,,,,,,,,,,,,,,,,,,,,z,1,0.0206,,,,,,,,0,35,35,88,1
,,,,,,,,,,,,,,,,,60fdd7d3a333d0095e9c7cbb,19,2022-02-12_17h59.39.374,lexical_decision_task_DD_L3,2021.2.3,MacIntel,60.0024001,,,,,,,,,,,0.1318,0,,,,,,,,,,,,,,,,,,,,,,,,-0.668725259,0.280360269,0,0,0,,,,,,,MUFFIN,C,m,m,./images/MUFFIN.png,,,,,,,,,,,,,,,,,,,,,z,0,0.1318,,,,,,,,0,36,36,55,1
,,,,,,,,,,,,,,,,,60fdd7d3a333d0095e9c7cbb,19,2022-02-12_17h59.39.374,lexical_decision_task_DD_L3,2021.2.3,MacIntel,60.0024001,,,,,,,,,,,0.0109,0,,,,,,,,,,,,,,,,,,,,,,,,-0.668725259,0.280360269,0,0,0,,,,,,,GRAPE,C,z,m,./images/GRAPE.png,,,,,,,,,,,,,,,,,,,,,m,0,0.0109,,,,,,,,0,37,37,100,1
,,,,,,,,,,,,,,,,,60fdd7d3a333d0095e9c7cbb,19,2022-02-12_17h59.39.374,lexical_decision_task_DD_L3,2021.2.3,MacIntel,60.0024001,,,,,,,,,,,0.0002,1,,,,,,,,,,,,,,,,,,,,,,,,-0.668725259,0.280360269,0,0,0,,,,,,,BERRY,HB,m,m,./images/BERRYHB.png,,,,,,,,,,,,,,,,,,,,,m,1,0.0002,,,,,,,,0,38,38,47,1
,,,,,,,,,,,,,,,,,60fdd7d3a333d0095e9c7cbb,19,2022-02-12_17h59.39.374,lexical_decision_task_DD_L3,2021.2.3,MacIntel,60.0024001,,,,,,,,,,,0.4194,0,,,,,,,,,,,,,,,,,,,,,,,,-0.668725259,0.280360269,0,0,0,,,,,,,MOTOR,C,m,m,./images/MOTOR.png,,,,,,,,,,,,,,,,,,,,,z,0,0.4194,,,,,,,,0,39,39,13,1
,,,,,,,,,,,,,,,,,60fdd7d3a333d0095e9c7cbb,19,2022-02-12_17h59.39.374,lexical_decision_task_DD_L3,2021.2.3,MacIntel,60.0024001,,,,,,,,,,,0.1524,0,,,,,,,,,,,,,,,,,,,,,,,,-0.668725259,0.280360269,0,0,0,,,,,,,CRADLE,HB,m,m,./images/CRADLEHB.png,,,,,,,,,,,,,,,,,,,,,z,0,0.1524,,,,,,,,0,40,40,20,1
,,,,,,,,,,,,,,,,,60fdd7d3a333d0095e9c7cbb,19,2022-02-12_17h59.39.374,lexical_decision_task_DD_L3,2021.2.3,MacIntel,60.0024001,,,,,,,,,,,0.0504,1,,,,,,,,,,,,,,,,,,,,,,,,-0.668725259,0.280360269,0,0,0,space,,,,,,RULER,C,z,m,./images/RULER.png,2.694,,,,,,,,,,,,,,,,,,,,z,1,0.0504,,,,,,,,0,41,41,163,1
,,,,,,,,,,,,,,,,,60fdd7d3a333d0095e9c7cbb,19,2022-02-12_17h59.39.374,lexical_decision_task_DD_L3,2021.2.3,MacIntel,60.0024001,,,,,,,,,,,0.0329,0,,,,,,,,,,,,,,,,,,,,,,,,-0.668725259,0.280360269,0,0,0,,,,,,,BUNNY,C,z,m,./images/BUNNY.png,,,,,,,,,,,,,,,,,,,,,m,0,0.0329,,,,,,,,0,42,42,97,1
,,,,,,,,,,,,,,,,,60fdd7d3a333d0095e9c7cbb,19,2022-02-12_17h59.39.374,lexical_decision_task_DD_L3,2021.2.3,MacIntel,60.0024001,,,,,,,,,,,0.0929,1,,,,,,,,,,,,,,,,,,,,,,,,-0.668725259,0.280360269,0,0,0,,,,,,,KIDNEY,LB,m,m,./images/KIDNEYLB.png,,,,,,,,,,,,,,,,,,,,,m,1,0.0929,,,,,,,,0,43,43,21,1
,,,,,,,,,,,,,,,,,60fdd7d3a333d0095e9c7cbb,19,2022-02-12_17h59.39.374,lexical_decision_task_DD_L3,2021.2.3,MacIntel,60.0024001,,,,,,,,,,,0.0354,1,,,,,,,,,,,,,,,,,,,,,,,,-0.668725259,0.280360269,0,0,0,,,,,,,WALRUS,HB,m,m,./images/WALRUSHB.png,,,,,,,,,,,,,,,,,,,,,m,1,0.0354,,,,,,,,0,44,44,23,1
,,,,,,,,,,,,,,,,,60fdd7d3a333d0095e9c7cbb,19,2022-02-12_17h59.39.374,lexical_decision_task_DD_L3,2021.2.3,MacIntel,60.0024001,,,,,,,,,,,0.1672,0,,,,,,,,,,,,,,,,,,,,,,,,-0.668725259,0.280360269,0,0,0,,,,,,,CRUST,C,m,m,./images/CRUST.png,,,,,,,,,,,,,,,,,,,,,z,0,0.1672,,,,,,,,0,45,45,79,1
,,,,,,,,,,,,,,,,,60fdd7d3a333d0095e9c7cbb,19,2022-02-12_17h59.39.374,lexical_decision_task_DD_L3,2021.2.3,MacIntel,60.0024001,,,,,,,,,,,0.0168,1,,,,,,,,,,,,,,,,,,,,,,,,-0.668725259,0.280360269,0,0,0,,,,,,,BROOM,LB,z,m,./images/BROOMLB.png,,,,,,,,,,,,,,,,,,,,,z,1,0.0168,,,,,,,,0,46,46,162,1
,,,,,,,,,,,,,,,,,60fdd7d3a333d0095e9c7cbb,19,2022-02-12_17h59.39.374,lexical_decision_task_DD_L3,2021.2.3,MacIntel,60.0024001,,,,,,,,,,,0.0829,1,,,,,,,,,,,,,,,,,,,,,,,,-0.668725259,0.280360269,0,0,0,,,,,,,PLANET,HB,z,m,./images/PLANETHB.png,,,,,,,,,,,,,,,,,,,,,z,1,0.0829,,,,,,,,0,47,47,164,1
,,,,,,,,,,,,,,,,,60fdd7d3a333d0095e9c7cbb,19,2022-02-12_17h59.39.374,lexical_decision_task_DD_L3,2021.2.3,MacIntel,60.0024001,,,,,,,,,,,0.0856,0,,,,,,,,,,,,,,,,,,,,,,,,-0.668725259,0.280360269,0,0,0,,,,,,,BARREL,HB,m,m,./images/BARRELHB.png,,,,,,,,,,,,,,,,,,,,,z,0,0.0856,,,,,,,,0,48,48,32,1
,,,,,,,,,,,,,,,,,60fdd7d3a333d0095e9c7cbb,19,2022-02-12_17h59.39.374,lexical_decision_task_DD_L3,2021.2.3,MacIntel,60.0024001,,,,,,,,,,,0.1181,0,,,,,,,,,,,,,,,,,,,,,,,,-0.668725259,0.280360269,0,0,0,,,,,,,SMOKER,HB,m,m,./images/SMOKERHB.png,,,,,,,,,,,,,,,,,,,,,z,0,0.1181,,,,,,,,0,49,49,26,1
,,,,,,,,,,,,,,,,,60fdd7d3a333d0095e9c7cbb,19,2022-02-12_17h59.39.374,lexical_decision_task_DD_L3,2021.2.3,MacIntel,60.0024001,,,,,,,,,,,0.2371,1,,,,,,,,,,,,,,,,,,,,,,,,-0.668725259,0.280360269,0,0,0,,,,,,,SKIING,HB,m,m,./images/SKIINGHB.png,,,,,,,,,,,,,,,,,,,,,m,1,0.2371,,,,,,,,0,50,50,17,1
,,,,,,,,,,,,,,,,,60fdd7d3a333d0095e9c7cbb,19,2022-02-12_17h59.39.374,lexical_decision_task_DD_L3,2021.2.3,MacIntel,60.0024001,,,,,,,,,,,0.0412,1,,,,,,,,,,,,,,,,,,,,,,,,-0.668725259,0.280360269,0,0,0,,,,,,,CLOWN,C,z,m,./images/CLOWN.png,,,,,,,,,,,,,,,,,,,,,z,1,0.0412,,,,,,,,0,51,51,106,1
,,,,,,,,,,,,,,,,,60fdd7d3a333d0095e9c7cbb,19,2022-02-12_17h59.39.374,lexical_decision_task_DD_L3,2021.2.3,MacIntel,60.0024001,,,,,,,,,,,0.1344,0,,,,,,,,,,,,,,,,,,,,,,,,-0.668725259,0.280360269,0,0,0,,,,,,,FLESH,LB,z,m,./images/FLESHLB.png,,,,,,,,,,,,,,,,,,,,,m,0,0.1344,,,,,,,,0,52,52,108,1
,,,,,,,,,,,,,,,,,60fdd7d3a333d0095e9c7cbb,19,2022-02-12_17h59.39.374,lexical_decision_task_DD_L3,2021.2.3,MacIntel,60.0024001,,,,,,,,,,,0.1851,0,,,,,,,,,,,,,,,,,,,,,,,,-0.668725259,0.280360269,0,0,0,,,,,,,PEARL,C,m,m,./images/PEARL.png,,,,,,,,,,,,,,,,,,,,,z,0,0.1851,,,,,,,,0,53,53,46,1
,,,,,,,,,,,,,,,,,60fdd7d3a333d0095e9c7cbb,19,2022-02-12_17h59.39.374,lexical_decision_task_DD_L3,2021.2.3,MacIntel,60.0024001,,,,,,,,,,,0.0688,1,,,,,,,,,,,,,,,,,,,,,,,,-0.668725259,0.280360269,0,0,0,,,,,,,BLOKE,LB,z,m,./images/BLOKELB.png,,,,,,,,,,,,,,,,,,,,,z,1,0.0688,,,,,,,,0,54,54,96,1
,,,,,,,,,,,,,,,,,60fdd7d3a333d0095e9c7cbb,19,2022-02-12_17h59.39.374,lexical_decision_task_DD_L3,2021.2.3,MacIntel,60.0024001,,,,,,,,,,,0.1023,1,,,,,,,,,,,,,,,,,,,,,,,,-0.668725259,0.280360269,0,0,0,,,,,,,PEACH,HB,m,m,./images/PEACHHB.png,,,,,,,,,,,,,,,,,,,,,m,1,0.1023,,,,,,,,0,55,55,35,1
,,,,,,,,,,,,,,,,,60fdd7d3a333d0095e9c7cbb,19,2022-02-12_17h59.39.374,lexical_decision_task_DD_L3,2021.2.3,MacIntel,60.0024001,,,,,,,,,,,0.153,1,,,,,,,,,,,,,,,,,,,,,,,,-0.668725259,0.280360269,0,0,0,,,,,,,GREASE,LB,m,m,./images/GREASELB.png,,,,,,,,,,,,,,,,,,,,,m,1,0.153,,,,,,,,0,56,56,15,1
,,,,,,,,,,,,,,,,,60fdd7d3a333d0095e9c7cbb,19,2022-02-12_17h59.39.374,lexical_decision_task_DD_L3,2021.2.3,MacIntel,60.0024001,,,,,,,,,,,0.1315,1,,,,,,,,,,,,,,,,,,,,,,,,-0.668725259,0.280360269,0,0,0,,,,,,,SHIELD,LB,z,m,./images/SHIELDLB.png,,,,,,,,,,,,,,,,,,,,,z,1,0.1315,,,,,,,,0,57,57,132,1
,,,,,,,,,,,,,,,,,60fdd7d3a333d0095e9c7cbb,19,2022-02-12_17h59.39.374,lexical_decision_task_DD_L3,2021.2.3,MacIntel,60.0024001,,,,,,,,,,,0.0003,0,,,,,,,,,,,,,,,,,,,,,,,,-0.668725259,0.280360269,0,0,0,,,,,,,BANNER,C,m,m,./images/BANNER.png,,,,,,,,,,,,,,,,,,,,,z,0,0.0003,,,,,,,,0,58,58,52,1
,,,,,,,,,,,,,,,,,60fdd7d3a333d0095e9c7cbb,19,2022-02-12_17h59.39.374,lexical_decision_task_DD_L3,2021.2.3,MacIntel,60.0024001,,,,,,,,,,,0.1385,0,,,,,,,,,,,,,,,,,,,,,,,,-0.668725259,0.280360269,0,0,0,,,,,,,FINGER,LB,m,m,./images/FINGERLB.png,,,,,,,,,,,,,,,,,,,,,z,0,0.1385,,,,,,,,0,59,59,3,1
,,,,,,,,,,,,,,,,,60fdd7d3a333d0095e9c7cbb,19,2022-02-12_17h59.39.374,lexical_decision_task_DD_L3,2021.2.3,MacIntel,60.0024001,,,,,,,,,,,0.1885,0,,,,,,,,,,,,,,,,,,,,,,,,-0.668725259,0.280360269,0,0,0,,,,,,,FERRY,LB,z,m,./images/FERRYLB.png,,,,,,,,,,,,,,,,,,,,,m,0,0.1885,,,,,,,,0,60,60,141,1
,,,,,,,,,,,,,,,,,60fdd7d3a333d0095e9c7cbb,19,2022-02-12_17h59.39.374,lexical_decision_task_DD_L3,2021.2.3,MacIntel,60.0024001,,,,,,,,,,,0.0437,0,,,,,,,,,,,,,,,,,,,,,,,,-0.668725259,0.280360269,0,0,0,,,,,,,BRIDE,C,z,m,./images/BRIDE.png,,,,,,,,,,,,,,,,,,,,,m,0,0.0437,,,,,,,,0,61,61,148,1
,,,,,,,,,,,,,,,,,60fdd7d3a333d0095e9c7cbb,19,2022-02-12_17h59.39.374,lexical_decision_task_DD_L3,2021.2.3,MacIntel,60.0024001,,,,,,,,,,,0.0296,0,,,,,,,,,,,,,,,,,,,,,,,,-0.668725259,0.280360269,0,0,0,,,,,,,SLOPE,LB,z,m,./images/SLOPELB.png,,,,,,,,,,,,,,,,,,,,,m,0,0.0296,,,,,,,,0,62,62,114,1
,,,,,,,,,,,,,,,,,60fdd7d3a333d0095e9c7cbb,19,2022-02-12_17h59.39.374,lexical_decision_task_DD_L3,2021.2.3,MacIntel,60.0024001,,,,,,,,,,,0.204,1,,,,,,,,,,,,,,,,,,,,,,,,-0.668725259,0.280360269,0,0,0,,,,,,,PENCE,C,m,m,./images/PENCE.png,,,,,,,,,,,,,,,,,,,,,m,1,0.204,,,,,,,,0,63,63,16,1
,,,,,,,,,,,,,,,,,60fdd7d3a333d0095e9c7cbb,19,2022-02-12_17h59.39.374,lexical_decision_task_DD_L3,2021.2.3,MacIntel,60.0024001,,,,,,,,,,,0.0554,0,,,,,,,,,,,,,,,,,,,,,,,,-0.668725259,0.280360269,0,0,0,,,,,,,CANOE,C,z,m,./images/CANOE.png,,,,,,,,,,,,,,,,,,,,,m,0,0.0554,,,,,,,,0,64,64,142,1
,,,,,,,,,,,,,,,,,60fdd7d3a333d0095e9c7cbb,19,2022-02-12_17h59.39.374,lexical_decision_task_DD_L3,2021.2.3,MacIntel,60.0024001,,,,,,,,,,,0.3695,1,,,,,,,,,,,,,,,,,,,,,,,,-0.668725259,0.280360269,0,0,0,,,,,,,PLANK,C,m,m,./images/PLANK.png,,,,,,,,,,,,,,,,,,,,,m,1,0.3695,,,,,,,,0,65,65,1,1
,,,,,,,,,,,,,,,,,60fdd7d3a333d0095e9c7cbb,19,2022-02-12_17h59.39.374,lexical_decision_task_DD_L3,2021.2.3,MacIntel,60.0024001,,,,,,,,,,,0.3867,0,,,,,,,,,,,,,,,,,,,,,,,,-0.668725259,0.280360269,0,0,0,,,,,,,GLOVE,C,z,m,./images/GLOVE.png,,,,,,,,,,,,,,,,,,,,,m,0,0.3867,,,,,,,,0,66,66,157,1
,,,,,,,,,,,,,,,,,60fdd7d3a333d0095e9c7cbb,19,2022-02-12_17h59.39.374,lexical_decision_task_DD_L3,2021.2.3,MacIntel,60.0024001,,,,,,,,,,,0.2601,1,,,,,,,,,,,,,,,,,,,,,,,,-0.668725259,0.280360269,0,0,0,,,,,,,PURSE,HB,m,m,./images/PURSEHB.png,,,,,,,,,,,,,,,,,,,,,m,1,0.2601,,,,,,,,0,67,67,62,1
,,,,,,,,,,,,,,,,,60fdd7d3a333d0095e9c7cbb,19,2022-02-12_17h59.39.374,lexical_decision_task_DD_L3,2021.2.3,MacIntel,60.0024001,,,,,,,,,,,0.1161,1,,,,,,,,,,,,,,,,,,,,,,,,-0.668725259,0.280360269,0,0,0,,,,,,,SWING,C,m,m,./images/SWING.png,,,,,,,,,,,,,,,,,,,,,m,1,0.1161,,,,,,,,0,68,68,40,1
,,,,,,,,,,,,,,,,,60fdd7d3a333d0095e9c7cbb,19,2022-02-12_17h59.39.374,lexical_decision_task_DD_L3,2021.2.3,MacIntel,60.0024001,,,,,,,,,,,0.0158,0,,,,,,,,,,,,,,,,,,,,,,,,-0.668725259,0.280360269,0,0,0,,,,,,,GARDEN,C,z,m,./images/GARDEN.png,,,,,,,,,,,,,,,,,,,,,m,0,0.0158,,,,,,,,0,69,69,94,1
,,,,,,,,,,,,,,,,,60fdd7d3a333d0095e9c7cbb,19,2022-02-12_17h59.39.374,lexical_decision_task_DD_L3,2021.2.3,MacIntel,60.0024001,,,,,,,,,,,0.1353,1,,,,,,,,,,,,,,,,,,,,,,,,-0.668725259,0.280360269,0,0,0,,,,,,,CLOUD,HB,z,m,./images/CLOUDHB.png,,,,,,,,,,,,,,,,,,,,,z,1,0.1353,,,,,,,,0,70,70,110,1
,,,,,,,,,,,,,,,,,60fdd7d3a333d0095e9c7cbb,19,2022-02-12_17h59.39.374,lexical_decision_task_DD_L3,2021.2.3,MacIntel,60.0024001,,,,,,,,,,,0.0506,0,,,,,,,,,,,,,,,,,,,,,,,,-0.668725259,0.280360269,0,0,0,,,,,,,THROAT,LB,m,m,./images/THROATLB.png,,,,,,,,,,,,,,,,,,,,,z,0,0.0506,,,,,,,,0,71,71,36,1
,,,,,,,,,,,,,,,,,60fdd7d3a333d0095e9c7cbb,19,2022-02-12_17h59.39.374,lexical_decision_task_DD_L3,2021.2.3,MacIntel,60.0024001,,,,,,,,,,,0.4187,0,,,,,,,,,,,,,,,,,,,,,,,,-0.668725259,0.280360269,0,0,0,,,,,,,STRING,HB,m,m,./images/STRINGHB.png,,,,,,,,,,,,,,,,,,,,,z,0,0.4187,,,,,,,,0,72,72,41,1
,,,,,,,,,,,,,,,,,60fdd7d3a333d0095e9c7cbb,19,2022-02-12_17h59.39.374,lexical_decision_task_DD_L3,2021.2.3,MacIntel,60.0024001,,,,,,,,,,,0.0004,0,,,,,,,,,,,,,,,,,,,,,,,,-0.668725259,0.280360269,0,0,0,,,,,,,SAILOR,C,m,m,./images/SAILOR.png,,,,,,,,,,,,,,,,,,,,,z,0,0.0004,,,,,,,,0,73,73,67,1
,,,,,,,,,,,,,,,,,60fdd7d3a333d0095e9c7cbb,19,2022-02-12_17h59.39.374,lexical_decision_task_DD_L3,2021.2.3,MacIntel,60.0024001,,,,,,,,,,,0.07,0,,,,,,,,,,,,,,,,,,,,,,,,-0.668725259,0.280360269,0,0,0,,,,,,,CANDLE,C,m,m,./images/CANDLE.png,,,,,,,,,,,,,,,,,,,,,z,0,0.07,,,,,,,,0,74,74,61,1
,,,,,,,,,,,,,,,,,60fdd7d3a333d0095e9c7cbb,19,2022-02-12_17h59.39.374,lexical_decision_task_DD_L3,2021.2.3,MacIntel,60.0024001,,,,,,,,,,,0.0234,1,,,,,,,,,,,,,,,,,,,,,,,,-0.668725259,0.280360269,0,0,0,,,,,,,PICKLE,HB,m,m,./images/PICKLEHB.png,,,,,,,,,,,,,,,,,,,,,m,1,0.0234,,,,,,,,0,75,75,14,1
,,,,,,,,,,,,,,,,,60fdd7d3a333d0095e9c7cbb,19,2022-02-12_17h59.39.374,lexical_decision_task_DD_L3,2021.2.3,MacIntel,60.0024001,,,,,,,,,,,0.0192,1,,,,,,,,,,,,,,,,,,,,,,,,-0.668725259,0.280360269,0,0,0,,,,,,,SAUCE,LB,z,m,./images/SAUCELB.png,,,,,,,,,,,,,,,,,,,,,z,1,0.0192,,,,,,,,0,76,76,135,1
,,,,,,,,,,,,,,,,,60fdd7d3a333d0095e9c7cbb,19,2022-02-12_17h59.39.374,lexical_decision_task_DD_L3,2021.2.3,MacIntel,60.0024001,,,,,,,,,,,0.0882,0,,,,,,,,,,,,,,,,,,,,,,,,-0.668725259,0.280360269,0,0,0,,,,,,,CANYON,C,m,m,./images/CANYON.png,,,,,,,,,,,,,,,,,,,,,z,0,0.0882,,,,,,,,0,77,77,34,1
,,,,,,,,,,,,,,,,,60fdd7d3a333d0095e9c7cbb,19,2022-02-12_17h59.39.374,lexical_decision_task_DD_L3,2021.2.3,MacIntel,60.0024001,,,,,,,,,,,0.0858,1,,,,,,,,,,,,,,,,,,,,,,,,-0.668725259,0.280360269,0,0,0,,,,,,,DIVER,LB,z,m,./images/DIVERLB.png,,,,,,,,,,,,,,,,,,,,,z,1,0.0858,,,,,,,,0,78,78,93,1
,,,,,,,,,,,,,,,,,60fdd7d3a333d0095e9c7cbb,19,2022-02-12_17h59.39.374,lexical_decision_task_DD_L3,2021.2.3,MacIntel,60.0024001,,,,,,,,,,,0.1368,1,,,,,,,,,,,,,,,,,,,,,,,,-0.668725259,0.280360269,0,0,0,,,,,,,ENGINE,HB,z,m,./images/ENGINEHB.png,,,,,,,,,,,,,,,,,,,,,z,1,0.1368,,,,,,,,0,79,79,122,1
,,,,,,,,,,,,,,,,,60fdd7d3a333d0095e9c7cbb,19,2022-02-12_17h59.39.374,lexical_decision_task_DD_L3,2021.2.3,MacIntel,60.0024001,,,,,,,,,,,0.0236,1,,,,,,,,,,,,,,,,,,,,,,,,-0.668725259,0.280360269,0,0,0,,,,,,,MIDGET,C,z,m,./images/MIDGET.png,,,,,,,,,,,,,,,,,,,,,z,1,0.0236,,,,,,,,0,80,80,160,1
,,,,,,,,,,,,,,,,,60fdd7d3a333d0095e9c7cbb,19,2022-02-12_17h59.39.374,lexical_decision_task_DD_L3,2021.2.3,MacIntel,60.0024001,,,,,,,,,,,0.1333,0,,,,,,,,,,,,,,,,,,,,,,,,-0.668725259,0.280360269,0,0,0,,,,,,,NOOSE,LB,m,m,./images/NOOSELB.png,,,,,,,,,,,,,,,,,,,,,z,0,0.1333,,,,,,,,0,81,81,72,1
,,,,,,,,,,,,,,,,,60fdd7d3a333d0095e9c7cbb,19,2022-02-12_17h59.39.374,lexical_decision_task_DD_L3,2021.2.3,MacIntel,60.0024001,,,,,,,,,,,0.1026,0,,,,,,,,,,,,,,,,,,,,,,,,-0.668725259,0.280360269,0,0,0,,,,,,,GRAIN,LB,m,m,./images/GRAINLB.png,,,,,,,,,,,,,,,,,,,,,z,0,0.1026,,,,,,,,0,82,82,75,1
,,,,,,,,,,,,,,,,,60fdd7d3a333d0095e9c7cbb,19,2022-02-12_17h59.39.374,lexical_decision_task_DD_L3,2021.2.3,MacIntel,60.0024001,,,,,,,,,,,0.0447,0,,,,,,,,,,,,,,,,,,,,,,,,-0.668725259,0.280360269,0,0,0,space,,,,,,PILOT,HB,z,m,./images/PILOTHB.png,1.4703,,,,,,,,,,,,,,,,,,,,m,0,0.0447,,,,,,,,0,83,83,134,1
,,,,,,,,,,,,,,,,,60fdd7d3a333d0095e9c7cbb,19,2022-02-12_17h59.39.374,lexical_decision_task_DD_L3,2021.2.3,MacIntel,60.0024001,,,,,,,,,,,0.1264,1,,,,,,,,,,,,,,,,,,,,,,,,-0.668725259,0.280360269,0,0,0,,,,,,,SNAKE,C,z,m,./images/SNAKE.png,,,,,,,,,,,,,,,,,,,,,z,1,0.1264,,,,,,,,0,84,84,124,1
,,,,,,,,,,,,,,,,,60fdd7d3a333d0095e9c7cbb,19,2022-02-12_17h59.39.374,lexical_decision_task_DD_L3,2021.2.3,MacIntel,60.0024001,,,,,,,,,,,0.0003,1,,,,,,,,,,,,,,,,,,,,,,,,-0.668725259,0.280360269,0,0,0,,,,,,,TOWEL,C,z,m,./images/TOWEL.png,,,,,,,,,,,,,,,,,,,,,z,1,0.0003,,,,,,,,0,85,85,85,1
,,,,,,,,,,,,,,,,,60fdd7d3a333d0095e9c7cbb,19,2022-02-12_17h59.39.374,lexical_decision_task_DD_L3,2021.2.3,MacIntel,60.0024001,,,,,,,,,,,0.1179,0,,,,,,,,,,,,,,,,,,,,,,,,-0.668725259,0.280360269,0,0,0,,,,,,,WALNUT,LB,z,m,./images/WALNUTLB.png,,,,,,,,,,,,,,,,,,,,,m,0,0.1179,,,,,,,,0,86,86,84,1
,,,,,,,,,,,,,,,,,60fdd7d3a333d0095e9c7cbb,19,2022-02-12_17h59.39.374,lexical_decision_task_DD_L3,2021.2.3,MacIntel,60.0024001,,,,,,,,,,,0.0003,1,,,,,,,,,,,,,,,,,,,,,,,,-0.668725259,0.280360269,0,0,0,,,,,,,MONKEY,LB,z,m,./images/MONKEYLB.png,,,,,,,,,,,,,,,,,,,,,z,1,0.0003,,,,,,,,0,87,87,129,1
,,,,,,,,,,,,,,,,,60fdd7d3a333d0095e9c7cbb,19,2022-02-12_17h59.39.374,lexical_decision_task_DD_L3,2021.2.3,MacIntel,60.0024001,,,,,,,,,,,0.1757,1,,,,,,,,,,,,,,,,,,,,,,,,-0.668725259,0.280360269,0,0,0,,,,,,,COLLAR,LB,z,m,./images/COLLARLB.png,,,,,,,,,,,,,,,,,,,,,z,1,0.1757,,,,,,,,0,88,88,99,1
,,,,,,,,,,,,,,,,,60fdd7d3a333d0095e9c7cbb,19,2022-02-12_17h59.39.374,lexical_decision_task_DD_L3,2021.2.3,MacIntel,60.0024001,,,,,,,,,,,0.0654,1,,,,,,,,,,,,,,,,,,,,,,,,-0.668725259,0.280360269,0,0,0,,,,,,,TORCH,HB,m,m,./images/TORCHHB.png,,,,,,,,,,,,,,,,,,,,,m,1,0.0654,,,,,,,,0,89,89,68,1
,,,,,,,,,,,,,,,,,60fdd7d3a333d0095e9c7cbb,19,2022-02-12_17h59.39.374,lexical_decision_task_DD_L3,2021.2.3,MacIntel,60.0024001,,,,,,,,,,,0.0327,0,,,,,,,,,,,,,,,,,,,,,,,,-0.668725259,0.280360269,0,0,0,,,,,,,HEATER,HB,z,m,./images/HEATERHB.png,,,,,,,,,,,,,,,,,,,,,m,0,0.0327,,,,,,,,0,90,90,140,1
,,,,,,,,,,,,,,,,,60fdd7d3a333d0095e9c7cbb,19,2022-02-12_17h59.39.374,lexical_decision_task_DD_L3,2021.2.3,MacIntel,60.0024001,,,,,,,,,,,0.0354,0,,,,,,,,,,,,,,,,,,,,,,,,-0.668725259,0.280360269,0,0,0,,,,,,,CHALK,C,z,m,./images/CHALK.png,,,,,,,,,,,,,,,,,,,,,m,0,0.0354,,,,,,,,0,91,91,109,1
,,,,,,,,,,,,,,,,,60fdd7d3a333d0095e9c7cbb,19,2022-02-12_17h59.39.374,lexical_decision_task_DD_L3,2021.2.3,MacIntel,60.0024001,,,,,,,,,,,0.0532,1,,,,,,,,,,,,,,,,,,,,,,,,-0.668725259,0.280360269,0,0,0,,,,,,,HOCKEY,HB,z,m,./images/HOCKEYHB.png,,,,,,,,,,,,,,,,,,,,,z,1,0.0532,,,,,,,,0,92,92,116,1
,,,,,,,,,,,,,,,,,60fdd7d3a333d0095e9c7cbb,19,2022-02-12_17h59.39.374,lexical_decision_task_DD_L3,2021.2.3,MacIntel,60.0024001,,,,,,,,,,,0.15,1,,,,,,,,,,,,,,,,,,,,,,,,-0.668725259,0.280360269,0,0,0,,,,,,,COOKER,LB,m,m,./images/COOKERLB.png,,,,,,,,,,,,,,,,,,,,,m,1,0.15,,,,,,,,0,93,93,69,1
,,,,,,,,,,,,,,,,,60fdd7d3a333d0095e9c7cbb,19,2022-02-12_17h59.39.374,lexical_decision_task_DD_L3,2021.2.3,MacIntel,60.0024001,,,,,,,,,,,0.1688,1,,,,,,,,,,,,,,,,,,,,,,,,-0.668725259,0.280360269,0,0,0,,,,,,,MOOSE,LB,m,m,./images/MOOSELB.png,,,,,,,,,,,,,,,,,,,,,m,1,0.1688,,,,,,,,0,94,94,57,1
,,,,,,,,,,,,,,,,,60fdd7d3a333d0095e9c7cbb,19,2022-02-12_17h59.39.374,lexical_decision_task_DD_L3,2021.2.3,MacIntel,60.0024001,,,,,,,,,,,0.1185,1,,,,,,,,,,,,,,,,,,,,,,,,-0.668725259,0.280360269,0,0,0,,,,,,,BUTTER,LB,z,m,./images/BUTTERLB.png,,,,,,,,,,,,,,,,,,,,,z,1,0.1185,,,,,,,,0,95,95,111,1
,,,,,,,,,,,,,,,,,60fdd7d3a333d0095e9c7cbb,19,2022-02-12_17h59.39.374,lexical_decision_task_DD_L3,2021.2.3,MacIntel,60.0024001,,,,,,,,,,,0.0088,1,,,,,,,,,,,,,,,,,,,,,,,,-0.668725259,0.280360269,0,0,0,,,,,,,URINE,C,m,m,./images/URINE.png,,,,,,,,,,,,,,,,,,,,,m,1,0.0088,,,,,,,,0,96,96,70,1
,,,,,,,,,,,,,,,,,60fdd7d3a333d0095e9c7cbb,19,2022-02-12_17h59.39.374,lexical_decision_task_DD_L3,2021.2.3,MacIntel,60.0024001,,,,,,,,,,,0.0856,1,,,,,,,,,,,,,,,,,,,,,,,,-0.668725259,0.280360269,0,0,0,,,,,,,MELON,C,m,m,./images/MELON.png,,,,,,,,,,,,,,,,,,,,,m,1,0.0856,,,,,,,,0,97,97,22,1
,,,,,,,,,,,,,,,,,60fdd7d3a333d0095e9c7cbb,19,2022-02-12_17h59.39.374,lexical_decision_task_DD_L3,2021.2.3,MacIntel,60.0024001,,,,,,,,,,,0.0836,1,,,,,,,,,,,,,,,,,,,,,,,,-0.668725259,0.280360269,0,0,0,,,,,,,JELLY,C,m,m,./images/JELLY.png,,,,,,,,,,,,,,,,,,,,,m,1,0.0836,,,,,,,,0,98,98,64,1
,,,,,,,,,,,,,,,,,60fdd7d3a333d0095e9c7cbb,19,2022-02-12_17h59.39.374,lexical_decision_task_DD_L3,2021.2.3,MacIntel,60.0024001,,,,,,,,,,,0.0004,0,,,,,,,,,,,,,,,,,,,,,,,,-0.668725259,0.280360269,0,0,0,,,,,,,DONKEY,C,z,m,./images/DONKEY.png,,,,,,,,,,,,,,,,,,,,,m,0,0.0004,,,,,,,,0,99,99,103,1
,,,,,,,,,,,,,,,,,60fdd7d3a333d0095e9c7cbb,19,2022-02-12_17h59.39.374,lexical_decision_task_DD_L3,2021.2.3,MacIntel,60.0024001,,,,,,,,,,,0.0338,0,,,,,,,,,,,,,,,,,,,,,,,,-0.668725259,0.280360269,0,0,0,,,,,,,BOILER,LB,z,m,./images/BOILERLB.png,,,,,,,,,,,,,,,,,,,,,m,0,0.0338,,,,,,,,0,100,100,120,1
,,,,,,,,,,,,,,,,,60fdd7d3a333d0095e9c7cbb,19,2022-02-12_17h59.39.374,lexical_decision_task_DD_L3,2021.2.3,MacIntel,60.0024001,,,,,,,,,,,0.0004,1,,,,,,,,,,,,,,,,,,,,,,,,-0.668725259,0.280360269,0,0,0,,,,,,,BELLY,C,m,m,./images/BELLY.png,,,,,,,,,,,,,,,,,,,,,m,1,0.0004,,,,,,,,0,101,101,10,1
,,,,,,,,,,,,,,,,,60fdd7d3a333d0095e9c7cbb,19,2022-02-12_17h59.39.374,lexical_decision_task_DD_L3,2021.2.3,MacIntel,60.0024001,,,,,,,,,,,0.1534,0,,,,,,,,,,,,,,,,,,,,,,,,-0.668725259,0.280360269,0,0,0,,,,,,,SAUNA,LB,z,m,./images/SAUNALB.png,,,,,,,,,,,,,,,,,,,,,m,0,0.1534,,,,,,,,0,102,102,117,1
,,,,,,,,,,,,,,,,,60fdd7d3a333d0095e9c7cbb,19,2022-02-12_17h59.39.374,lexical_decision_task_DD_L3,2021.2.3,MacIntel,60.0024001,,,,,,,,,,,0.2578,1,,,,,,,,,,,,,,,,,,,,,,,,-0.668725259,0.280360269,0,0,0,,,,,,,PAINT,C,m,m,./images/PAINT.png,,,,,,,,,,,,,,,,,,,,,m,1,0.2578,,,,,,,,0,103,103,7,1
,,,,,,,,,,,,,,,,,60fdd7d3a333d0095e9c7cbb,19,2022-02-12_17h59.39.374,lexical_decision_task_DD_L3,2021.2.3,MacIntel,60.0024001,,,,,,,,,,,0.4181,1,,,,,,,,,,,,,,,,,,,,,,,,-0.668725259,0.280360269,0,0,0,,,,,,,CRUMB,HB,m,m,./images/CRUMBHB.png,,,,,,,,,,,,,,,,,,,,,m,1,0.4181,,,,,,,,0,104,104,29,1
,,,,,,,,,,,,,,,,,60fdd7d3a333d0095e9c7cbb,19,2022-02-12_17h59.39.374,lexical_decision_task_DD_L3,2021.2.3,MacIntel,60.0024001,,,,,,,,,,,0.0861,0,,,,,,,,,,,,,,,,,,,,,,,,-0.668725259,0.280360269,0,0,0,,,,,,,RAZOR,C,z,m,./images/RAZOR.png,,,,,,,,,,,,,,,,,,,,,m,0,0.0861,,,,,,,,0,105,105,118,1
,,,,,,,,,,,,,,,,,60fdd7d3a333d0095e9c7cbb,19,2022-02-12_17h59.39.374,lexical_decision_task_DD_L3,2021.2.3,MacIntel,60.0024001,,,,,,,,,,,0.0579,1,,,,,,,,,,,,,,,,,,,,,,,,-0.668725259,0.280360269,0,0,0,,,,,,,SWEAT,LB,m,m,./images/SWEATLB.png,,,,,,,,,,,,,,,,,,,,,m,1,0.0579,,,,,,,,0,106,106,66,1
,,,,,,,,,,,,,,,,,60fdd7d3a333d0095e9c7cbb,19,2022-02-12_17h59.39.374,lexical_decision_task_DD_L3,2021.2.3,MacIntel,60.0024001,,,,,,,,,,,0.0147,0,,,,,,,,,,,,,,,,,,,,,,,,-0.668725259,0.280360269,0,0,0,,,,,,,TRIPOD,LB,m,m,./images/TRIPODLB.png,,,,,,,,,,,,,,,,,,,,,z,0,0.0147,,,,,,,,0,107,107,54,1
,,,,,,,,,,,,,,,,,60fdd7d3a333d0095e9c7cbb,19,2022-02-12_17h59.39.374,lexical_decision_task_DD_L3,2021.2.3,MacIntel,60.0024001,,,,,,,,,,,0.091,1,,,,,,,,,,,,,,,,,,,,,,,,-0.668725259,0.280360269,0,0,0,,,,,,,RHINO,LB,m,m,./images/RHINOLB.png,,,,,,,,,,,,,,,,,,,,,m,1,0.091,,,,,,,,0,108,108,9,1
,,,,,,,,,,,,,,,,,60fdd7d3a333d0095e9c7cbb,19,2022-02-12_17h59.39.374,lexical_decision_task_DD_L3,2021.2.3,MacIntel,60.0024001,,,,,,,,,,,0.0004,1,,,,,,,,,,,,,,,,,,,,,,,,-0.668725259,0.280360269,0,0,0,,,,,,,SNACK,C,m,m,./images/SNACK.png,,,,,,,,,,,,,,,,,,,,,m,1,0.0004,,,,,,,,0,109,109,73,1
,,,,,,,,,,,,,,,,,60fdd7d3a333d0095e9c7cbb,19,2022-02-12_17h59.39.374,lexical_decision_task_DD_L3,2021.2.3,MacIntel,60.0024001,,,,,,,,,,,0.2588,1,,,,,,,,,,,,,,,,,,,,,,,,-0.668725259,0.280360269,0,0,0,,,,,,,BRUSH,HB,z,m,./images/BRUSHHB.png,,,,,,,,,,,,,,,,,,,,,z,1,0.2588,,,,,,,,0,110,110,143,1
,,,,,,,,,,,,,,,,,60fdd7d3a333d0095e9c7cbb,19,2022-02-12_17h59.39.374,lexical_decision_task_DD_L3,2021.2.3,MacIntel,60.0024001,,,,,,,,,,,0.0368,0,,,,,,,,,,,,,,,,,,,,,,,,-0.668725259,0.280360269,0,0,0,,,,,,,FALCON,C,m,m,./images/FALCON.png,,,,,,,,,,,,,,,,,,,,,z,0,0.0368,,,,,,,,0,111,111,28,1
,,,,,,,,,,,,,,,,,60fdd7d3a333d0095e9c7cbb,19,2022-02-12_17h59.39.374,lexical_decision_task_DD_L3,2021.2.3,MacIntel,60.0024001,,,,,,,,,,,0.0004,1,,,,,,,,,,,,,,,,,,,,,,,,-0.668725259,0.280360269,0,0,0,,,,,,,MOSQUE,C,m,m,./images/MOSQUE.png,,,,,,,,,,,,,,,,,,,,,m,1,0.0004,,,,,,,,0,112,112,43,1
,,,,,,,,,,,,,,,,,60fdd7d3a333d0095e9c7cbb,19,2022-02-12_17h59.39.374,lexical_decision_task_DD_L3,2021.2.3,MacIntel,60.0024001,,,,,,,,,,,0.0939,0,,,,,,,,,,,,,,,,,,,,,,,,-0.668725259,0.280360269,0,0,0,,,,,,,SPINE,HB,z,m,./images/SPINEHB.png,,,,,,,,,,,,,,,,,,,,,m,0,0.0939,,,,,,,,0,113,113,149,1
,,,,,,,,,,,,,,,,,60fdd7d3a333d0095e9c7cbb,19,2022-02-12_17h59.39.374,lexical_decision_task_DD_L3,2021.2.3,MacIntel,60.0024001,,,,,,,,,,,0.0524,0,,,,,,,,,,,,,,,,,,,,,,,,-0.668725259,0.280360269,0,0,0,,,,,,,FENCE,HB,z,m,./images/FENCEHB.png,,,,,,,,,,,,,,,,,,,,,m,0,0.0524,,,,,,,,0,114,114,98,1
,,,,,,,,,,,,,,,,,60fdd7d3a333d0095e9c7cbb,19,2022-02-12_17h59.39.374,lexical_decision_task_DD_L3,2021.2.3,MacIntel,60.0024001,,,,,,,,,,,0.0544,0,,,,,,,,,,,,,,,,,,,,,,,,-0.668725259,0.280360269,0,0,0,,,,,,,JUMPER,HB,z,m,./images/JUMPERHB.png,,,,,,,,,,,,,,,,,,,,,m,0,0.0544,,,,,,,,0,115,115,158,1
,,,,,,,,,,,,,,,,,60fdd7d3a333d0095e9c7cbb,19,2022-02-12_17h59.39.374,lexical_decision_task_DD_L3,2021.2.3,MacIntel,60.0024001,,,,,,,,,,,0.1682,0,,,,,,,,,,,,,,,,,,,,,,,,-0.668725259,0.280360269,0,0,0,,,,,,,MUMMY,C,z,m,./images/MUMMY.png,,,,,,,,,,,,,,,,,,,,,m,0,0.1682,,,,,,,,0,116,116,130,1
,,,,,,,,,,,,,,,,,60fdd7d3a333d0095e9c7cbb,19,2022-02-12_17h59.39.374,lexical_decision_task_DD_L3,2021.2.3,MacIntel,60.0024001,,,,,,,,,,,0.1838,1,,,,,,,,,,,,,,,,,,,,,,,,-0.668725259,0.280360269,0,0,0,,,,,,,SHELF,LB,m,m,./images/SHELFLB.png,,,,,,,,,,,,,,,,,,,,,m,1,0.1838,,,,,,,,0,117,117,39,1
,,,,,,,,,,,,,,,,,60fdd7d3a333d0095e9c7cbb,19,2022-02-12_17h59.39.374,lexical_decision_task_DD_L3,2021.2.3,MacIntel,60.0024001,,,,,,,,,,,0.1165,1,,,,,,,,,,,,,,,,,,,,,,,,-0.668725259,0.280360269,0,0,0,,,,,,,LIZARD,HB,m,m,./images/LIZARDHB.png,,,,,,,,,,,,,,,,,,,,,m,1,0.1165,,,,,,,,0,118,118,44,1
,,,,,,,,,,,,,,,,,60fdd7d3a333d0095e9c7cbb,19,2022-02-12_17h59.39.374,lexical_decision_task_DD_L3,2021.2.3,MacIntel,60.0024001,,,,,,,,,,,0.1561,0,,,,,,,,,,,,,,,,,,,,,,,,-0.668725259,0.280360269,0,0,0,,,,,,,BUBBLE,HB,z,m,./images/BUBBLEHB.png,,,,,,,,,,,,,,,,,,,,,m,0,0.1561,,,,,,,,0,119,119,155,1
,,,,,,,,,,,,,,,,,60fdd7d3a333d0095e9c7cbb,19,2022-02-12_17h59.39.374,lexical_decision_task_DD_L3,2021.2.3,MacIntel,60.0024001,,,,,,,,,,,0.1679,0,,,,,,,,,,,,,,,,,,,,,,,,-0.668725259,0.280360269,0,0,0,,,,,,,POKER,C,z,m,./images/POKER.png,,,,,,,,,,,,,,,,,,,,,m,0,0.1679,,,,,,,,0,120,120,151,1
,,,,,,,,,,,,,,,,,60fdd7d3a333d0095e9c7cbb,19,2022-02-12_17h59.39.374,lexical_decision_task_DD_L3,2021.2.3,MacIntel,60.0024001,,,,,,,,,,,0.057,0,,,,,,,,,,,,,,,,,,,,,,,,-0.668725259,0.280360269,0,0,0,,,,,,,BASKET,HB,z,m,./images/BASKETHB.png,,,,,,,,,,,,,,,,,,,,,m,0,0.057,,,,,,,,0,121,121,128,1
,,,,,,,,,,,,,,,,,60fdd7d3a333d0095e9c7cbb,19,2022-02-12_17h59.39.374,lexical_decision_task_DD_L3,2021.2.3,MacIntel,60.0024001,,,,,,,,,,,0.1333,1,,,,,,,,,,,,,,,,,,,,,,,,-0.668725259,0.280360269,0,0,0,,,,,,,MUSCLE,C,m,m,./images/MUSCLE.png,,,,,,,,,,,,,,,,,,,,,m,1,0.1333,,,,,,,,0,122,122,4,1
,,,,,,,,,,,,,,,,,60fdd7d3a333d0095e9c7cbb,19,2022-02-12_17h59.39.374,lexical_decision_task_DD_L3,2021.2.3,MacIntel,60.0024001,,,,,,,,,,,0.0257,0,,,,,,,,,,,,,,,,,,,,,,,,-0.668725259,0.280360269,0,0,0,,,,,,,COUCH,HB,m,m,./images/COUCHHB.png,,,,,,,,,,,,,,,,,,,,,z,0,0.0257,,,,,,,,0,123,123,77,1
,,,,,,,,,,,,,,,,,60fdd7d3a333d0095e9c7cbb,19,2022-02-12_17h59.39.374,lexical_decision_task_DD_L3,2021.2.3,MacIntel,60.0024001,,,,,,,,,,,0.0061,1,,,,,,,,,,,,,,,,,,,,,,,,-0.668725259,0.280360269,0,0,0,,,,,,,JUNGLE,HB,m,m,./images/JUNGLEHB.png,,,,,,,,,,,,,,,,,,,,,m,1,0.0061,,,,,,,,0,124,124,83,1
,,,,,,,,,,,,,,,,,60fdd7d3a333d0095e9c7cbb,19,2022-02-12_17h59.39.374,lexical_decision_task_DD_L3,2021.2.3,MacIntel,60.0024001,,,,,,,,,,,0.0173,1,,,,,,,,,,,,,,,,,,,,,,,,-0.668725259,0.280360269,0,0,0,space,,,,,,QUILL,C,m,m,./images/QUILL.png,3.9763,,,,,,,,,,,,,,,,,,,,m,1,0.0173,,,,,,,,0,125,125,31,1
,,,,,,,,,,,,,,,,,60fdd7d3a333d0095e9c7cbb,19,2022-02-12_17h59.39.374,lexical_decision_task_DD_L3,2021.2.3,MacIntel,60.0024001,,,,,,,,,,,0.212,0,,,,,,,,,,,,,,,,,,,,,,,,-0.325964906,-0.17669477,0,0,0,,,,,,,TULIP,HB,m,m,./images/TULIPHB.png,,,,,,,,,,,,,,,,,,,,,z,0,0.212,,,,,,,,0,126,126,8,1
,,,,,,,,,,,,,,,,,60fdd7d3a333d0095e9c7cbb,19,2022-02-12_17h59.39.374,lexical_decision_task_DD_L3,2021.2.3,MacIntel,60.0024001,,,,,,,,,,,0.1013,1,,,,,,,,,,,,,,,,,,,,,,,,-0.325964906,-0.17669477,0,0,0,,,,,,,WAGON,C,z,m,./images/WAGON.png,,,,,,,,,,,,,,,,,,,,,z,1,0.1013,,,,,,,,0,127,127,91,1
,,,,,,,,,,,,,,,,,60fdd7d3a333d0095e9c7cbb,19,2022-02-12_17h59.39.374,lexical_decision_task_DD_L3,2021.2.3,MacIntel,60.0024001,,,,,,,,,,,0.0142,1,,,,,,,,,,,,,,,,,,,,,,,,-0.325964906,-0.17669477,0,0,0,,,,,,,LLAMA,HB,z,m,./images/LLAMAHB.png,,,,,,,,,,,,,,,,,,,,,z,1,0.0142,,,,,,,,0,128,128,119,1
,,,,,,,,,,,,,,,,,60fdd7d3a333d0095e9c7cbb,19,2022-02-12_17h59.39.374,lexical_decision_task_DD_L3,2021.2.3,MacIntel,60.0024001,,,,,,,,,,,0.0511,1,,,,,,,,,,,,,,,,,,,,,,,,-0.325964906,-0.17669477,0,0,0,,,,,,,BANANA,C,z,m,./images/BANANA.png,,,,,,,,,,,,,,,,,,,,,z,1,0.0511,,,,,,,,0,129,129,154,1
