key_resp.keys,key_resp.rt,instr_done_touch.x,instr_done_touch.y,instr_done_touch.leftButton,instr_done_touch.midButton,instr_done_touch.rightButton,instruction_pages.thisRepN,instruction_pages.thisTrialN,instruction_pages.thisN,instruction_pages.thisIndex,instruction_pages.ran,pageN,phase,instruct_text,has_image,instruct_image,participant,age,date,expName,psychopyVersion,OS,frameRate,response.keys,response.corr,response.rt,touch_resp.x,touch_resp.y,touch_resp.leftButton,touch_resp.midButton,touch_resp.rightButton,touch_resp.time,touch_resp.clicked_name,rt,corr,practrials.thisRepN,practrials.thisTrialN,practrials.thisN,practrials.thisIndex,practrials.ran,TrialID,Target,corrAns,end_of_practice_trials_pages.thisRepN,end_of_practice_trials_pages.thisTrialN,end_of_practice_trials_pages.thisN,end_of_practice_trials_pages.thisIndex,end_of_practice_trials_pages.ran,key_resp_2.keys,key_resp_2.corr,key_resp_2.rt,targ_click.x,targ_click.y,targ_click.leftButton,targ_click.midButton,targ_click.rightButton,targ_click.time,targ_click.clicked_name,break_done_touch.x,break_done_touch.y,break_done_touch.leftButton,break_done_touch.midButton,break_done_touch.rightButton,break_done_keyboard.keys,maintrials.thisRepN,maintrials.thisTrialN,maintrials.thisN,maintrials.thisIndex,maintrials.ran,string,blur,study,lex,stim_path,break_done_keyboard.rt,mouse_2.x,mouse_2.y,mouse_2.leftButton,mouse_2.midButton,mouse_2.rightButton,mouse_2.clicked_name,slider.response,slider.rt,trials.thisRepN,trials.thisTrialN,trials.thisN,trials.thisIndex,trials.ran,instr_done_touch.clicked_name,test_instructions.thisRepN,test_instructions.thisTrialN,test_instructions.thisN,test_instructions.thisIndex,test_instructions.ran,key_resp_3.keys,key_resp_3.corr,key_resp_3.rt,test_click.x,test_click.y,test_click.leftButton,test_click.midButton,test_click.rightButton,test_click.time,test_click.clicked_name,test_phase.thisRepN,test_phase.thisTrialN,test_phase.thisN,test_phase.thisIndex,test_phase.ran
space,20.4732,0.14495124,-0.171273532,0,0,0,0,0,0,0,1,1,instructions,"INSTRUCTIONS
At the start of each trial, look at the plus sign  (+) in the center of the screen.  This tells you that a trial is about to begin and where to look. Second, the plus sign will disappear and a string of letters will appear. Your task is to determine if the string of letters is a word or not. If the item is a word press the M key (on keyboard)  or touch the word button (phone/tablet).  If the item is not a word,  press the  Z key (on keyboard)  or touch the nonword button (on phone/tablet). 
Press the space bar or touch  continue.",0,,60fef4e2e8b9ed26645404ed,18,2022-02-12_13h17.17.365,lexical_decision_task_DD_L3,2021.2.3,MacIntel,60.0024001,,,,,,,,,,,,,,,,,,,,,,,,,,,,,,,,,,,,,,,,,,,,,,,,,,,,,,,,,,,,,,,,,,,,,,,,,,,,,,,,,,,,,,
space,4.2862,0.14495124,-0.171273532,0,0,0,0,1,1,1,1,2,instructions,"If your device has a keyboard, press the 'Z' key for nonwords and the 'M' key for words.





Press the space bar or touch the button below to continue.",0,keyboard-example.gif,60fef4e2e8b9ed26645404ed,18,2022-02-12_13h17.17.365,lexical_decision_task_DD_L3,2021.2.3,MacIntel,60.0024001,,,,,,,,,,,,,,,,,,,,,,,,,,,,,,,,,,,,,,,,,,,,,,,,,,,,,,,,,,,,,,,,,,,,,,,,,,,,,,,,,,,,,,
space,4.5305,0.14495124,-0.171273532,0,0,0,0,2,2,2,1,3,instructions,"If you are using a touchscreen only device, use the buttons on the screen. Do not use the mouse.





Press the space bar or touch the button below to continue.",0,touchscreen-example.gif,60fef4e2e8b9ed26645404ed,18,2022-02-12_13h17.17.365,lexical_decision_task_DD_L3,2021.2.3,MacIntel,60.0024001,,,,,,,,,,,,,,,,,,,,,,,,,,,,,,,,,,,,,,,,,,,,,,,,,,,,,,,,,,,,,,,,,,,,,,,,,,,,,,,,,,,,,,
space,5.5432,0.14495124,-0.171273532,0,0,0,0,3,3,3,1,4,instructions,"It is very important that you respond as quickly and accurately as possible, as each letter string will only be on the screen for two seconds. If you do not respond within this time, the message 'Too slow!' will be displayed and the experiment will progress to the next letter string. The first 20 trials will be practice trials and you will receive feedback on your answers. 

Press the space bar or touch the button below to start the practice trials.",0,,60fef4e2e8b9ed26645404ed,18,2022-02-12_13h17.17.365,lexical_decision_task_DD_L3,2021.2.3,MacIntel,60.0024001,,,,,,,,,,,,,,,,,,,,,,,,,,,,,,,,,,,,,,,,,,,,,,,,,,,,,,,,,,,,,,,,,,,,,,,,,,,,,,,,,,,,,,
,,,,,,,,,,,,,,,,,60fef4e2e8b9ed26645404ed,18,2022-02-12_13h17.17.365,lexical_decision_task_DD_L3,2021.2.3,MacIntel,60.0024001,z,1,1.0146,,,,,,,,1.0146,1,0,0,0,12,1,1001,SPRINY,z,,,,,,,,,,,,,,,,,,,,,,,,,,,,,,,,,,,,,,,,,,,,,,,,,,,,,,,,,,,,,,,,,,
,,,,,,,,,,,,,,,,,60fef4e2e8b9ed26645404ed,18,2022-02-12_13h17.17.365,lexical_decision_task_DD_L3,2021.2.3,MacIntel,60.0024001,m,1,0.6321,,,,,,,,0.6321,1,0,1,1,2,1,1001,ALMOND,m,,,,,,,,,,,,,,,,,,,,,,,,,,,,,,,,,,,,,,,,,,,,,,,,,,,,,,,,,,,,,,,,,,
,,,,,,,,,,,,,,,,,60fef4e2e8b9ed26645404ed,18,2022-02-12_13h17.17.365,lexical_decision_task_DD_L3,2021.2.3,MacIntel,60.0024001,z,1,0.7254,,,,,,,,0.7254,1,0,2,2,9,1,1001,FARINY,z,,,,,,,,,,,,,,,,,,,,,,,,,,,,,,,,,,,,,,,,,,,,,,,,,,,,,,,,,,,,,,,,,,
,,,,,,,,,,,,,,,,,60fef4e2e8b9ed26645404ed,18,2022-02-12_13h17.17.365,lexical_decision_task_DD_L3,2021.2.3,MacIntel,60.0024001,m,1,0.7934,,,,,,,,0.7934,1,0,3,3,0,1,1001,UTOPIA,m,,,,,,,,,,,,,,,,,,,,,,,,,,,,,,,,,,,,,,,,,,,,,,,,,,,,,,,,,,,,,,,,,,
,,,,,,,,,,,,,,,,,60fef4e2e8b9ed26645404ed,18,2022-02-12_13h17.17.365,lexical_decision_task_DD_L3,2021.2.3,MacIntel,60.0024001,m,1,0.5735,,,,,,,,0.5735,1,0,4,4,4,1,1001,SQUEAK,m,,,,,,,,,,,,,,,,,,,,,,,,,,,,,,,,,,,,,,,,,,,,,,,,,,,,,,,,,,,,,,,,,,
,,,,,,,,,,,,,,,,,60fef4e2e8b9ed26645404ed,18,2022-02-12_13h17.17.365,lexical_decision_task_DD_L3,2021.2.3,MacIntel,60.0024001,z,1,0.8774,,,,,,,,0.8774,1,0,5,5,8,1,1001,ASLERT,z,,,,,,,,,,,,,,,,,,,,,,,,,,,,,,,,,,,,,,,,,,,,,,,,,,,,,,,,,,,,,,,,,,
,,,,,,,,,,,,,,,,,60fef4e2e8b9ed26645404ed,18,2022-02-12_13h17.17.365,lexical_decision_task_DD_L3,2021.2.3,MacIntel,60.0024001,z,1,0.8105,,,,,,,,0.8105,1,0,6,6,10,1,1001,INLADE,z,,,,,,,,,,,,,,,,,,,,,,,,,,,,,,,,,,,,,,,,,,,,,,,,,,,,,,,,,,,,,,,,,,
,,,,,,,,,,,,,,,,,60fef4e2e8b9ed26645404ed,18,2022-02-12_13h17.17.365,lexical_decision_task_DD_L3,2021.2.3,MacIntel,60.0024001,z,1,0.645,,,,,,,,0.645,1,0,7,7,15,1,1001,WHAISE,z,,,,,,,,,,,,,,,,,,,,,,,,,,,,,,,,,,,,,,,,,,,,,,,,,,,,,,,,,,,,,,,,,,
,,,,,,,,,,,,,,,,,60fef4e2e8b9ed26645404ed,18,2022-02-12_13h17.17.365,lexical_decision_task_DD_L3,2021.2.3,MacIntel,60.0024001,m,1,0.4629,,,,,,,,0.4629,1,0,8,8,5,1,1001,OBTAIN,m,,,,,,,,,,,,,,,,,,,,,,,,,,,,,,,,,,,,,,,,,,,,,,,,,,,,,,,,,,,,,,,,,,
,,,,,,,,,,,,,,,,,60fef4e2e8b9ed26645404ed,18,2022-02-12_13h17.17.365,lexical_decision_task_DD_L3,2021.2.3,MacIntel,60.0024001,z,1,0.5941,,,,,,,,0.5941,1,0,9,9,13,1,1001,ROUPET,z,,,,,,,,,,,,,,,,,,,,,,,,,,,,,,,,,,,,,,,,,,,,,,,,,,,,,,,,,,,,,,,,,,
,,,,,,,,,,,,,,,,,60fef4e2e8b9ed26645404ed,18,2022-02-12_13h17.17.365,lexical_decision_task_DD_L3,2021.2.3,MacIntel,60.0024001,z,1,0.5461,,,,,,,,0.5461,1,0,10,10,14,1,1001,THRALE,z,,,,,,,,,,,,,,,,,,,,,,,,,,,,,,,,,,,,,,,,,,,,,,,,,,,,,,,,,,,,,,,,,,
,,,,,,,,,,,,,,,,,60fef4e2e8b9ed26645404ed,18,2022-02-12_13h17.17.365,lexical_decision_task_DD_L3,2021.2.3,MacIntel,60.0024001,z,0,0.4808,,,,,,,,0.4808,0,0,11,11,6,1,1001,ZOMBIE,m,,,,,,,,,,,,,,,,,,,,,,,,,,,,,,,,,,,,,,,,,,,,,,,,,,,,,,,,,,,,,,,,,,
,,,,,,,,,,,,,,,,,60fef4e2e8b9ed26645404ed,18,2022-02-12_13h17.17.365,lexical_decision_task_DD_L3,2021.2.3,MacIntel,60.0024001,m,1,0.5618,,,,,,,,0.5618,1,0,12,12,7,1,1001,VOLUME,m,,,,,,,,,,,,,,,,,,,,,,,,,,,,,,,,,,,,,,,,,,,,,,,,,,,,,,,,,,,,,,,,,,
,,,,,,,,,,,,,,,,,60fef4e2e8b9ed26645404ed,18,2022-02-12_13h17.17.365,lexical_decision_task_DD_L3,2021.2.3,MacIntel,60.0024001,m,1,0.5716,,,,,,,,0.5716,1,0,13,13,1,1,1001,ADJUST,m,,,,,,,,,,,,,,,,,,,,,,,,,,,,,,,,,,,,,,,,,,,,,,,,,,,,,,,,,,,,,,,,,,
,,,,,,,,,,,,,,,,,60fef4e2e8b9ed26645404ed,18,2022-02-12_13h17.17.365,lexical_decision_task_DD_L3,2021.2.3,MacIntel,60.0024001,m,1,0.5722,,,,,,,,0.5722,1,0,14,14,3,1,1001,MATRIX,m,,,,,,,,,,,,,,,,,,,,,,,,,,,,,,,,,,,,,,,,,,,,,,,,,,,,,,,,,,,,,,,,,,
,,,,,,,,,,,,,,,,,60fef4e2e8b9ed26645404ed,18,2022-02-12_13h17.17.365,lexical_decision_task_DD_L3,2021.2.3,MacIntel,60.0024001,z,1,0.6894,,,,,,,,0.6894,1,0,15,15,11,1,1001,RASHET,z,,,,,,,,,,,,,,,,,,,,,,,,,,,,,,,,,,,,,,,,,,,,,,,,,,,,,,,,,,,,,,,,,,
space,5.9203,0.14495124,-0.171273532,0,0,0,,,,,,1,end_of_practice,"You have completed the practice trials. During the experimental trials, you will not receive feedback. 
Before you begin, please ensure that you are in a comfortable and quiet location and will not be disturbed for about 15 minutes, as we cannot use your data if you do not complete all the trials. 
 When you are ready to start the experimental trials, please press space or touch the button below.",,,60fef4e2e8b9ed26645404ed,18,2022-02-12_13h17.17.365,lexical_decision_task_DD_L3,2021.2.3,MacIntel,60.0024001,,,,,,,,,,,,,,,,,,,,,0,0,0,0,1,,,,,,,,,,,,,,,,,,,,,,,,,,,,,,,,,,,,,,,,,,,,,,,,,,,,,,,,,,,,,
,,,,,,,,,,,,,,,,,60fef4e2e8b9ed26645404ed,18,2022-02-12_13h17.17.365,lexical_decision_task_DD_L3,2021.2.3,MacIntel,60.0024001,,,,,,,,,,,0.6218,1,,,,,,,,,,,,,,m,1,0.6218,,,,,,,,0.14495124,-0.171273532,0,0,0,,0,0,0,46,1,PEARL,C,old,m,./images/PEARL.png,,,,,,,,,,,,,,,,,,,,,,,,,,,,,,,,,,,
,,,,,,,,,,,,,,,,,60fef4e2e8b9ed26645404ed,18,2022-02-12_13h17.17.365,lexical_decision_task_DD_L3,2021.2.3,MacIntel,60.0024001,,,,,,,,,,,0.8426,1,,,,,,,,,,,,,,z,1,0.8426,,,,,,,,0.14495124,-0.171273532,0,0,0,,0,1,1,152,1,FRAIN,LB,old,z,./images/FRAINLB.png,,,,,,,,,,,,,,,,,,,,,,,,,,,,,,,,,,,
,,,,,,,,,,,,,,,,,60fef4e2e8b9ed26645404ed,18,2022-02-12_13h17.17.365,lexical_decision_task_DD_L3,2021.2.3,MacIntel,60.0024001,,,,,,,,,,,0.8451,1,,,,,,,,,,,,,,z,1,0.8451,,,,,,,,0.14495124,-0.171273532,0,0,0,,0,2,2,119,1,PAFER,LB,old,z,./images/PAFERLB.png,,,,,,,,,,,,,,,,,,,,,,,,,,,,,,,,,,,
,,,,,,,,,,,,,,,,,60fef4e2e8b9ed26645404ed,18,2022-02-12_13h17.17.365,lexical_decision_task_DD_L3,2021.2.3,MacIntel,60.0024001,,,,,,,,,,,0.7762,1,,,,,,,,,,,,,,m,1,0.7762,,,,,,,,0.14495124,-0.171273532,0,0,0,,0,3,3,82,1,SUNSET,C,old,m,./images/SUNSET.png,,,,,,,,,,,,,,,,,,,,,,,,,,,,,,,,,,,
,,,,,,,,,,,,,,,,,60fef4e2e8b9ed26645404ed,18,2022-02-12_13h17.17.365,lexical_decision_task_DD_L3,2021.2.3,MacIntel,60.0024001,,,,,,,,,,,1.0088,1,,,,,,,,,,,,,,m,1,1.0088,,,,,,,,0.14495124,-0.171273532,0,0,0,,0,4,4,2,1,BEARD,HB,old,m,./images/BEARDHB.png,,,,,,,,,,,,,,,,,,,,,,,,,,,,,,,,,,,
,,,,,,,,,,,,,,,,,60fef4e2e8b9ed26645404ed,18,2022-02-12_13h17.17.365,lexical_decision_task_DD_L3,2021.2.3,MacIntel,60.0024001,,,,,,,,,,,0.6948,1,,,,,,,,,,,,,,m,1,0.6948,,,,,,,,0.14495124,-0.171273532,0,0,0,,0,5,5,34,1,CANYON,C,old,m,./images/CANYON.png,,,,,,,,,,,,,,,,,,,,,,,,,,,,,,,,,,,
,,,,,,,,,,,,,,,,,60fef4e2e8b9ed26645404ed,18,2022-02-12_13h17.17.365,lexical_decision_task_DD_L3,2021.2.3,MacIntel,60.0024001,,,,,,,,,,,1.5312,1,,,,,,,,,,,,,,z,1,1.5312,,,,,,,,0.14495124,-0.171273532,0,0,0,,0,6,6,112,1,MYING,HB,old,z,./images/MYINGHB.png,,,,,,,,,,,,,,,,,,,,,,,,,,,,,,,,,,,
,,,,,,,,,,,,,,,,,60fef4e2e8b9ed26645404ed,18,2022-02-12_13h17.17.365,lexical_decision_task_DD_L3,2021.2.3,MacIntel,60.0024001,,,,,,,,,,,0.9286,1,,,,,,,,,,,,,,m,1,0.9286,,,,,,,,0.14495124,-0.171273532,0,0,0,,0,7,7,61,1,CANDLE,C,old,m,./images/CANDLE.png,,,,,,,,,,,,,,,,,,,,,,,,,,,,,,,,,,,
,,,,,,,,,,,,,,,,,60fef4e2e8b9ed26645404ed,18,2022-02-12_13h17.17.365,lexical_decision_task_DD_L3,2021.2.3,MacIntel,60.0024001,,,,,,,,,,,0.6898,1,,,,,,,,,,,,,,m,1,0.6898,,,,,,,,0.14495124,-0.171273532,0,0,0,,0,8,8,1,1,PLANK,C,old,m,./images/PLANK.png,,,,,,,,,,,,,,,,,,,,,,,,,,,,,,,,,,,
,,,,,,,,,,,,,,,,,60fef4e2e8b9ed26645404ed,18,2022-02-12_13h17.17.365,lexical_decision_task_DD_L3,2021.2.3,MacIntel,60.0024001,,,,,,,,,,,0.6729,1,,,,,,,,,,,,,,m,1,0.6729,,,,,,,,0.14495124,-0.171273532,0,0,0,,0,9,9,19,1,DOUGH,C,old,m,./images/DOUGH.png,,,,,,,,,,,,,,,,,,,,,,,,,,,,,,,,,,,
,,,,,,,,,,,,,,,,,60fef4e2e8b9ed26645404ed,18,2022-02-12_13h17.17.365,lexical_decision_task_DD_L3,2021.2.3,MacIntel,60.0024001,,,,,,,,,,,1.16,1,,,,,,,,,,,,,,z,1,1.16,,,,,,,,0.14495124,-0.171273532,0,0,0,,0,10,10,165,1,TROWN,C,old,z,./images/TROWN.png,,,,,,,,,,,,,,,,,,,,,,,,,,,,,,,,,,,
,,,,,,,,,,,,,,,,,60fef4e2e8b9ed26645404ed,18,2022-02-12_13h17.17.365,lexical_decision_task_DD_L3,2021.2.3,MacIntel,60.0024001,,,,,,,,,,,1.2408,1,,,,,,,,,,,,,,z,1,1.2408,,,,,,,,0.14495124,-0.171273532,0,0,0,,0,11,11,85,1,CHULK,HB,old,z,./images/CHULKHB.png,,,,,,,,,,,,,,,,,,,,,,,,,,,,,,,,,,,
,,,,,,,,,,,,,,,,,60fef4e2e8b9ed26645404ed,18,2022-02-12_13h17.17.365,lexical_decision_task_DD_L3,2021.2.3,MacIntel,60.0024001,,,,,,,,,,,0.7073,1,,,,,,,,,,,,,,z,1,0.7073,,,,,,,,0.14495124,-0.171273532,0,0,0,,0,12,12,96,1,KEAMS,C,old,z,./images/KEAMS.png,,,,,,,,,,,,,,,,,,,,,,,,,,,,,,,,,,,
,,,,,,,,,,,,,,,,,60fef4e2e8b9ed26645404ed,18,2022-02-12_13h17.17.365,lexical_decision_task_DD_L3,2021.2.3,MacIntel,60.0024001,,,,,,,,,,,0.6565,1,,,,,,,,,,,,,,z,1,0.6565,,,,,,,,0.14495124,-0.171273532,0,0,0,,0,13,13,155,1,CANGY,LB,old,z,./images/CANGYLB.png,,,,,,,,,,,,,,,,,,,,,,,,,,,,,,,,,,,
,,,,,,,,,,,,,,,,,60fef4e2e8b9ed26645404ed,18,2022-02-12_13h17.17.365,lexical_decision_task_DD_L3,2021.2.3,MacIntel,60.0024001,,,,,,,,,,,0.726,1,,,,,,,,,,,,,,m,1,0.726,,,,,,,,0.14495124,-0.171273532,0,0,0,,0,14,14,44,1,LIZARD,HB,old,m,./images/LIZARDHB.png,,,,,,,,,,,,,,,,,,,,,,,,,,,,,,,,,,,
,,,,,,,,,,,,,,,,,60fef4e2e8b9ed26645404ed,18,2022-02-12_13h17.17.365,lexical_decision_task_DD_L3,2021.2.3,MacIntel,60.0024001,,,,,,,,,,,0.84,1,,,,,,,,,,,,,,z,1,0.84,,,,,,,,0.14495124,-0.171273532,0,0,0,,0,15,15,150,1,NOOLS,C,old,z,./images/NOOLS.png,,,,,,,,,,,,,,,,,,,,,,,,,,,,,,,,,,,
,,,,,,,,,,,,,,,,,60fef4e2e8b9ed26645404ed,18,2022-02-12_13h17.17.365,lexical_decision_task_DD_L3,2021.2.3,MacIntel,60.0024001,,,,,,,,,,,0.7067,1,,,,,,,,,,,,,,m,1,0.7067,,,,,,,,0.14495124,-0.171273532,0,0,0,,0,16,16,62,1,PURSE,HB,old,m,./images/PURSEHB.png,,,,,,,,,,,,,,,,,,,,,,,,,,,,,,,,,,,
,,,,,,,,,,,,,,,,,60fef4e2e8b9ed26645404ed,18,2022-02-12_13h17.17.365,lexical_decision_task_DD_L3,2021.2.3,MacIntel,60.0024001,,,,,,,,,,,1.4086,1,,,,,,,,,,,,,,z,1,1.4086,,,,,,,,0.14495124,-0.171273532,0,0,0,,0,17,17,159,1,CUDDY,C,old,z,./images/CUDDY.png,,,,,,,,,,,,,,,,,,,,,,,,,,,,,,,,,,,
,,,,,,,,,,,,,,,,,60fef4e2e8b9ed26645404ed,18,2022-02-12_13h17.17.365,lexical_decision_task_DD_L3,2021.2.3,MacIntel,60.0024001,,,,,,,,,,,0.5908,1,,,,,,,,,,,,,,m,1,0.5908,,,,,,,,0.14495124,-0.171273532,0,0,0,,0,18,18,49,1,DRUMS,C,old,m,./images/DRUMS.png,,,,,,,,,,,,,,,,,,,,,,,,,,,,,,,,,,,
,,,,,,,,,,,,,,,,,60fef4e2e8b9ed26645404ed,18,2022-02-12_13h17.17.365,lexical_decision_task_DD_L3,2021.2.3,MacIntel,60.0024001,,,,,,,,,,,0.776,1,,,,,,,,,,,,,,m,1,0.776,,,,,,,,0.14495124,-0.171273532,0,0,0,,0,19,19,68,1,TORCH,HB,old,m,./images/TORCHHB.png,,,,,,,,,,,,,,,,,,,,,,,,,,,,,,,,,,,
,,,,,,,,,,,,,,,,,60fef4e2e8b9ed26645404ed,18,2022-02-12_13h17.17.365,lexical_decision_task_DD_L3,2021.2.3,MacIntel,60.0024001,,,,,,,,,,,0.7746,1,,,,,,,,,,,,,,z,1,0.7746,,,,,,,,0.14495124,-0.171273532,0,0,0,,0,20,20,146,1,MOOST,LB,old,z,./images/MOOSTLB.png,,,,,,,,,,,,,,,,,,,,,,,,,,,,,,,,,,,
,,,,,,,,,,,,,,,,,60fef4e2e8b9ed26645404ed,18,2022-02-12_13h17.17.365,lexical_decision_task_DD_L3,2021.2.3,MacIntel,60.0024001,,,,,,,,,,,0.8098,1,,,,,,,,,,,,,,z,1,0.8098,,,,,,,,0.14495124,-0.171273532,0,0,0,,0,21,21,101,1,GLEET,LB,old,z,./images/GLEETLB.png,,,,,,,,,,,,,,,,,,,,,,,,,,,,,,,,,,,
,,,,,,,,,,,,,,,,,60fef4e2e8b9ed26645404ed,18,2022-02-12_13h17.17.365,lexical_decision_task_DD_L3,2021.2.3,MacIntel,60.0024001,,,,,,,,,,,1.0589,1,,,,,,,,,,,,,,z,1,1.0589,,,,,,,,0.14495124,-0.171273532,0,0,0,,0,22,22,86,1,AIFED,LB,old,z,./images/AIFEDLB.png,,,,,,,,,,,,,,,,,,,,,,,,,,,,,,,,,,,
,,,,,,,,,,,,,,,,,60fef4e2e8b9ed26645404ed,18,2022-02-12_13h17.17.365,lexical_decision_task_DD_L3,2021.2.3,MacIntel,60.0024001,,,,,,,,,,,1.4612,1,,,,,,,,,,,,,,z,1,1.4612,,,,,,,,0.14495124,-0.171273532,0,0,0,,0,23,23,94,1,BLANS,HB,old,z,./images/BLANSHB.png,,,,,,,,,,,,,,,,,,,,,,,,,,,,,,,,,,,
,,,,,,,,,,,,,,,,,60fef4e2e8b9ed26645404ed,18,2022-02-12_13h17.17.365,lexical_decision_task_DD_L3,2021.2.3,MacIntel,60.0024001,,,,,,,,,,,0.6407,1,,,,,,,,,,,,,,z,1,0.6407,,,,,,,,0.14495124,-0.171273532,0,0,0,,0,24,24,105,1,MOKER,C,old,z,./images/MOKER.png,,,,,,,,,,,,,,,,,,,,,,,,,,,,,,,,,,,
,,,,,,,,,,,,,,,,,60fef4e2e8b9ed26645404ed,18,2022-02-12_13h17.17.365,lexical_decision_task_DD_L3,2021.2.3,MacIntel,60.0024001,,,,,,,,,,,0.8791,1,,,,,,,,,,,,,,z,1,0.8791,,,,,,,,0.14495124,-0.171273532,0,0,0,,0,25,25,125,1,MOOKY,LB,old,z,./images/MOOKYLB.png,,,,,,,,,,,,,,,,,,,,,,,,,,,,,,,,,,,
,,,,,,,,,,,,,,,,,60fef4e2e8b9ed26645404ed,18,2022-02-12_13h17.17.365,lexical_decision_task_DD_L3,2021.2.3,MacIntel,60.0024001,,,,,,,,,,,0.6591,1,,,,,,,,,,,,,,m,1,0.6591,,,,,,,,0.14495124,-0.171273532,0,0,0,,0,26,26,83,1,JUNGLE,HB,old,m,./images/JUNGLEHB.png,,,,,,,,,,,,,,,,,,,,,,,,,,,,,,,,,,,
,,,,,,,,,,,,,,,,,60fef4e2e8b9ed26645404ed,18,2022-02-12_13h17.17.365,lexical_decision_task_DD_L3,2021.2.3,MacIntel,60.0024001,,,,,,,,,,,0.8442,1,,,,,,,,,,,,,,z,1,0.8442,,,,,,,,0.14495124,-0.171273532,0,0,0,,0,27,27,122,1,BLOOT,LB,old,z,./images/BLOOTLB.png,,,,,,,,,,,,,,,,,,,,,,,,,,,,,,,,,,,
,,,,,,,,,,,,,,,,,60fef4e2e8b9ed26645404ed,18,2022-02-12_13h17.17.365,lexical_decision_task_DD_L3,2021.2.3,MacIntel,60.0024001,,,,,,,,,,,0.6664,1,,,,,,,,,,,,,,m,1,0.6664,,,,,,,,0.14495124,-0.171273532,0,0,0,,0,28,28,51,1,ONION,LB,old,m,./images/ONIONLB.png,,,,,,,,,,,,,,,,,,,,,,,,,,,,,,,,,,,
,,,,,,,,,,,,,,,,,60fef4e2e8b9ed26645404ed,18,2022-02-12_13h17.17.365,lexical_decision_task_DD_L3,2021.2.3,MacIntel,60.0024001,,,,,,,,,,,1.0165,1,,,,,,,,,,,,,,m,1,1.0165,,,,,,,,0.14495124,-0.171273532,0,0,0,,0,29,29,9,1,RHINO,LB,old,m,./images/RHINOLB.png,,,,,,,,,,,,,,,,,,,,,,,,,,,,,,,,,,,
,,,,,,,,,,,,,,,,,60fef4e2e8b9ed26645404ed,18,2022-02-12_13h17.17.365,lexical_decision_task_DD_L3,2021.2.3,MacIntel,60.0024001,,,,,,,,,,,0.6275,1,,,,,,,,,,,,,,z,1,0.6275,,,,,,,,0.14495124,-0.171273532,0,0,0,,0,30,30,135,1,JOODY,C,old,z,./images/JOODY.png,,,,,,,,,,,,,,,,,,,,,,,,,,,,,,,,,,,
,,,,,,,,,,,,,,,,,60fef4e2e8b9ed26645404ed,18,2022-02-12_13h17.17.365,lexical_decision_task_DD_L3,2021.2.3,MacIntel,60.0024001,,,,,,,,,,,0.6881,0,,,,,,,,,,,,,,m,0,0.6881,,,,,,,,0.14495124,-0.171273532,0,0,0,,0,31,31,98,1,BAMPS,LB,old,z,./images/BAMPSLB.png,,,,,,,,,,,,,,,,,,,,,,,,,,,,,,,,,,,
,,,,,,,,,,,,,,,,,60fef4e2e8b9ed26645404ed,18,2022-02-12_13h17.17.365,lexical_decision_task_DD_L3,2021.2.3,MacIntel,60.0024001,,,,,,,,,,,0.6608,1,,,,,,,,,,,,,,m,1,0.6608,,,,,,,,0.14495124,-0.171273532,0,0,0,,0,32,32,42,1,FOLDER,LB,old,m,./images/FOLDERLB.png,,,,,,,,,,,,,,,,,,,,,,,,,,,,,,,,,,,
,,,,,,,,,,,,,,,,,60fef4e2e8b9ed26645404ed,18,2022-02-12_13h17.17.365,lexical_decision_task_DD_L3,2021.2.3,MacIntel,60.0024001,,,,,,,,,,,0.6927,1,,,,,,,,,,,,,,m,1,0.6927,,,,,,,,0.14495124,-0.171273532,0,0,0,,0,33,33,73,1,SNACK,C,old,m,./images/SNACK.png,,,,,,,,,,,,,,,,,,,,,,,,,,,,,,,,,,,
,,,,,,,,,,,,,,,,,60fef4e2e8b9ed26645404ed,18,2022-02-12_13h17.17.365,lexical_decision_task_DD_L3,2021.2.3,MacIntel,60.0024001,,,,,,,,,,,1.063,1,,,,,,,,,,,,,,z,1,1.063,,,,,,,,0.14495124,-0.171273532,0,0,0,,0,34,34,109,1,BURGE,HB,old,z,./images/BURGEHB.png,,,,,,,,,,,,,,,,,,,,,,,,,,,,,,,,,,,
,,,,,,,,,,,,,,,,,60fef4e2e8b9ed26645404ed,18,2022-02-12_13h17.17.365,lexical_decision_task_DD_L3,2021.2.3,MacIntel,60.0024001,,,,,,,,,,,0.6894,1,,,,,,,,,,,,,,m,1,0.6894,,,,,,,,0.14495124,-0.171273532,0,0,0,,0,35,35,37,1,BIRTH,C,old,m,./images/BIRTH.png,,,,,,,,,,,,,,,,,,,,,,,,,,,,,,,,,,,
,,,,,,,,,,,,,,,,,60fef4e2e8b9ed26645404ed,18,2022-02-12_13h17.17.365,lexical_decision_task_DD_L3,2021.2.3,MacIntel,60.0024001,,,,,,,,,,,0.5753,1,,,,,,,,,,,,,,m,1,0.5753,,,,,,,,0.14495124,-0.171273532,0,0,0,,0,36,36,21,1,KIDNEY,LB,old,m,./images/KIDNEYLB.png,,,,,,,,,,,,,,,,,,,,,,,,,,,,,,,,,,,
,,,,,,,,,,,,,,,,,60fef4e2e8b9ed26645404ed,18,2022-02-12_13h17.17.365,lexical_decision_task_DD_L3,2021.2.3,MacIntel,60.0024001,,,,,,,,,,,0.5473,1,,,,,,,,,,,,,,m,1,0.5473,,,,,,,,0.14495124,-0.171273532,0,0,0,,0,37,37,0,1,TOMATO,LB,old,m,./images/TOMATOLB.png,,,,,,,,,,,,,,,,,,,,,,,,,,,,,,,,,,,
,,,,,,,,,,,,,,,,,60fef4e2e8b9ed26645404ed,18,2022-02-12_13h17.17.365,lexical_decision_task_DD_L3,2021.2.3,MacIntel,60.0024001,,,,,,,,,,,1.5397,1,,,,,,,,,,,,,,z,1,1.5397,,,,,,,,0.14495124,-0.171273532,0,0,0,,0,38,38,163,1,GAMBA,HB,old,z,./images/GAMBAHB.png,,,,,,,,,,,,,,,,,,,,,,,,,,,,,,,,,,,
,,,,,,,,,,,,,,,,,60fef4e2e8b9ed26645404ed,18,2022-02-12_13h17.17.365,lexical_decision_task_DD_L3,2021.2.3,MacIntel,60.0024001,,,,,,,,,,,0.5924,1,,,,,,,,,,,,,,m,1,0.5924,,,,,,,,0.14495124,-0.171273532,0,0,0,,0,39,39,41,1,STRING,HB,old,m,./images/STRINGHB.png,,,,,,,,,,,,,,,,,,,,,,,,,,,,,,,,,,,
,,,,,,,,,,,,,,,,,60fef4e2e8b9ed26645404ed,18,2022-02-12_13h17.17.365,lexical_decision_task_DD_L3,2021.2.3,MacIntel,60.0024001,,,,,,,,,,,0.813,1,,,,,,,,,,,,,,m,1,0.813,,,,,,,,0.14495124,-0.171273532,0,0,0,,0,40,40,3,1,FINGER,LB,old,m,./images/FINGERLB.png,,,,,,,,,,,,,,,,,,,,,,,,,,,,,,,,,,,
,,,,,,,,,,,,,,,,,60fef4e2e8b9ed26645404ed,18,2022-02-12_13h17.17.365,lexical_decision_task_DD_L3,2021.2.3,MacIntel,60.0024001,,,,,,,,,,,0.7625,1,,,,,,,,,,,,,,z,1,0.7625,,,,,,,,0.14495124,-0.171273532,0,0,0,space,0,41,41,149,1,VEASE,LB,old,z,./images/VEASELB.png,6.0392,,,,,,,,,,,,,,,,,,,,,,,,,,,,,,,,,,
,,,,,,,,,,,,,,,,,60fef4e2e8b9ed26645404ed,18,2022-02-12_13h17.17.365,lexical_decision_task_DD_L3,2021.2.3,MacIntel,60.0024001,,,,,,,,,,,0.6575,1,,,,,,,,,,,,,,z,1,0.6575,,,,,,,,0.14495124,-0.171273532,0,0,0,,0,42,42,93,1,SMONE,C,old,z,./images/SMONE.png,,,,,,,,,,,,,,,,,,,,,,,,,,,,,,,,,,,
,,,,,,,,,,,,,,,,,60fef4e2e8b9ed26645404ed,18,2022-02-12_13h17.17.365,lexical_decision_task_DD_L3,2021.2.3,MacIntel,60.0024001,,,,,,,,,,,0.708,1,,,,,,,,,,,,,,z,1,0.708,,,,,,,,0.14495124,-0.171273532,0,0,0,,0,43,43,167,1,ZONET,LB,old,z,./images/ZONETLB.png,,,,,,,,,,,,,,,,,,,,,,,,,,,,,,,,,,,
,,,,,,,,,,,,,,,,,60fef4e2e8b9ed26645404ed,18,2022-02-12_13h17.17.365,lexical_decision_task_DD_L3,2021.2.3,MacIntel,60.0024001,,,,,,,,,,,0.5963,1,,,,,,,,,,,,,,m,1,0.5963,,,,,,,,0.14495124,-0.171273532,0,0,0,,0,44,44,76,1,INFANT,C,old,m,./images/INFANT.png,,,,,,,,,,,,,,,,,,,,,,,,,,,,,,,,,,,
,,,,,,,,,,,,,,,,,60fef4e2e8b9ed26645404ed,18,2022-02-12_13h17.17.365,lexical_decision_task_DD_L3,2021.2.3,MacIntel,60.0024001,,,,,,,,,,,0.7129,1,,,,,,,,,,,,,,z,1,0.7129,,,,,,,,0.14495124,-0.171273532,0,0,0,,0,45,45,89,1,DRIEK,LB,old,z,./images/DRIEKLB.png,,,,,,,,,,,,,,,,,,,,,,,,,,,,,,,,,,,
,,,,,,,,,,,,,,,,,60fef4e2e8b9ed26645404ed,18,2022-02-12_13h17.17.365,lexical_decision_task_DD_L3,2021.2.3,MacIntel,60.0024001,,,,,,,,,,,0.6785,1,,,,,,,,,,,,,,z,1,0.6785,,,,,,,,0.14495124,-0.171273532,0,0,0,,0,46,46,90,1,NEAST,C,old,z,./images/NEAST.png,,,,,,,,,,,,,,,,,,,,,,,,,,,,,,,,,,,
,,,,,,,,,,,,,,,,,60fef4e2e8b9ed26645404ed,18,2022-02-12_13h17.17.365,lexical_decision_task_DD_L3,2021.2.3,MacIntel,60.0024001,,,,,,,,,,,0.7085,1,,,,,,,,,,,,,,m,1,0.7085,,,,,,,,0.14495124,-0.171273532,0,0,0,,0,47,47,33,1,MAGGOT,LB,old,m,./images/MAGGOTLB.png,,,,,,,,,,,,,,,,,,,,,,,,,,,,,,,,,,,
,,,,,,,,,,,,,,,,,60fef4e2e8b9ed26645404ed,18,2022-02-12_13h17.17.365,lexical_decision_task_DD_L3,2021.2.3,MacIntel,60.0024001,,,,,,,,,,,0.6111,1,,,,,,,,,,,,,,m,1,0.6111,,,,,,,,0.14495124,-0.171273532,0,0,0,,0,48,48,48,1,SPORT,LB,old,m,./images/SPORTLB.png,,,,,,,,,,,,,,,,,,,,,,,,,,,,,,,,,,,
,,,,,,,,,,,,,,,,,60fef4e2e8b9ed26645404ed,18,2022-02-12_13h17.17.365,lexical_decision_task_DD_L3,2021.2.3,MacIntel,60.0024001,,,,,,,,,,,1.0455,1,,,,,,,,,,,,,,z,1,1.0455,,,,,,,,0.14495124,-0.171273532,0,0,0,,0,49,49,97,1,CHIDS,HB,old,z,./images/CHIDSHB.png,,,,,,,,,,,,,,,,,,,,,,,,,,,,,,,,,,,
,,,,,,,,,,,,,,,,,60fef4e2e8b9ed26645404ed,18,2022-02-12_13h17.17.365,lexical_decision_task_DD_L3,2021.2.3,MacIntel,60.0024001,,,,,,,,,,,0.728,1,,,,,,,,,,,,,,z,1,0.728,,,,,,,,0.14495124,-0.171273532,0,0,0,,0,50,50,114,1,RIKES,C,old,z,./images/RIKES.png,,,,,,,,,,,,,,,,,,,,,,,,,,,,,,,,,,,
,,,,,,,,,,,,,,,,,60fef4e2e8b9ed26645404ed,18,2022-02-12_13h17.17.365,lexical_decision_task_DD_L3,2021.2.3,MacIntel,60.0024001,,,,,,,,,,,0.8413,1,,,,,,,,,,,,,,m,1,0.8413,,,,,,,,0.14495124,-0.171273532,0,0,0,,0,51,51,12,1,SHORE,LB,old,m,./images/SHORELB.png,,,,,,,,,,,,,,,,,,,,,,,,,,,,,,,,,,,
,,,,,,,,,,,,,,,,,60fef4e2e8b9ed26645404ed,18,2022-02-12_13h17.17.365,lexical_decision_task_DD_L3,2021.2.3,MacIntel,60.0024001,,,,,,,,,,,0.7642,1,,,,,,,,,,,,,,m,1,0.7642,,,,,,,,0.14495124,-0.171273532,0,0,0,,0,52,52,69,1,COOKER,LB,old,m,./images/COOKERLB.png,,,,,,,,,,,,,,,,,,,,,,,,,,,,,,,,,,,
,,,,,,,,,,,,,,,,,60fef4e2e8b9ed26645404ed,18,2022-02-12_13h17.17.365,lexical_decision_task_DD_L3,2021.2.3,MacIntel,60.0024001,,,,,,,,,,,0.6167,1,,,,,,,,,,,,,,z,1,0.6167,,,,,,,,0.14495124,-0.171273532,0,0,0,,0,53,53,84,1,HAXES,C,old,z,./images/HAXES.png,,,,,,,,,,,,,,,,,,,,,,,,,,,,,,,,,,,
,,,,,,,,,,,,,,,,,60fef4e2e8b9ed26645404ed,18,2022-02-12_13h17.17.365,lexical_decision_task_DD_L3,2021.2.3,MacIntel,60.0024001,,,,,,,,,,,0.7607,1,,,,,,,,,,,,,,z,1,0.7607,,,,,,,,0.14495124,-0.171273532,0,0,0,,0,54,54,110,1,CRUNK,LB,old,z,./images/CRUNKLB.png,,,,,,,,,,,,,,,,,,,,,,,,,,,,,,,,,,,
,,,,,,,,,,,,,,,,,60fef4e2e8b9ed26645404ed,18,2022-02-12_13h17.17.365,lexical_decision_task_DD_L3,2021.2.3,MacIntel,60.0024001,,,,,,,,,,,1.377,1,,,,,,,,,,,,,,z,1,1.377,,,,,,,,0.14495124,-0.171273532,0,0,0,,0,55,55,121,1,CEERS,HB,old,z,./images/CEERSHB.png,,,,,,,,,,,,,,,,,,,,,,,,,,,,,,,,,,,
,,,,,,,,,,,,,,,,,60fef4e2e8b9ed26645404ed,18,2022-02-12_13h17.17.365,lexical_decision_task_DD_L3,2021.2.3,MacIntel,60.0024001,,,,,,,,,,,0.6065,1,,,,,,,,,,,,,,m,1,0.6065,,,,,,,,0.14495124,-0.171273532,0,0,0,,0,56,56,81,1,POODLE,LB,old,m,./images/POODLELB.png,,,,,,,,,,,,,,,,,,,,,,,,,,,,,,,,,,,
,,,,,,,,,,,,,,,,,60fef4e2e8b9ed26645404ed,18,2022-02-12_13h17.17.365,lexical_decision_task_DD_L3,2021.2.3,MacIntel,60.0024001,,,,,,,,,,,0.5267,1,,,,,,,,,,,,,,m,1,0.5267,,,,,,,,0.14495124,-0.171273532,0,0,0,,0,57,57,66,1,SWEAT,LB,old,m,./images/SWEATLB.png,,,,,,,,,,,,,,,,,,,,,,,,,,,,,,,,,,,
,,,,,,,,,,,,,,,,,60fef4e2e8b9ed26645404ed,18,2022-02-12_13h17.17.365,lexical_decision_task_DD_L3,2021.2.3,MacIntel,60.0024001,,,,,,,,,,,1.165,1,,,,,,,,,,,,,,z,1,1.165,,,,,,,,0.14495124,-0.171273532,0,0,0,,0,58,58,88,1,GLUSH,HB,old,z,./images/GLUSHHB.png,,,,,,,,,,,,,,,,,,,,,,,,,,,,,,,,,,,
,,,,,,,,,,,,,,,,,60fef4e2e8b9ed26645404ed,18,2022-02-12_13h17.17.365,lexical_decision_task_DD_L3,2021.2.3,MacIntel,60.0024001,,,,,,,,,,,0.6089,0,,,,,,,,,,,,,,z,0,0.6089,,,,,,,,0.14495124,-0.171273532,0,0,0,,0,59,59,72,1,NOOSE,LB,old,m,./images/NOOSELB.png,,,,,,,,,,,,,,,,,,,,,,,,,,,,,,,,,,,
,,,,,,,,,,,,,,,,,60fef4e2e8b9ed26645404ed,18,2022-02-12_13h17.17.365,lexical_decision_task_DD_L3,2021.2.3,MacIntel,60.0024001,,,,,,,,,,,0.7794,1,,,,,,,,,,,,,,z,1,0.7794,,,,,,,,0.14495124,-0.171273532,0,0,0,,0,60,60,161,1,BLAPS,LB,old,z,./images/BLAPSLB.png,,,,,,,,,,,,,,,,,,,,,,,,,,,,,,,,,,,
,,,,,,,,,,,,,,,,,60fef4e2e8b9ed26645404ed,18,2022-02-12_13h17.17.365,lexical_decision_task_DD_L3,2021.2.3,MacIntel,60.0024001,,,,,,,,,,,0.8243,1,,,,,,,,,,,,,,m,1,0.8243,,,,,,,,0.14495124,-0.171273532,0,0,0,,0,61,61,13,1,MOTOR,C,old,m,./images/MOTOR.png,,,,,,,,,,,,,,,,,,,,,,,,,,,,,,,,,,,
,,,,,,,,,,,,,,,,,60fef4e2e8b9ed26645404ed,18,2022-02-12_13h17.17.365,lexical_decision_task_DD_L3,2021.2.3,MacIntel,60.0024001,,,,,,,,,,,0.828,1,,,,,,,,,,,,,,m,1,0.828,,,,,,,,0.14495124,-0.171273532,0,0,0,,0,62,62,53,1,CARPET,HB,old,m,./images/CARPETHB.png,,,,,,,,,,,,,,,,,,,,,,,,,,,,,,,,,,,
,,,,,,,,,,,,,,,,,60fef4e2e8b9ed26645404ed,18,2022-02-12_13h17.17.365,lexical_decision_task_DD_L3,2021.2.3,MacIntel,60.0024001,,,,,,,,,,,0.7917,1,,,,,,,,,,,,,,z,1,0.7917,,,,,,,,0.14495124,-0.171273532,0,0,0,,0,63,63,132,1,SCIFF,C,old,z,./images/SCIFF.png,,,,,,,,,,,,,,,,,,,,,,,,,,,,,,,,,,,
,,,,,,,,,,,,,,,,,60fef4e2e8b9ed26645404ed,18,2022-02-12_13h17.17.365,lexical_decision_task_DD_L3,2021.2.3,MacIntel,60.0024001,,,,,,,,,,,1.947,1,,,,,,,,,,,,,,z,1,1.947,,,,,,,,0.14495124,-0.171273532,0,0,0,,0,64,64,166,1,SHORY,HB,old,z,./images/SHORYHB.png,,,,,,,,,,,,,,,,,,,,,,,,,,,,,,,,,,,
,,,,,,,,,,,,,,,,,60fef4e2e8b9ed26645404ed,18,2022-02-12_13h17.17.365,lexical_decision_task_DD_L3,2021.2.3,MacIntel,60.0024001,,,,,,,,,,,1.18,1,,,,,,,,,,,,,,m,1,1.18,,,,,,,,0.14495124,-0.171273532,0,0,0,,0,65,65,17,1,SKIING,HB,old,m,./images/SKIINGHB.png,,,,,,,,,,,,,,,,,,,,,,,,,,,,,,,,,,,
,,,,,,,,,,,,,,,,,60fef4e2e8b9ed26645404ed,18,2022-02-12_13h17.17.365,lexical_decision_task_DD_L3,2021.2.3,MacIntel,60.0024001,,,,,,,,,,,0.8038,1,,,,,,,,,,,,,,z,1,0.8038,,,,,,,,0.14495124,-0.171273532,0,0,0,,0,66,66,111,1,HOSSE,C,old,z,./images/HOSSE.png,,,,,,,,,,,,,,,,,,,,,,,,,,,,,,,,,,,
,,,,,,,,,,,,,,,,,60fef4e2e8b9ed26645404ed,18,2022-02-12_13h17.17.365,lexical_decision_task_DD_L3,2021.2.3,MacIntel,60.0024001,,,,,,,,,,,0.6792,1,,,,,,,,,,,,,,m,1,0.6792,,,,,,,,0.14495124,-0.171273532,0,0,0,,0,67,67,54,1,TRIPOD,LB,old,m,./images/TRIPODLB.png,,,,,,,,,,,,,,,,,,,,,,,,,,,,,,,,,,,
,,,,,,,,,,,,,,,,,60fef4e2e8b9ed26645404ed,18,2022-02-12_13h17.17.365,lexical_decision_task_DD_L3,2021.2.3,MacIntel,60.0024001,,,,,,,,,,,0.7771,1,,,,,,,,,,,,,,m,1,0.7771,,,,,,,,0.14495124,-0.171273532,0,0,0,,0,68,68,58,1,BABOON,C,old,m,./images/BABOON.png,,,,,,,,,,,,,,,,,,,,,,,,,,,,,,,,,,,
,,,,,,,,,,,,,,,,,60fef4e2e8b9ed26645404ed,18,2022-02-12_13h17.17.365,lexical_decision_task_DD_L3,2021.2.3,MacIntel,60.0024001,,,,,,,,,,,0.8285,0,,,,,,,,,,,,,,z,0,0.8285,,,,,,,,0.14495124,-0.171273532,0,0,0,,0,69,69,8,1,TULIP,HB,old,m,./images/TULIPHB.png,,,,,,,,,,,,,,,,,,,,,,,,,,,,,,,,,,,
,,,,,,,,,,,,,,,,,60fef4e2e8b9ed26645404ed,18,2022-02-12_13h17.17.365,lexical_decision_task_DD_L3,2021.2.3,MacIntel,60.0024001,,,,,,,,,,,1.2459,0,,,,,,,,,,,,,,m,0,1.2459,,,,,,,,0.14495124,-0.171273532,0,0,0,,0,70,70,104,1,GITTY,LB,old,z,./images/GITTYLB.png,,,,,,,,,,,,,,,,,,,,,,,,,,,,,,,,,,,
,,,,,,,,,,,,,,,,,60fef4e2e8b9ed26645404ed,18,2022-02-12_13h17.17.365,lexical_decision_task_DD_L3,2021.2.3,MacIntel,60.0024001,,,,,,,,,,,0.6065,1,,,,,,,,,,,,,,m,1,0.6065,,,,,,,,0.14495124,-0.171273532,0,0,0,,0,71,71,28,1,FALCON,C,old,m,./images/FALCON.png,,,,,,,,,,,,,,,,,,,,,,,,,,,,,,,,,,,
,,,,,,,,,,,,,,,,,60fef4e2e8b9ed26645404ed,18,2022-02-12_13h17.17.365,lexical_decision_task_DD_L3,2021.2.3,MacIntel,60.0024001,,,,,,,,,,,1.7941,1,,,,,,,,,,,,,,z,1,1.7941,,,,,,,,0.14495124,-0.171273532,0,0,0,,0,72,72,127,1,NINDY,HB,old,z,./images/NINDYHB.png,,,,,,,,,,,,,,,,,,,,,,,,,,,,,,,,,,,
,,,,,,,,,,,,,,,,,60fef4e2e8b9ed26645404ed,18,2022-02-12_13h17.17.365,lexical_decision_task_DD_L3,2021.2.3,MacIntel,60.0024001,,,,,,,,,,,0.8221,1,,,,,,,,,,,,,,z,1,0.8221,,,,,,,,0.14495124,-0.171273532,0,0,0,,0,73,73,143,1,MONGS,LB,old,z,./images/MONGSLB.png,,,,,,,,,,,,,,,,,,,,,,,,,,,,,,,,,,,
,,,,,,,,,,,,,,,,,60fef4e2e8b9ed26645404ed,18,2022-02-12_13h17.17.365,lexical_decision_task_DD_L3,2021.2.3,MacIntel,60.0024001,,,,,,,,,,,0.7719,1,,,,,,,,,,,,,,z,1,0.7719,,,,,,,,0.14495124,-0.171273532,0,0,0,,0,74,74,141,1,PLEET,C,old,z,./images/PLEET.png,,,,,,,,,,,,,,,,,,,,,,,,,,,,,,,,,,,
,,,,,,,,,,,,,,,,,60fef4e2e8b9ed26645404ed,18,2022-02-12_13h17.17.365,lexical_decision_task_DD_L3,2021.2.3,MacIntel,60.0024001,,,,,,,,,,,0.5902,1,,,,,,,,,,,,,,z,1,0.5902,,,,,,,,0.14495124,-0.171273532,0,0,0,,0,75,75,117,1,STEEG,C,old,z,./images/STEEG.png,,,,,,,,,,,,,,,,,,,,,,,,,,,,,,,,,,,
,,,,,,,,,,,,,,,,,60fef4e2e8b9ed26645404ed,18,2022-02-12_13h17.17.365,lexical_decision_task_DD_L3,2021.2.3,MacIntel,60.0024001,,,,,,,,,,,0.7234,1,,,,,,,,,,,,,,m,1,0.7234,,,,,,,,0.14495124,-0.171273532,0,0,0,,0,76,76,20,1,CRADLE,HB,old,m,./images/CRADLEHB.png,,,,,,,,,,,,,,,,,,,,,,,,,,,,,,,,,,,
,,,,,,,,,,,,,,,,,60fef4e2e8b9ed26645404ed,18,2022-02-12_13h17.17.365,lexical_decision_task_DD_L3,2021.2.3,MacIntel,60.0024001,,,,,,,,,,,0.6385,1,,,,,,,,,,,,,,m,1,0.6385,,,,,,,,0.14495124,-0.171273532,0,0,0,,0,77,77,24,1,SCREW,LB,old,m,./images/SCREWLB.png,,,,,,,,,,,,,,,,,,,,,,,,,,,,,,,,,,,
,,,,,,,,,,,,,,,,,60fef4e2e8b9ed26645404ed,18,2022-02-12_13h17.17.365,lexical_decision_task_DD_L3,2021.2.3,MacIntel,60.0024001,,,,,,,,,,,0.6602,1,,,,,,,,,,,,,,m,1,0.6602,,,,,,,,0.14495124,-0.171273532,0,0,0,,0,78,78,40,1,SWING,C,old,m,./images/SWING.png,,,,,,,,,,,,,,,,,,,,,,,,,,,,,,,,,,,
,,,,,,,,,,,,,,,,,60fef4e2e8b9ed26645404ed,18,2022-02-12_13h17.17.365,lexical_decision_task_DD_L3,2021.2.3,MacIntel,60.0024001,,,,,,,,,,,0.6447,1,,,,,,,,,,,,,,z,1,0.6447,,,,,,,,0.14495124,-0.171273532,0,0,0,,0,79,79,162,1,LEICH,C,old,z,./images/LEICH.png,,,,,,,,,,,,,,,,,,,,,,,,,,,,,,,,,,,
,,,,,,,,,,,,,,,,,60fef4e2e8b9ed26645404ed,18,2022-02-12_13h17.17.365,lexical_decision_task_DD_L3,2021.2.3,MacIntel,60.0024001,,,,,,,,,,,1.2789,1,,,,,,,,,,,,,,z,1,1.2789,,,,,,,,0.14495124,-0.171273532,0,0,0,,0,80,80,136,1,WERVE,HB,old,z,./images/WERVEHB.png,,,,,,,,,,,,,,,,,,,,,,,,,,,,,,,,,,,
,,,,,,,,,,,,,,,,,60fef4e2e8b9ed26645404ed,18,2022-02-12_13h17.17.365,lexical_decision_task_DD_L3,2021.2.3,MacIntel,60.0024001,,,,,,,,,,,0.6377,1,,,,,,,,,,,,,,m,1,0.6377,,,,,,,,0.14495124,-0.171273532,0,0,0,,0,81,81,18,1,JAGUAR,LB,old,m,./images/JAGUARLB.png,,,,,,,,,,,,,,,,,,,,,,,,,,,,,,,,,,,
,,,,,,,,,,,,,,,,,60fef4e2e8b9ed26645404ed,18,2022-02-12_13h17.17.365,lexical_decision_task_DD_L3,2021.2.3,MacIntel,60.0024001,,,,,,,,,,,0.8462,1,,,,,,,,,,,,,,m,1,0.8462,,,,,,,,0.14495124,-0.171273532,0,0,0,,0,82,82,52,1,BANNER,C,old,m,./images/BANNER.png,,,,,,,,,,,,,,,,,,,,,,,,,,,,,,,,,,,
,,,,,,,,,,,,,,,,,60fef4e2e8b9ed26645404ed,18,2022-02-12_13h17.17.365,lexical_decision_task_DD_L3,2021.2.3,MacIntel,60.0024001,,,,,,,,,,,0.7438,1,,,,,,,,,,,,,,m,1,0.7438,,,,,,,,0.14495124,-0.171273532,0,0,0,space,0,83,83,67,1,SAILOR,C,old,m,./images/SAILOR.png,7.4554,,,,,,,,,,,,,,,,,,,,,,,,,,,,,,,,,,
,,,,,,,,,,,,,,,,,60fef4e2e8b9ed26645404ed,18,2022-02-12_13h17.17.365,lexical_decision_task_DD_L3,2021.2.3,MacIntel,60.0024001,,,,,,,,,,,0.7976,1,,,,,,,,,,,,,,z,1,0.7976,,,,,,,,0.14495124,-0.171273532,0,0,0,,0,84,84,95,1,HANTY,LB,old,z,./images/HANTYLB.png,,,,,,,,,,,,,,,,,,,,,,,,,,,,,,,,,,,
,,,,,,,,,,,,,,,,,60fef4e2e8b9ed26645404ed,18,2022-02-12_13h17.17.365,lexical_decision_task_DD_L3,2021.2.3,MacIntel,60.0024001,,,,,,,,,,,0.8949,1,,,,,,,,,,,,,,m,1,0.8949,,,,,,,,0.14495124,-0.171273532,0,0,0,,0,85,85,39,1,SHELF,LB,old,m,./images/SHELFLB.png,,,,,,,,,,,,,,,,,,,,,,,,,,,,,,,,,,,
,,,,,,,,,,,,,,,,,60fef4e2e8b9ed26645404ed,18,2022-02-12_13h17.17.365,lexical_decision_task_DD_L3,2021.2.3,MacIntel,60.0024001,,,,,,,,,,,0.9259,1,,,,,,,,,,,,,,m,1,0.9259,,,,,,,,0.14495124,-0.171273532,0,0,0,,0,86,86,35,1,PEACH,HB,old,m,./images/PEACHHB.png,,,,,,,,,,,,,,,,,,,,,,,,,,,,,,,,,,,
,,,,,,,,,,,,,,,,,60fef4e2e8b9ed26645404ed,18,2022-02-12_13h17.17.365,lexical_decision_task_DD_L3,2021.2.3,MacIntel,60.0024001,,,,,,,,,,,1.1239,1,,,,,,,,,,,,,,m,1,1.1239,,,,,,,,0.14495124,-0.171273532,0,0,0,,0,87,87,31,1,QUILL,C,old,m,./images/QUILL.png,,,,,,,,,,,,,,,,,,,,,,,,,,,,,,,,,,,
,,,,,,,,,,,,,,,,,60fef4e2e8b9ed26645404ed,18,2022-02-12_13h17.17.365,lexical_decision_task_DD_L3,2021.2.3,MacIntel,60.0024001,,,,,,,,,,,0.6608,1,,,,,,,,,,,,,,m,1,0.6608,,,,,,,,0.14495124,-0.171273532,0,0,0,,0,88,88,11,1,BONNET,HB,old,m,./images/BONNETHB.png,,,,,,,,,,,,,,,,,,,,,,,,,,,,,,,,,,,
,,,,,,,,,,,,,,,,,60fef4e2e8b9ed26645404ed,18,2022-02-12_13h17.17.365,lexical_decision_task_DD_L3,2021.2.3,MacIntel,60.0024001,,,,,,,,,,,0.7448,1,,,,,,,,,,,,,,z,1,0.7448,,,,,,,,0.14495124,-0.171273532,0,0,0,,0,89,89,160,1,VEETS,HB,old,z,./images/VEETSHB.png,,,,,,,,,,,,,,,,,,,,,,,,,,,,,,,,,,,
,,,,,,,,,,,,,,,,,60fef4e2e8b9ed26645404ed,18,2022-02-12_13h17.17.365,lexical_decision_task_DD_L3,2021.2.3,MacIntel,60.0024001,,,,,,,,,,,0.5571,1,,,,,,,,,,,,,,m,1,0.5571,,,,,,,,0.14495124,-0.171273532,0,0,0,,0,90,90,60,1,TWINS,LB,old,m,./images/TWINSLB.png,,,,,,,,,,,,,,,,,,,,,,,,,,,,,,,,,,,
,,,,,,,,,,,,,,,,,60fef4e2e8b9ed26645404ed,18,2022-02-12_13h17.17.365,lexical_decision_task_DD_L3,2021.2.3,MacIntel,60.0024001,,,,,,,,,,,0.7912,1,,,,,,,,,,,,,,m,1,0.7912,,,,,,,,0.14495124,-0.171273532,0,0,0,,0,91,91,7,1,PAINT,C,old,m,./images/PAINT.png,,,,,,,,,,,,,,,,,,,,,,,,,,,,,,,,,,,
,,,,,,,,,,,,,,,,,60fef4e2e8b9ed26645404ed,18,2022-02-12_13h17.17.365,lexical_decision_task_DD_L3,2021.2.3,MacIntel,60.0024001,,,,,,,,,,,0.6274,1,,,,,,,,,,,,,,m,1,0.6274,,,,,,,,0.14495124,-0.171273532,0,0,0,,0,92,92,45,1,KITTEN,LB,old,m,./images/KITTENLB.png,,,,,,,,,,,,,,,,,,,,,,,,,,,,,,,,,,,
,,,,,,,,,,,,,,,,,60fef4e2e8b9ed26645404ed,18,2022-02-12_13h17.17.365,lexical_decision_task_DD_L3,2021.2.3,MacIntel,60.0024001,,,,,,,,,,,0.652,1,,,,,,,,,,,,,,z,1,0.652,,,,,,,,0.14495124,-0.171273532,0,0,0,,0,93,93,144,1,NAIRY,C,old,z,./images/NAIRY.png,,,,,,,,,,,,,,,,,,,,,,,,,,,,,,,,,,,
,,,,,,,,,,,,,,,,,60fef4e2e8b9ed26645404ed,18,2022-02-12_13h17.17.365,lexical_decision_task_DD_L3,2021.2.3,MacIntel,60.0024001,,,,,,,,,,,1.7078,1,,,,,,,,,,,,,,z,1,1.7078,,,,,,,,0.14495124,-0.171273532,0,0,0,,0,94,94,124,1,TUNCH,HB,old,z,./images/TUNCHHB.png,,,,,,,,,,,,,,,,,,,,,,,,,,,,,,,,,,,
,,,,,,,,,,,,,,,,,60fef4e2e8b9ed26645404ed,18,2022-02-12_13h17.17.365,lexical_decision_task_DD_L3,2021.2.3,MacIntel,60.0024001,,,,,,,,,,,0.5627,1,,,,,,,,,,,,,,m,1,0.5627,,,,,,,,0.14495124,-0.171273532,0,0,0,,0,95,95,10,1,BELLY,C,old,m,./images/BELLY.png,,,,,,,,,,,,,,,,,,,,,,,,,,,,,,,,,,,
,,,,,,,,,,,,,,,,,60fef4e2e8b9ed26645404ed,18,2022-02-12_13h17.17.365,lexical_decision_task_DD_L3,2021.2.3,MacIntel,60.0024001,,,,,,,,,,,0.795,1,,,,,,,,,,,,,,m,1,0.795,,,,,,,,0.14495124,-0.171273532,0,0,0,,0,96,96,32,1,BARREL,HB,old,m,./images/BARRELHB.png,,,,,,,,,,,,,,,,,,,,,,,,,,,,,,,,,,,
,,,,,,,,,,,,,,,,,60fef4e2e8b9ed26645404ed,18,2022-02-12_13h17.17.365,lexical_decision_task_DD_L3,2021.2.3,MacIntel,60.0024001,,,,,,,,,,,1.2125,1,,,,,,,,,,,,,,z,1,1.2125,,,,,,,,0.14495124,-0.171273532,0,0,0,,0,97,97,148,1,JOMS,HB,old,z,./images/JOMSHB.png,,,,,,,,,,,,,,,,,,,,,,,,,,,,,,,,,,,
,,,,,,,,,,,,,,,,,60fef4e2e8b9ed26645404ed,18,2022-02-12_13h17.17.365,lexical_decision_task_DD_L3,2021.2.3,MacIntel,60.0024001,,,,,,,,,,,1.3745,1,,,,,,,,,,,,,,z,1,1.3745,,,,,,,,0.14495124,-0.171273532,0,0,0,,0,98,98,154,1,THINT,HB,old,z,./images/THINTHB.png,,,,,,,,,,,,,,,,,,,,,,,,,,,,,,,,,,,
,,,,,,,,,,,,,,,,,60fef4e2e8b9ed26645404ed,18,2022-02-12_13h17.17.365,lexical_decision_task_DD_L3,2021.2.3,MacIntel,60.0024001,,,,,,,,,,,0.7144,1,,,,,,,,,,,,,,z,1,0.7144,,,,,,,,0.14495124,-0.171273532,0,0,0,,0,99,99,137,1,JOOST,LB,old,z,./images/JOOSTLB.png,,,,,,,,,,,,,,,,,,,,,,,,,,,,,,,,,,,
,,,,,,,,,,,,,,,,,60fef4e2e8b9ed26645404ed,18,2022-02-12_13h17.17.365,lexical_decision_task_DD_L3,2021.2.3,MacIntel,60.0024001,,,,,,,,,,,0.7242,1,,,,,,,,,,,,,,m,1,0.7242,,,,,,,,0.14495124,-0.171273532,0,0,0,,0,100,100,78,1,LITTER,LB,old,m,./images/LITTERLB.png,,,,,,,,,,,,,,,,,,,,,,,,,,,,,,,,,,,
,,,,,,,,,,,,,,,,,60fef4e2e8b9ed26645404ed,18,2022-02-12_13h17.17.365,lexical_decision_task_DD_L3,2021.2.3,MacIntel,60.0024001,,,,,,,,,,,0.8408,1,,,,,,,,,,,,,,z,1,0.8408,,,,,,,,0.14495124,-0.171273532,0,0,0,,0,101,101,158,1,EGECT,LB,old,z,./images/EGECTLB.png,,,,,,,,,,,,,,,,,,,,,,,,,,,,,,,,,,,
,,,,,,,,,,,,,,,,,60fef4e2e8b9ed26645404ed,18,2022-02-12_13h17.17.365,lexical_decision_task_DD_L3,2021.2.3,MacIntel,60.0024001,,,,,,,,,,,0.6921,1,,,,,,,,,,,,,,z,1,0.6921,,,,,,,,0.14495124,-0.171273532,0,0,0,,0,102,102,123,1,SEDGE,C,old,z,./images/SEDGE.png,,,,,,,,,,,,,,,,,,,,,,,,,,,,,,,,,,,
,,,,,,,,,,,,,,,,,60fef4e2e8b9ed26645404ed,18,2022-02-12_13h17.17.365,lexical_decision_task_DD_L3,2021.2.3,MacIntel,60.0024001,,,,,,,,,,,0.7585,1,,,,,,,,,,,,,,m,1,0.7585,,,,,,,,0.14495124,-0.171273532,0,0,0,,0,103,103,77,1,COUCH,HB,old,m,./images/COUCHHB.png,,,,,,,,,,,,,,,,,,,,,,,,,,,,,,,,,,,
,,,,,,,,,,,,,,,,,60fef4e2e8b9ed26645404ed,18,2022-02-12_13h17.17.365,lexical_decision_task_DD_L3,2021.2.3,MacIntel,60.0024001,,,,,,,,,,,0.6877,1,,,,,,,,,,,,,,m,1,0.6877,,,,,,,,0.14495124,-0.171273532,0,0,0,,0,104,104,4,1,MUSCLE,C,old,m,./images/MUSCLE.png,,,,,,,,,,,,,,,,,,,,,,,,,,,,,,,,,,,
,,,,,,,,,,,,,,,,,60fef4e2e8b9ed26645404ed,18,2022-02-12_13h17.17.365,lexical_decision_task_DD_L3,2021.2.3,MacIntel,60.0024001,,,,,,,,,,,0.6396,1,,,,,,,,,,,,,,m,1,0.6396,,,,,,,,0.14495124,-0.171273532,0,0,0,,0,105,105,36,1,THROAT,LB,old,m,./images/THROATLB.png,,,,,,,,,,,,,,,,,,,,,,,,,,,,,,,,,,,
,,,,,,,,,,,,,,,,,60fef4e2e8b9ed26645404ed,18,2022-02-12_13h17.17.365,lexical_decision_task_DD_L3,2021.2.3,MacIntel,60.0024001,,,,,,,,,,,0.9765,1,,,,,,,,,,,,,,z,1,0.9765,,,,,,,,0.14495124,-0.171273532,0,0,0,,0,106,106,115,1,MAWNS,HB,old,z,./images/MAWNSHB.png,,,,,,,,,,,,,,,,,,,,,,,,,,,,,,,,,,,
,,,,,,,,,,,,,,,,,60fef4e2e8b9ed26645404ed,18,2022-02-12_13h17.17.365,lexical_decision_task_DD_L3,2021.2.3,MacIntel,60.0024001,,,,,,,,,,,1.4067,1,,,,,,,,,,,,,,z,1,1.4067,,,,,,,,0.14495124,-0.171273532,0,0,0,,0,107,107,91,1,SHENS,HB,old,z,./images/SHENSHB.png,,,,,,,,,,,,,,,,,,,,,,,,,,,,,,,,,,,
,,,,,,,,,,,,,,,,,60fef4e2e8b9ed26645404ed,18,2022-02-12_13h17.17.365,lexical_decision_task_DD_L3,2021.2.3,MacIntel,60.0024001,,,,,,,,,,,0.5768,1,,,,,,,,,,,,,,m,1,0.5768,,,,,,,,0.14495124,-0.171273532,0,0,0,,0,108,108,55,1,MUFFIN,C,old,m,./images/MUFFIN.png,,,,,,,,,,,,,,,,,,,,,,,,,,,,,,,,,,,
,,,,,,,,,,,,,,,,,60fef4e2e8b9ed26645404ed,18,2022-02-12_13h17.17.365,lexical_decision_task_DD_L3,2021.2.3,MacIntel,60.0024001,,,,,,,,,,,0.643,1,,,,,,,,,,,,,,m,1,0.643,,,,,,,,0.14495124,-0.171273532,0,0,0,,0,109,109,22,1,MELON,C,old,m,./images/MELON.png,,,,,,,,,,,,,,,,,,,,,,,,,,,,,,,,,,,
,,,,,,,,,,,,,,,,,60fef4e2e8b9ed26645404ed,18,2022-02-12_13h17.17.365,lexical_decision_task_DD_L3,2021.2.3,MacIntel,60.0024001,,,,,,,,,,,0.5572,1,,,,,,,,,,,,,,z,1,0.5572,,,,,,,,0.14495124,-0.171273532,0,0,0,,0,110,110,126,1,GUELS,C,old,z,./images/GUELS.png,,,,,,,,,,,,,,,,,,,,,,,,,,,,,,,,,,,
,,,,,,,,,,,,,,,,,60fef4e2e8b9ed26645404ed,18,2022-02-12_13h17.17.365,lexical_decision_task_DD_L3,2021.2.3,MacIntel,60.0024001,,,,,,,,,,,1.2641,1,,,,,,,,,,,,,,z,1,1.2641,,,,,,,,0.14495124,-0.171273532,0,0,0,,0,111,111,151,1,TINKY,HB,old,z,./images/TINKYHB.png,,,,,,,,,,,,,,,,,,,,,,,,,,,,,,,,,,,
,,,,,,,,,,,,,,,,,60fef4e2e8b9ed26645404ed,18,2022-02-12_13h17.17.365,lexical_decision_task_DD_L3,2021.2.3,MacIntel,60.0024001,,,,,,,,,,,1.3955,1,,,,,,,,,,,,,,z,1,1.3955,,,,,,,,0.14495124,-0.171273532,0,0,0,,0,112,112,157,1,INLER,HB,old,z,./images/INLERHB.png,,,,,,,,,,,,,,,,,,,,,,,,,,,,,,,,,,,
,,,,,,,,,,,,,,,,,60fef4e2e8b9ed26645404ed,18,2022-02-12_13h17.17.365,lexical_decision_task_DD_L3,2021.2.3,MacIntel,60.0024001,,,,,,,,,,,0.774,1,,,,,,,,,,,,,,m,1,0.774,,,,,,,,0.14495124,-0.171273532,0,0,0,,0,113,113,70,1,URINE,C,old,m,./images/URINE.png,,,,,,,,,,,,,,,,,,,,,,,,,,,,,,,,,,,
,,,,,,,,,,,,,,,,,60fef4e2e8b9ed26645404ed,18,2022-02-12_13h17.17.365,lexical_decision_task_DD_L3,2021.2.3,MacIntel,60.0024001,,,,,,,,,,,1.6133,1,,,,,,,,,,,,,,m,1,1.6133,,,,,,,,0.14495124,-0.171273532,0,0,0,,0,114,114,50,1,MALLET,HB,old,m,./images/MALLETHB.png,,,,,,,,,,,,,,,,,,,,,,,,,,,,,,,,,,,
,,,,,,,,,,,,,,,,,60fef4e2e8b9ed26645404ed,18,2022-02-12_13h17.17.365,lexical_decision_task_DD_L3,2021.2.3,MacIntel,60.0024001,,,,,,,,,,,1.0584,1,,,,,,,,,,,,,,m,1,1.0584,,,,,,,,0.14495124,-0.171273532,0,0,0,,0,115,115,47,1,BERRY,HB,old,m,./images/BERRYHB.png,,,,,,,,,,,,,,,,,,,,,,,,,,,,,,,,,,,
,,,,,,,,,,,,,,,,,60fef4e2e8b9ed26645404ed,18,2022-02-12_13h17.17.365,lexical_decision_task_DD_L3,2021.2.3,MacIntel,60.0024001,,,,,,,,,,,1.3433,1,,,,,,,,,,,,,,z,1,1.3433,,,,,,,,0.14495124,-0.171273532,0,0,0,,0,116,116,133,1,POWDY,HB,old,z,./images/POWDYHB.png,,,,,,,,,,,,,,,,,,,,,,,,,,,,,,,,,,,
,,,,,,,,,,,,,,,,,60fef4e2e8b9ed26645404ed,18,2022-02-12_13h17.17.365,lexical_decision_task_DD_L3,2021.2.3,MacIntel,60.0024001,,,,,,,,,,,0.8605,1,,,,,,,,,,,,,,m,1,0.8605,,,,,,,,0.14495124,-0.171273532,0,0,0,,0,117,117,38,1,LADDER,HB,old,m,./images/LADDERHB.png,,,,,,,,,,,,,,,,,,,,,,,,,,,,,,,,,,,
,,,,,,,,,,,,,,,,,60fef4e2e8b9ed26645404ed,18,2022-02-12_13h17.17.365,lexical_decision_task_DD_L3,2021.2.3,MacIntel,60.0024001,,,,,,,,,,,0.5619,1,,,,,,,,,,,,,,m,1,0.5619,,,,,,,,0.14495124,-0.171273532,0,0,0,,0,118,118,63,1,MIRROR,LB,old,m,./images/MIRRORLB.png,,,,,,,,,,,,,,,,,,,,,,,,,,,,,,,,,,,
,,,,,,,,,,,,,,,,,60fef4e2e8b9ed26645404ed,18,2022-02-12_13h17.17.365,lexical_decision_task_DD_L3,2021.2.3,MacIntel,60.0024001,,,,,,,,,,,1.026,0,,,,,,,,,,,,,,z,0,1.026,,,,,,,,0.14495124,-0.171273532,0,0,0,,0,119,119,16,1,PENCE,C,old,m,./images/PENCE.png,,,,,,,,,,,,,,,,,,,,,,,,,,,,,,,,,,,
,,,,,,,,,,,,,,,,,60fef4e2e8b9ed26645404ed,18,2022-02-12_13h17.17.365,lexical_decision_task_DD_L3,2021.2.3,MacIntel,60.0024001,,,,,,,,,,,0.6436,1,,,,,,,,,,,,,,z,1,0.6436,,,,,,,,0.14495124,-0.171273532,0,0,0,,0,120,120,156,1,HIXES,C,old,z,./images/HIXES.png,,,,,,,,,,,,,,,,,,,,,,,,,,,,,,,,,,,
,,,,,,,,,,,,,,,,,60fef4e2e8b9ed26645404ed,18,2022-02-12_13h17.17.365,lexical_decision_task_DD_L3,2021.2.3,MacIntel,60.0024001,,,,,,,,,,,1.7552,1,,,,,,,,,,,,,,z,1,1.7552,,,,,,,,0.14495124,-0.171273532,0,0,0,,0,121,121,118,1,BAVEL,HB,old,z,./images/BAVELHB.png,,,,,,,,,,,,,,,,,,,,,,,,,,,,,,,,,,,
,,,,,,,,,,,,,,,,,60fef4e2e8b9ed26645404ed,18,2022-02-12_13h17.17.365,lexical_decision_task_DD_L3,2021.2.3,MacIntel,60.0024001,,,,,,,,,,,0.7066,1,,,,,,,,,,,,,,m,1,0.7066,,,,,,,,0.14495124,-0.171273532,0,0,0,,0,122,122,75,1,GRAIN,LB,old,m,./images/GRAINLB.png,,,,,,,,,,,,,,,,,,,,,,,,,,,,,,,,,,,
,,,,,,,,,,,,,,,,,60fef4e2e8b9ed26645404ed,18,2022-02-12_13h17.17.365,lexical_decision_task_DD_L3,2021.2.3,MacIntel,60.0024001,,,,,,,,,,,1.1244,1,,,,,,,,,,,,,,m,1,1.1244,,,,,,,,0.14495124,-0.171273532,0,0,0,,0,123,123,26,1,SMOKER,HB,old,m,./images/SMOKERHB.png,,,,,,,,,,,,,,,,,,,,,,,,,,,,,,,,,,,
,,,,,,,,,,,,,,,,,60fef4e2e8b9ed26645404ed,18,2022-02-12_13h17.17.365,lexical_decision_task_DD_L3,2021.2.3,MacIntel,60.0024001,,,,,,,,,,,1.0758,1,,,,,,,,,,,,,,z,1,1.0758,,,,,,,,0.14495124,-0.171273532,0,0,0,,0,124,124,134,1,TROSS,LB,old,z,./images/TROSSLB.png,,,,,,,,,,,,,,,,,,,,,,,,,,,,,,,,,,,
,,,,,,,,,,,,,,,,,60fef4e2e8b9ed26645404ed,18,2022-02-12_13h17.17.365,lexical_decision_task_DD_L3,2021.2.3,MacIntel,60.0024001,,,,,,,,,,,1.1631,1,,,,,,,,,,,,,,z,1,1.1631,,,,,,,,0.14495124,-0.171273532,0,0,0,space,0,125,125,145,1,LAMEL,HB,old,z,./images/LAMELHB.png,4.9561,,,,,,,,,,,,,,,,,,,,,,,,,,,,,,,,,,
,,,,,,,,,,,,,,,,,60fef4e2e8b9ed26645404ed,18,2022-02-12_13h17.17.365,lexical_decision_task_DD_L3,2021.2.3,MacIntel,60.0024001,,,,,,,,,,,0.7274,1,,,,,,,,,,,,,,m,1,0.7274,,,,,,,,0.14495124,-0.171273532,0,0,0,,0,126,126,29,1,CRUMB,HB,old,m,./images/CRUMBHB.png,,,,,,,,,,,,,,,,,,,,,,,,,,,,,,,,,,,
,,,,,,,,,,,,,,,,,60fef4e2e8b9ed26645404ed,18,2022-02-12_13h17.17.365,lexical_decision_task_DD_L3,2021.2.3,MacIntel,60.0024001,,,,,,,,,,,0.5768,1,,,,,,,,,,,,,,m,1,0.5768,,,,,,,,0.14495124,-0.171273532,0,0,0,,0,127,127,6,1,SQUARE,LB,old,m,./images/SQUARELB.png,,,,,,,,,,,,,,,,,,,,,,,,,,,,,,,,,,,
,,,,,,,,,,,,,,,,,60fef4e2e8b9ed26645404ed,18,2022-02-12_13h17.17.365,lexical_decision_task_DD_L3,2021.2.3,MacIntel,60.0024001,,,,,,,,,,,0.845,1,,,,,,,,,,,,,,m,1,0.845,,,,,,,,0.14495124,-0.171273532,0,0,0,,0,128,128,56,1,PACKET,HB,old,m,./images/PACKETHB.png,,,,,,,,,,,,,,,,,,,,,,,,,,,,,,,,,,,
,,,,,,,,,,,,,,,,,60fef4e2e8b9ed26645404ed,18,2022-02-12_13h17.17.365,lexical_decision_task_DD_L3,2021.2.3,MacIntel,60.0024001,,,,,,,,,,,0.9249,1,,,,,,,,,,,,,,m,1,0.9249,,,,,,,,0.14495124,-0.171273532,0,0,0,,0,129,129,65,1,FARMER,HB,old,m,./images/FARMERHB.png,,,,,,,,,,,,,,,,,,,,,,,,,,,,,,,,,,,
,,,,,,,,,,,,,,,,,60fef4e2e8b9ed26645404ed,18,2022-02-12_13h17.17.365,lexical_decision_task_DD_L3,2021.2.3,MacIntel,60.0024001,,,,,,,,,,,0.76,1,,,,,,,,,,,,,,m,1,0.76,,,,,,,,0.14495124,-0.171273532,0,0,0,,0,130,130,80,1,WEASEL,HB,old,m,./images/WEASELHB.png,,,,,,,,,,,,,,,,,,,,,,,,,,,,,,,,,,,
,,,,,,,,,,,,,,,,,60fef4e2e8b9ed26645404ed,18,2022-02-12_13h17.17.365,lexical_decision_task_DD_L3,2021.2.3,MacIntel,60.0024001,,,,,,,,,,,0.615,1,,,,,,,,,,,,,,z,1,0.615,,,,,,,,0.14495124,-0.171273532,0,0,0,,0,131,131,87,1,TRING,C,old,z,./images/TRING.png,,,,,,,,,,,,,,,,,,,,,,,,,,,,,,,,,,,
,,,,,,,,,,,,,,,,,60fef4e2e8b9ed26645404ed,18,2022-02-12_13h17.17.365,lexical_decision_task_DD_L3,2021.2.3,MacIntel,60.0024001,,,,,,,,,,,0.7076,1,,,,,,,,,,,,,,z,1,0.7076,,,,,,,,0.14495124,-0.171273532,0,0,0,,0,132,132,116,1,BALGY,LB,old,z,./images/BALGYLB.png,,,,,,,,,,,,,,,,,,,,,,,,,,,,,,,,,,,
,,,,,,,,,,,,,,,,,60fef4e2e8b9ed26645404ed,18,2022-02-12_13h17.17.365,lexical_decision_task_DD_L3,2021.2.3,MacIntel,60.0024001,,,,,,,,,,,1.561,0,,,,,,,,,,,,,,m,0,1.561,,,,,,,,0.14495124,-0.171273532,0,0,0,,0,133,133,130,1,CRILL,HB,old,z,./images/CRILLHB.png,,,,,,,,,,,,,,,,,,,,,,,,,,,,,,,,,,,
,,,,,,,,,,,,,,,,,60fef4e2e8b9ed26645404ed,18,2022-02-12_13h17.17.365,lexical_decision_task_DD_L3,2021.2.3,MacIntel,60.0024001,,,,,,,,,,,0.808,1,,,,,,,,,,,,,,m,1,0.808,,,,,,,,0.14495124,-0.171273532,0,0,0,,0,134,134,5,1,PASTA,HB,old,m,./images/PASTAHB.png,,,,,,,,,,,,,,,,,,,,,,,,,,,,,,,,,,,
,,,,,,,,,,,,,,,,,60fef4e2e8b9ed26645404ed,18,2022-02-12_13h17.17.365,lexical_decision_task_DD_L3,2021.2.3,MacIntel,60.0024001,,,,,,,,,,,0.5462,1,,,,,,,,,,,,,,m,1,0.5462,,,,,,,,0.14495124,-0.171273532,0,0,0,,0,135,135,25,1,WRIST,C,old,m,./images/WRIST.png,,,,,,,,,,,,,,,,,,,,,,,,,,,,,,,,,,,
,,,,,,,,,,,,,,,,,60fef4e2e8b9ed26645404ed,18,2022-02-12_13h17.17.365,lexical_decision_task_DD_L3,2021.2.3,MacIntel,60.0024001,,,,,,,,,,,0.7956,1,,,,,,,,,,,,,,z,1,0.7956,,,,,,,,0.14495124,-0.171273532,0,0,0,,0,136,136,142,1,PLASK,HB,old,z,./images/PLASKHB.png,,,,,,,,,,,,,,,,,,,,,,,,,,,,,,,,,,,
,,,,,,,,,,,,,,,,,60fef4e2e8b9ed26645404ed,18,2022-02-12_13h17.17.365,lexical_decision_task_DD_L3,2021.2.3,MacIntel,60.0024001,,,,,,,,,,,0.5601,1,,,,,,,,,,,,,,z,1,0.5601,,,,,,,,0.14495124,-0.171273532,0,0,0,,0,137,137,164,1,SGREW,LB,old,z,./images/SGREWLB.png,,,,,,,,,,,,,,,,,,,,,,,,,,,,,,,,,,,
,,,,,,,,,,,,,,,,,60fef4e2e8b9ed26645404ed,18,2022-02-12_13h17.17.365,lexical_decision_task_DD_L3,2021.2.3,MacIntel,60.0024001,,,,,,,,,,,0.5878,1,,,,,,,,,,,,,,z,1,0.5878,,,,,,,,0.14495124,-0.171273532,0,0,0,,0,138,138,120,1,RINED,C,old,z,./images/RINED.png,,,,,,,,,,,,,,,,,,,,,,,,,,,,,,,,,,,
,,,,,,,,,,,,,,,,,60fef4e2e8b9ed26645404ed,18,2022-02-12_13h17.17.365,lexical_decision_task_DD_L3,2021.2.3,MacIntel,60.0024001,,,,,,,,,,,0.7792,1,,,,,,,,,,,,,,z,1,0.7792,,,,,,,,0.14495124,-0.171273532,0,0,0,,0,139,139,102,1,DULLE,C,old,z,./images/DULLE.png,,,,,,,,,,,,,,,,,,,,,,,,,,,,,,,,,,,
,,,,,,,,,,,,,,,,,60fef4e2e8b9ed26645404ed,18,2022-02-12_13h17.17.365,lexical_decision_task_DD_L3,2021.2.3,MacIntel,60.0024001,,,,,,,,,,,0.5936,1,,,,,,,,,,,,,,m,1,0.5936,,,,,,,,0.14495124,-0.171273532,0,0,0,,0,140,140,64,1,JELLY,C,old,m,./images/JELLY.png,,,,,,,,,,,,,,,,,,,,,,,,,,,,,,,,,,,
,,,,,,,,,,,,,,,,,60fef4e2e8b9ed26645404ed,18,2022-02-12_13h17.17.365,lexical_decision_task_DD_L3,2021.2.3,MacIntel,60.0024001,,,,,,,,,,,0.8421,1,,,,,,,,,,,,,,z,1,0.8421,,,,,,,,0.14495124,-0.171273532,0,0,0,,0,141,141,103,1,FLORT,HB,old,z,./images/FLORTHB.png,,,,,,,,,,,,,,,,,,,,,,,,,,,,,,,,,,,
,,,,,,,,,,,,,,,,,60fef4e2e8b9ed26645404ed,18,2022-02-12_13h17.17.365,lexical_decision_task_DD_L3,2021.2.3,MacIntel,60.0024001,,,,,,,,,,,0.6393,1,,,,,,,,,,,,,,m,1,0.6393,,,,,,,,0.14495124,-0.171273532,0,0,0,,0,142,142,14,1,PICKLE,HB,old,m,./images/PICKLEHB.png,,,,,,,,,,,,,,,,,,,,,,,,,,,,,,,,,,,
,,,,,,,,,,,,,,,,,60fef4e2e8b9ed26645404ed,18,2022-02-12_13h17.17.365,lexical_decision_task_DD_L3,2021.2.3,MacIntel,60.0024001,,,,,,,,,,,0.6934,1,,,,,,,,,,,,,,z,1,0.6934,,,,,,,,0.14495124,-0.171273532,0,0,0,,0,143,143,107,1,FASKS,LB,old,z,./images/FASKSLB.png,,,,,,,,,,,,,,,,,,,,,,,,,,,,,,,,,,,
,,,,,,,,,,,,,,,,,60fef4e2e8b9ed26645404ed,18,2022-02-12_13h17.17.365,lexical_decision_task_DD_L3,2021.2.3,MacIntel,60.0024001,,,,,,,,,,,0.5468,1,,,,,,,,,,,,,,m,1,0.5468,,,,,,,,0.14495124,-0.171273532,0,0,0,,0,144,144,15,1,GREASE,LB,old,m,./images/GREASELB.png,,,,,,,,,,,,,,,,,,,,,,,,,,,,,,,,,,,
,,,,,,,,,,,,,,,,,60fef4e2e8b9ed26645404ed,18,2022-02-12_13h17.17.365,lexical_decision_task_DD_L3,2021.2.3,MacIntel,60.0024001,,,,,,,,,,,0.6373,0,,,,,,,,,,,,,,m,0,0.6373,,,,,,,,0.14495124,-0.171273532,0,0,0,,0,145,145,153,1,CLUPS,C,old,z,./images/CLUPS.png,,,,,,,,,,,,,,,,,,,,,,,,,,,,,,,,,,,
,,,,,,,,,,,,,,,,,60fef4e2e8b9ed26645404ed,18,2022-02-12_13h17.17.365,lexical_decision_task_DD_L3,2021.2.3,MacIntel,60.0024001,,,,,,,,,,,0.6891,0,,,,,,,,,,,,,,m,0,0.6891,,,,,,,,0.14495124,-0.171273532,0,0,0,,0,146,146,147,1,ZOLES,C,old,z,./images/ZOLES.png,,,,,,,,,,,,,,,,,,,,,,,,,,,,,,,,,,,
,,,,,,,,,,,,,,,,,60fef4e2e8b9ed26645404ed,18,2022-02-12_13h17.17.365,lexical_decision_task_DD_L3,2021.2.3,MacIntel,60.0024001,,,,,,,,,,,0.873,1,,,,,,,,,,,,,,m,1,0.873,,,,,,,,0.14495124,-0.171273532,0,0,0,,0,147,147,30,1,STORM,LB,old,m,./images/STORMLB.png,,,,,,,,,,,,,,,,,,,,,,,,,,,,,,,,,,,
,,,,,,,,,,,,,,,,,60fef4e2e8b9ed26645404ed,18,2022-02-12_13h17.17.365,lexical_decision_task_DD_L3,2021.2.3,MacIntel,60.0024001,,,,,,,,,,,0.6641,1,,,,,,,,,,,,,,m,1,0.6641,,,,,,,,0.14495124,-0.171273532,0,0,0,,0,148,148,79,1,CRUST,C,old,m,./images/CRUST.png,,,,,,,,,,,,,,,,,,,,,,,,,,,,,,,,,,,
,,,,,,,,,,,,,,,,,60fef4e2e8b9ed26645404ed,18,2022-02-12_13h17.17.365,lexical_decision_task_DD_L3,2021.2.3,MacIntel,60.0024001,,,,,,,,,,,1.2453,1,,,,,,,,,,,,,,z,1,1.2453,,,,,,,,0.14495124,-0.171273532,0,0,0,,0,149,149,106,1,CLUMS,HB,old,z,./images/CLUMSHB.png,,,,,,,,,,,,,,,,,,,,,,,,,,,,,,,,,,,
,,,,,,,,,,,,,,,,,60fef4e2e8b9ed26645404ed,18,2022-02-12_13h17.17.365,lexical_decision_task_DD_L3,2021.2.3,MacIntel,60.0024001,,,,,,,,,,,0.6521,1,,,,,,,,,,,,,,m,1,0.6521,,,,,,,,0.14495124,-0.171273532,0,0,0,,0,150,150,27,1,ATTIC,LB,old,m,./images/ATTICLB.png,,,,,,,,,,,,,,,,,,,,,,,,,,,,,,,,,,,
,,,,,,,,,,,,,,,,,60fef4e2e8b9ed26645404ed,18,2022-02-12_13h17.17.365,lexical_decision_task_DD_L3,2021.2.3,MacIntel,60.0024001,,,,,,,,,,,0.5223,1,,,,,,,,,,,,,,m,1,0.5223,,,,,,,,0.14495124,-0.171273532,0,0,0,,0,151,151,57,1,MOOSE,LB,old,m,./images/MOOSELB.png,,,,,,,,,,,,,,,,,,,,,,,,,,,,,,,,,,,
,,,,,,,,,,,,,,,,,60fef4e2e8b9ed26645404ed,18,2022-02-12_13h17.17.365,lexical_decision_task_DD_L3,2021.2.3,MacIntel,60.0024001,,,,,,,,,,,0.9401,1,,,,,,,,,,,,,,m,1,0.9401,,,,,,,,0.14495124,-0.171273532,0,0,0,,0,152,152,71,1,PIMPLE,HB,old,m,./images/PIMPLEHB.png,,,,,,,,,,,,,,,,,,,,,,,,,,,,,,,,,,,
,,,,,,,,,,,,,,,,,60fef4e2e8b9ed26645404ed,18,2022-02-12_13h17.17.365,lexical_decision_task_DD_L3,2021.2.3,MacIntel,60.0024001,,,,,,,,,,,0.8284,1,,,,,,,,,,,,,,m,1,0.8284,,,,,,,,0.14495124,-0.171273532,0,0,0,,0,153,153,43,1,MOSQUE,C,old,m,./images/MOSQUE.png,,,,,,,,,,,,,,,,,,,,,,,,,,,,,,,,,,,
,,,,,,,,,,,,,,,,,60fef4e2e8b9ed26645404ed,18,2022-02-12_13h17.17.365,lexical_decision_task_DD_L3,2021.2.3,MacIntel,60.0024001,,,,,,,,,,,0.8069,1,,,,,,,,,,,,,,z,1,0.8069,,,,,,,,0.14495124,-0.171273532,0,0,0,,0,154,154,92,1,PAIMS,LB,old,z,./images/PAIMSLB.png,,,,,,,,,,,,,,,,,,,,,,,,,,,,,,,,,,,
,,,,,,,,,,,,,,,,,60fef4e2e8b9ed26645404ed,18,2022-02-12_13h17.17.365,lexical_decision_task_DD_L3,2021.2.3,MacIntel,60.0024001,,,,,,,,,,,1.1056,1,,,,,,,,,,,,,,m,1,1.1056,,,,,,,,0.14495124,-0.171273532,0,0,0,,0,155,155,23,1,WALRUS,HB,old,m,./images/WALRUSHB.png,,,,,,,,,,,,,,,,,,,,,,,,,,,,,,,,,,,
,,,,,,,,,,,,,,,,,60fef4e2e8b9ed26645404ed,18,2022-02-12_13h17.17.365,lexical_decision_task_DD_L3,2021.2.3,MacIntel,60.0024001,,,,,,,,,,,0.7169,1,,,,,,,,,,,,,,z,1,0.7169,,,,,,,,0.14495124,-0.171273532,0,0,0,,0,156,156,129,1,PRANS,C,old,z,./images/PRANS.png,,,,,,,,,,,,,,,,,,,,,,,,,,,,,,,,,,,
,,,,,,,,,,,,,,,,,60fef4e2e8b9ed26645404ed,18,2022-02-12_13h17.17.365,lexical_decision_task_DD_L3,2021.2.3,MacIntel,60.0024001,,,,,,,,,,,0.711,1,,,,,,,,,,,,,,z,1,0.711,,,,,,,,0.14495124,-0.171273532,0,0,0,,0,157,157,108,1,GRUET,C,old,z,./images/GRUET.png,,,,,,,,,,,,,,,,,,,,,,,,,,,,,,,,,,,
,,,,,,,,,,,,,,,,,60fef4e2e8b9ed26645404ed,18,2022-02-12_13h17.17.365,lexical_decision_task_DD_L3,2021.2.3,MacIntel,60.0024001,,,,,,,,,,,0.7656,1,,,,,,,,,,,,,,z,1,0.7656,,,,,,,,0.14495124,-0.171273532,0,0,0,,0,158,158,128,1,GRIFT,LB,old,z,./images/GRIFTLB.png,,,,,,,,,,,,,,,,,,,,,,,,,,,,,,,,,,,
,,,,,,,,,,,,,,,,,60fef4e2e8b9ed26645404ed,18,2022-02-12_13h17.17.365,lexical_decision_task_DD_L3,2021.2.3,MacIntel,60.0024001,,,,,,,,,,,0.7782,1,,,,,,,,,,,,,,m,1,0.7782,,,,,,,,0.14495124,-0.171273532,0,0,0,,0,159,159,59,1,BURIAL,HB,old,m,./images/BURIALHB.png,,,,,,,,,,,,,,,,,,,,,,,,,,,,,,,,,,,
,,,,,,,,,,,,,,,,,60fef4e2e8b9ed26645404ed,18,2022-02-12_13h17.17.365,lexical_decision_task_DD_L3,2021.2.3,MacIntel,60.0024001,,,,,,,,,,,0.9273,1,,,,,,,,,,,,,,m,1,0.9273,,,,,,,,0.14495124,-0.171273532,0,0,0,,0,160,160,74,1,CEMENT,HB,old,m,./images/CEMENTHB.png,,,,,,,,,,,,,,,,,,,,,,,,,,,,,,,,,,,
,,,,,,,,,,,,,,,,,60fef4e2e8b9ed26645404ed,18,2022-02-12_13h17.17.365,lexical_decision_task_DD_L3,2021.2.3,MacIntel,60.0024001,,,,,,,,,,,0.7407,1,,,,,,,,,,,,,,z,1,0.7407,,,,,,,,0.14495124,-0.171273532,0,0,0,,0,161,161,113,1,LINEW,LB,old,z,./images/LINEWLB.png,,,,,,,,,,,,,,,,,,,,,,,,,,,,,,,,,,,
,,,,,,,,,,,,,,,,,60fef4e2e8b9ed26645404ed,18,2022-02-12_13h17.17.365,lexical_decision_task_DD_L3,2021.2.3,MacIntel,60.0024001,,,,,,,,,,,1.6265,1,,,,,,,,,,,,,,z,1,1.6265,,,,,,,,0.14495124,-0.171273532,0,0,0,,0,162,162,100,1,DRIBS,HB,old,z,./images/DRIBSHB.png,,,,,,,,,,,,,,,,,,,,,,,,,,,,,,,,,,,
,,,,,,,,,,,,,,,,,60fef4e2e8b9ed26645404ed,18,2022-02-12_13h17.17.365,lexical_decision_task_DD_L3,2021.2.3,MacIntel,60.0024001,,,,,,,,,,,0.5892,1,,,,,,,,,,,,,,z,1,0.5892,,,,,,,,0.14495124,-0.171273532,0,0,0,,0,163,163,131,1,NACES,LB,old,z,./images/NACESLB.png,,,,,,,,,,,,,,,,,,,,,,,,,,,,,,,,,,,
,,,,,,,,,,,,,,,,,60fef4e2e8b9ed26645404ed,18,2022-02-12_13h17.17.365,lexical_decision_task_DD_L3,2021.2.3,MacIntel,60.0024001,,,,,,,,,,,1.1446,1,,,,,,,,,,,,,,z,1,1.1446,,,,,,,,0.14495124,-0.171273532,0,0,0,,0,164,164,140,1,DOVET,LB,old,z,./images/DOVETLB.png,,,,,,,,,,,,,,,,,,,,,,,,,,,,,,,,,,,
,,,,,,,,,,,,,,,,,60fef4e2e8b9ed26645404ed,18,2022-02-12_13h17.17.365,lexical_decision_task_DD_L3,2021.2.3,MacIntel,60.0024001,,,,,,,,,,,1.0267,1,,,,,,,,,,,,,,z,1,1.0267,,,,,,,,0.14495124,-0.171273532,0,0,0,,0,165,165,99,1,BACKY,C,old,z,./images/BACKY.png,,,,,,,,,,,,,,,,,,,,,,,,,,,,,,,,,,,
,,,,,,,,,,,,,,,,,60fef4e2e8b9ed26645404ed,18,2022-02-12_13h17.17.365,lexical_decision_task_DD_L3,2021.2.3,MacIntel,60.0024001,,,,,,,,,,,1.1282,1,,,,,,,,,,,,,,z,1,1.1282,,,,,,,,0.14495124,-0.171273532,0,0,0,,0,166,166,139,1,BLEAR,HB,old,z,./images/BLEARHB.png,,,,,,,,,,,,,,,,,,,,,,,,,,,,,,,,,,,
,,,,,,,,,,,,,,,,,60fef4e2e8b9ed26645404ed,18,2022-02-12_13h17.17.365,lexical_decision_task_DD_L3,2021.2.3,MacIntel,60.0024001,,,,,,,,,,,1.0569,1,,,,,,,,,,,,,,z,1,1.0569,,,,,,,,0.14495124,-0.171273532,0,0,0,,0,167,167,138,1,PLICE,C,old,z,./images/PLICE.png,,,,,,,,,,,,,,,,,,,,,,,,,,,,,,,,,,,
,,,,,,,,,,,,,,,,,60fef4e2e8b9ed26645404ed,18,2022-02-12_13h17.17.365,lexical_decision_task_DD_L3,2021.2.3,MacIntel,60.0024001,,,,,,,,,,,,,,,,,,,,,,,,,,,,,,,,,,,,,,,,,,,,,,,,How likely will it be that you will recognize the words presented slighly blurred on a scale of 0 (not likely) to 100 (most likely)?,,,,,0.002249281,-0.366898397,1,0,0,jol_adv,3,9.5211,0,0,0,1,1,,,,,,,,,,,,,,,,,,,,,
,,,,,,,,,,,,,,,,,60fef4e2e8b9ed26645404ed,18,2022-02-12_13h17.17.365,lexical_decision_task_DD_L3,2021.2.3,MacIntel,60.0024001,,,,,,,,,,,,,,,,,,,,,,,,,,,,,,,,,,,,,,,,,,,,,,,,How likely will it be that you will recognize the words presented clearly on a scale of 0 (not likely) to 100 (most likely)?,,,,,,,,,,,5,8.1209,0,1,1,0,1,,,,,,,,,,,,,,,,,,,,,
,,,,,,,,,,,,,,,,,60fef4e2e8b9ed26645404ed,18,2022-02-12_13h17.17.365,lexical_decision_task_DD_L3,2021.2.3,MacIntel,60.0024001,,,,,,,,,,,,,,,,,,,,,,,,,,,,,,,,,,,,,,,,,,,,,,,,How likely will it be that you will recognize the words presented very blurred on a scale of 0 (not likely) to 100 (most likely)?,,,,,,,,,,,2,4.2267,0,2,2,2,1,,,,,,,,,,,,,,,,,,,,,
,,-0.066368273,-0.388455811,1,0,0,,,,,,1,test,"In the next phase you will be presented with the words from the the first phase. Your job is to decide whether you remember seeing the word or not. If you remember seeing the word press ""old"" or type ""m"". If you do not remember seeing the word press ""new"" or type ""z"". Please press the space bar or click on continue to begin. ",,,60fef4e2e8b9ed26645404ed,18,2022-02-12_13h17.17.365,lexical_decision_task_DD_L3,2021.2.3,MacIntel,60.0024001,,,,,,,,,,,,,,,,,,,,,,,,,,,,,,,,,,,,,,,,,,,,,,,,,,,,,,,,,,,,,,,,,,instr_done_button,0,0,0,0,1,,,,,,,,,,,,,,,
,,-0.041381972,-0.376051025,1,0,0,,,,,,1,test,"In the next phase you will be presented with the words from the the first phase. Your job is to decide whether you remember seeing the word or not. If you remember seeing the word press ""old"" or type ""m"". If you do not remember seeing the word press ""new"" or type ""z"". Please press the space bar or click on continue to begin. ",,,60fef4e2e8b9ed26645404ed,18,2022-02-12_13h17.17.365,lexical_decision_task_DD_L3,2021.2.3,MacIntel,60.0024001,,,,,,,,,,,,,,,,,,,,,,,,,,,,,,,,,,,,,,,,,,,,,,,,,,,,,,,,,,,,,,,,,,instr_done_button,1,0,1,0,1,,,,,,,,,,,,,,,
,,-0.039572144,-0.410226305,1,0,0,,,,,,1,test,"In the next phase you will be presented with the words from the the first phase. Your job is to decide whether you remember seeing the word or not. If you remember seeing the word press ""old"" or type ""m"". If you do not remember seeing the word press ""new"" or type ""z"". Please press the space bar or click on continue to begin. ",,,60fef4e2e8b9ed26645404ed,18,2022-02-12_13h17.17.365,lexical_decision_task_DD_L3,2021.2.3,MacIntel,60.0024001,,,,,,,,,,,,,,,,,,,,,,,,,,,,,,,,,,,,,,,,,,,,,,,,,,,,,,,,,,,,,,,,,,instr_done_button,2,0,2,0,1,,,,,,,,,,,,,,,
space,1.2908,-0.038461032,-0.408559638,0,0,0,,,,,,1,test,"In the next phase you will be presented with the words from the the first phase. Your job is to decide whether you remember seeing the word or not. If you remember seeing the word press ""old"" or type ""m"". If you do not remember seeing the word press ""new"" or type ""z"". Please press the space bar or click on continue to begin. ",,,60fef4e2e8b9ed26645404ed,18,2022-02-12_13h17.17.365,lexical_decision_task_DD_L3,2021.2.3,MacIntel,60.0024001,,,,,,,,,,,,,,,,,,,,,,,,,,,,,,,,,,,,,,,,,,,,,,,,,,,,,,,,,,,,,,,,,,,3,0,3,0,1,,,,,,,,,,,,,,,
space,2.4699,0.090169,-0.282739597,0,0,0,,,,,,1,test,"In the next phase you will be presented with the words from the the first phase. Your job is to decide whether you remember seeing the word or not. If you remember seeing the word press ""old"" or type ""m"". If you do not remember seeing the word press ""new"" or type ""z"". Please press the space bar or click on continue to begin. ",,,60fef4e2e8b9ed26645404ed,18,2022-02-12_13h17.17.365,lexical_decision_task_DD_L3,2021.2.3,MacIntel,60.0024001,,,,,,,,,,,,,,,,,,,,,,,,,,,,,,,,,,,,,,,,,,,,,,,,,,,,,,,,,,,,,,,,,,,4,0,4,0,1,,,,,,,,,,,,,,,
,,,,,,,,,,,,,,,,,60fef4e2e8b9ed26645404ed,18,2022-02-12_13h17.17.365,lexical_decision_task_DD_L3,2021.2.3,MacIntel,60.0024001,,,,,,,,,,,3.3199,1,,,,,,,,,,,,,,,,,,,,,,,,0.090169,-0.282739597,0,0,0,,,,,,,WAGON,C,z,m,./images/WAGON.png,,,,,,,,,,,,,,,,,,,,,z,1,3.3199,,,,,,,,0,0,0,91,1
,,,,,,,,,,,,,,,,,60fef4e2e8b9ed26645404ed,18,2022-02-12_13h17.17.365,lexical_decision_task_DD_L3,2021.2.3,MacIntel,60.0024001,,,,,,,,,,,1.3428,0,,,,,,,,,,,,,,,,,,,,,,,,0.090169,-0.282739597,0,0,0,,,,,,,RAZOR,C,z,m,./images/RAZOR.png,,,,,,,,,,,,,,,,,,,,,m,0,1.3428,,,,,,,,0,1,1,118,1
,,,,,,,,,,,,,,,,,60fef4e2e8b9ed26645404ed,18,2022-02-12_13h17.17.365,lexical_decision_task_DD_L3,2021.2.3,MacIntel,60.0024001,,,,,,,,,,,0.8578,1,,,,,,,,,,,,,,,,,,,,,,,,0.090169,-0.282739597,0,0,0,,,,,,,BANNER,C,m,m,./images/BANNER.png,,,,,,,,,,,,,,,,,,,,,m,1,0.8578,,,,,,,,0,2,2,52,1
,,,,,,,,,,,,,,,,,60fef4e2e8b9ed26645404ed,18,2022-02-12_13h17.17.365,lexical_decision_task_DD_L3,2021.2.3,MacIntel,60.0024001,,,,,,,,,,,0.7064,1,,,,,,,,,,,,,,,,,,,,,,,,0.090169,-0.282739597,0,0,0,,,,,,,BABOON,C,m,m,./images/BABOON.png,,,,,,,,,,,,,,,,,,,,,m,1,0.7064,,,,,,,,0,3,3,58,1
,,,,,,,,,,,,,,,,,60fef4e2e8b9ed26645404ed,18,2022-02-12_13h17.17.365,lexical_decision_task_DD_L3,2021.2.3,MacIntel,60.0024001,,,,,,,,,,,0.817,1,,,,,,,,,,,,,,,,,,,,,,,,0.090169,-0.282739597,0,0,0,,,,,,,PLANK,C,m,m,./images/PLANK.png,,,,,,,,,,,,,,,,,,,,,m,1,0.817,,,,,,,,0,4,4,1,1
,,,,,,,,,,,,,,,,,60fef4e2e8b9ed26645404ed,18,2022-02-12_13h17.17.365,lexical_decision_task_DD_L3,2021.2.3,MacIntel,60.0024001,,,,,,,,,,,1.157,0,,,,,,,,,,,,,,,,,,,,,,,,0.090169,-0.282739597,0,0,0,,,,,,,SWING,C,m,m,./images/SWING.png,,,,,,,,,,,,,,,,,,,,,z,0,1.157,,,,,,,,0,5,5,40,1
,,,,,,,,,,,,,,,,,60fef4e2e8b9ed26645404ed,18,2022-02-12_13h17.17.365,lexical_decision_task_DD_L3,2021.2.3,MacIntel,60.0024001,,,,,,,,,,,0.9544,1,,,,,,,,,,,,,,,,,,,,,,,,0.090169,-0.282739597,0,0,0,,,,,,,COLLAR,LB,z,m,./images/COLLARLB.png,,,,,,,,,,,,,,,,,,,,,z,1,0.9544,,,,,,,,0,6,6,99,1
,,,,,,,,,,,,,,,,,60fef4e2e8b9ed26645404ed,18,2022-02-12_13h17.17.365,lexical_decision_task_DD_L3,2021.2.3,MacIntel,60.0024001,,,,,,,,,,,0.6727,1,,,,,,,,,,,,,,,,,,,,,,,,0.090169,-0.282739597,0,0,0,,,,,,,CRADLE,HB,m,m,./images/CRADLEHB.png,,,,,,,,,,,,,,,,,,,,,m,1,0.6727,,,,,,,,0,7,7,20,1
,,,,,,,,,,,,,,,,,60fef4e2e8b9ed26645404ed,18,2022-02-12_13h17.17.365,lexical_decision_task_DD_L3,2021.2.3,MacIntel,60.0024001,,,,,,,,,,,1.039,1,,,,,,,,,,,,,,,,,,,,,,,,0.090169,-0.282739597,0,0,0,,,,,,,FLASK,LB,z,m,./images/FLASKLB.png,,,,,,,,,,,,,,,,,,,,,z,1,1.039,,,,,,,,0,8,8,156,1
,,,,,,,,,,,,,,,,,60fef4e2e8b9ed26645404ed,18,2022-02-12_13h17.17.365,lexical_decision_task_DD_L3,2021.2.3,MacIntel,60.0024001,,,,,,,,,,,0.8611,1,,,,,,,,,,,,,,,,,,,,,,,,0.090169,-0.282739597,0,0,0,,,,,,,SWEAT,LB,m,m,./images/SWEATLB.png,,,,,,,,,,,,,,,,,,,,,m,1,0.8611,,,,,,,,0,9,9,66,1
,,,,,,,,,,,,,,,,,60fef4e2e8b9ed26645404ed,18,2022-02-12_13h17.17.365,lexical_decision_task_DD_L3,2021.2.3,MacIntel,60.0024001,,,,,,,,,,,0.891,1,,,,,,,,,,,,,,,,,,,,,,,,0.090169,-0.282739597,0,0,0,,,,,,,RULER,C,z,m,./images/RULER.png,,,,,,,,,,,,,,,,,,,,,z,1,0.891,,,,,,,,0,10,10,163,1
,,,,,,,,,,,,,,,,,60fef4e2e8b9ed26645404ed,18,2022-02-12_13h17.17.365,lexical_decision_task_DD_L3,2021.2.3,MacIntel,60.0024001,,,,,,,,,,,0.7773,1,,,,,,,,,,,,,,,,,,,,,,,,0.090169,-0.282739597,0,0,0,,,,,,,NOOSE,LB,m,m,./images/NOOSELB.png,,,,,,,,,,,,,,,,,,,,,m,1,0.7773,,,,,,,,0,11,11,72,1
,,,,,,,,,,,,,,,,,60fef4e2e8b9ed26645404ed,18,2022-02-12_13h17.17.365,lexical_decision_task_DD_L3,2021.2.3,MacIntel,60.0024001,,,,,,,,,,,0.7417,0,,,,,,,,,,,,,,,,,,,,,,,,0.090169,-0.282739597,0,0,0,,,,,,,FENCE,HB,z,m,./images/FENCEHB.png,,,,,,,,,,,,,,,,,,,,,m,0,0.7417,,,,,,,,0,12,12,98,1
,,,,,,,,,,,,,,,,,60fef4e2e8b9ed26645404ed,18,2022-02-12_13h17.17.365,lexical_decision_task_DD_L3,2021.2.3,MacIntel,60.0024001,,,,,,,,,,,0.6241,1,,,,,,,,,,,,,,,,,,,,,,,,0.090169,-0.282739597,0,0,0,,,,,,,STOVE,HB,z,m,./images/STOVEHB.png,,,,,,,,,,,,,,,,,,,,,z,1,0.6241,,,,,,,,0,13,13,86,1
,,,,,,,,,,,,,,,,,60fef4e2e8b9ed26645404ed,18,2022-02-12_13h17.17.365,lexical_decision_task_DD_L3,2021.2.3,MacIntel,60.0024001,,,,,,,,,,,1.5466,1,,,,,,,,,,,,,,,,,,,,,,,,0.090169,-0.282739597,0,0,0,,,,,,,TOWEL,C,z,m,./images/TOWEL.png,,,,,,,,,,,,,,,,,,,,,z,1,1.5466,,,,,,,,0,14,14,85,1
,,,,,,,,,,,,,,,,,60fef4e2e8b9ed26645404ed,18,2022-02-12_13h17.17.365,lexical_decision_task_DD_L3,2021.2.3,MacIntel,60.0024001,,,,,,,,,,,0.8298,1,,,,,,,,,,,,,,,,,,,,,,,,0.090169,-0.282739597,0,0,0,,,,,,,SAILOR,C,m,m,./images/SAILOR.png,,,,,,,,,,,,,,,,,,,,,m,1,0.8298,,,,,,,,0,15,15,67,1
,,,,,,,,,,,,,,,,,60fef4e2e8b9ed26645404ed,18,2022-02-12_13h17.17.365,lexical_decision_task_DD_L3,2021.2.3,MacIntel,60.0024001,,,,,,,,,,,1.4448,0,,,,,,,,,,,,,,,,,,,,,,,,0.090169,-0.282739597,0,0,0,,,,,,,HAMMER,LB,z,m,./images/HAMMERLB.png,,,,,,,,,,,,,,,,,,,,,m,0,1.4448,,,,,,,,0,16,16,159,1
,,,,,,,,,,,,,,,,,60fef4e2e8b9ed26645404ed,18,2022-02-12_13h17.17.365,lexical_decision_task_DD_L3,2021.2.3,MacIntel,60.0024001,,,,,,,,,,,0.8376,1,,,,,,,,,,,,,,,,,,,,,,,,0.090169,-0.282739597,0,0,0,,,,,,,CRATER,LB,z,m,./images/CRATERLB.png,,,,,,,,,,,,,,,,,,,,,z,1,0.8376,,,,,,,,0,17,17,87,1
,,,,,,,,,,,,,,,,,60fef4e2e8b9ed26645404ed,18,2022-02-12_13h17.17.365,lexical_decision_task_DD_L3,2021.2.3,MacIntel,60.0024001,,,,,,,,,,,0.7475,1,,,,,,,,,,,,,,,,,,,,,,,,0.090169,-0.282739597,0,0,0,,,,,,,KITTEN,LB,m,m,./images/KITTENLB.png,,,,,,,,,,,,,,,,,,,,,m,1,0.7475,,,,,,,,0,18,18,45,1
,,,,,,,,,,,,,,,,,60fef4e2e8b9ed26645404ed,18,2022-02-12_13h17.17.365,lexical_decision_task_DD_L3,2021.2.3,MacIntel,60.0024001,,,,,,,,,,,0.628,1,,,,,,,,,,,,,,,,,,,,,,,,0.090169,-0.282739597,0,0,0,,,,,,,CRUMB,HB,m,m,./images/CRUMBHB.png,,,,,,,,,,,,,,,,,,,,,m,1,0.628,,,,,,,,0,19,19,29,1
,,,,,,,,,,,,,,,,,60fef4e2e8b9ed26645404ed,18,2022-02-12_13h17.17.365,lexical_decision_task_DD_L3,2021.2.3,MacIntel,60.0024001,,,,,,,,,,,1.0751,1,,,,,,,,,,,,,,,,,,,,,,,,0.090169,-0.282739597,0,0,0,,,,,,,FINGER,LB,m,m,./images/FINGERLB.png,,,,,,,,,,,,,,,,,,,,,m,1,1.0751,,,,,,,,0,20,20,3,1
,,,,,,,,,,,,,,,,,60fef4e2e8b9ed26645404ed,18,2022-02-12_13h17.17.365,lexical_decision_task_DD_L3,2021.2.3,MacIntel,60.0024001,,,,,,,,,,,0.7952,1,,,,,,,,,,,,,,,,,,,,,,,,0.090169,-0.282739597,0,0,0,,,,,,,TRIPOD,LB,m,m,./images/TRIPODLB.png,,,,,,,,,,,,,,,,,,,,,m,1,0.7952,,,,,,,,0,21,21,54,1
,,,,,,,,,,,,,,,,,60fef4e2e8b9ed26645404ed,18,2022-02-12_13h17.17.365,lexical_decision_task_DD_L3,2021.2.3,MacIntel,60.0024001,,,,,,,,,,,0.7895,1,,,,,,,,,,,,,,,,,,,,,,,,0.090169,-0.282739597,0,0,0,,,,,,,COOKER,LB,m,m,./images/COOKERLB.png,,,,,,,,,,,,,,,,,,,,,m,1,0.7895,,,,,,,,0,22,22,69,1
,,,,,,,,,,,,,,,,,60fef4e2e8b9ed26645404ed,18,2022-02-12_13h17.17.365,lexical_decision_task_DD_L3,2021.2.3,MacIntel,60.0024001,,,,,,,,,,,0.6408,1,,,,,,,,,,,,,,,,,,,,,,,,0.090169,-0.282739597,0,0,0,,,,,,,MOOSE,LB,m,m,./images/MOOSELB.png,,,,,,,,,,,,,,,,,,,,,m,1,0.6408,,,,,,,,0,23,23,57,1
,,,,,,,,,,,,,,,,,60fef4e2e8b9ed26645404ed,18,2022-02-12_13h17.17.365,lexical_decision_task_DD_L3,2021.2.3,MacIntel,60.0024001,,,,,,,,,,,1.4053,0,,,,,,,,,,,,,,,,,,,,,,,,0.090169,-0.282739597,0,0,0,,,,,,,PILOT,HB,z,m,./images/PILOTHB.png,,,,,,,,,,,,,,,,,,,,,m,0,1.4053,,,,,,,,0,24,24,134,1
,,,,,,,,,,,,,,,,,60fef4e2e8b9ed26645404ed,18,2022-02-12_13h17.17.365,lexical_decision_task_DD_L3,2021.2.3,MacIntel,60.0024001,,,,,,,,,,,1.0548,1,,,,,,,,,,,,,,,,,,,,,,,,0.090169,-0.282739597,0,0,0,,,,,,,MONKEY,LB,z,m,./images/MONKEYLB.png,,,,,,,,,,,,,,,,,,,,,z,1,1.0548,,,,,,,,0,25,25,129,1
,,,,,,,,,,,,,,,,,60fef4e2e8b9ed26645404ed,18,2022-02-12_13h17.17.365,lexical_decision_task_DD_L3,2021.2.3,MacIntel,60.0024001,,,,,,,,,,,0.7423,1,,,,,,,,,,,,,,,,,,,,,,,,0.090169,-0.282739597,0,0,0,,,,,,,POODLE,LB,m,m,./images/POODLELB.png,,,,,,,,,,,,,,,,,,,,,m,1,0.7423,,,,,,,,0,26,26,81,1
,,,,,,,,,,,,,,,,,60fef4e2e8b9ed26645404ed,18,2022-02-12_13h17.17.365,lexical_decision_task_DD_L3,2021.2.3,MacIntel,60.0024001,,,,,,,,,,,0.8464,1,,,,,,,,,,,,,,,,,,,,,,,,0.090169,-0.282739597,0,0,0,,,,,,,INFANT,C,m,m,./images/INFANT.png,,,,,,,,,,,,,,,,,,,,,m,1,0.8464,,,,,,,,0,27,27,76,1
,,,,,,,,,,,,,,,,,60fef4e2e8b9ed26645404ed,18,2022-02-12_13h17.17.365,lexical_decision_task_DD_L3,2021.2.3,MacIntel,60.0024001,,,,,,,,,,,0.8885,1,,,,,,,,,,,,,,,,,,,,,,,,0.090169,-0.282739597,0,0,0,,,,,,,MIDGET,C,z,m,./images/MIDGET.png,,,,,,,,,,,,,,,,,,,,,z,1,0.8885,,,,,,,,0,28,28,160,1
,,,,,,,,,,,,,,,,,60fef4e2e8b9ed26645404ed,18,2022-02-12_13h17.17.365,lexical_decision_task_DD_L3,2021.2.3,MacIntel,60.0024001,,,,,,,,,,,0.876,1,,,,,,,,,,,,,,,,,,,,,,,,0.090169,-0.282739597,0,0,0,,,,,,,PEACH,HB,m,m,./images/PEACHHB.png,,,,,,,,,,,,,,,,,,,,,m,1,0.876,,,,,,,,0,29,29,35,1
,,,,,,,,,,,,,,,,,60fef4e2e8b9ed26645404ed,18,2022-02-12_13h17.17.365,lexical_decision_task_DD_L3,2021.2.3,MacIntel,60.0024001,,,,,,,,,,,0.6607,1,,,,,,,,,,,,,,,,,,,,,,,,0.090169,-0.282739597,0,0,0,,,,,,,MALLET,HB,m,m,./images/MALLETHB.png,,,,,,,,,,,,,,,,,,,,,m,1,0.6607,,,,,,,,0,30,30,50,1
,,,,,,,,,,,,,,,,,60fef4e2e8b9ed26645404ed,18,2022-02-12_13h17.17.365,lexical_decision_task_DD_L3,2021.2.3,MacIntel,60.0024001,,,,,,,,,,,0.779,1,,,,,,,,,,,,,,,,,,,,,,,,0.090169,-0.282739597,0,0,0,,,,,,,PLANET,HB,z,m,./images/PLANETHB.png,,,,,,,,,,,,,,,,,,,,,z,1,0.779,,,,,,,,0,31,31,164,1
,,,,,,,,,,,,,,,,,60fef4e2e8b9ed26645404ed,18,2022-02-12_13h17.17.365,lexical_decision_task_DD_L3,2021.2.3,MacIntel,60.0024001,,,,,,,,,,,1.1595,1,,,,,,,,,,,,,,,,,,,,,,,,0.090169,-0.282739597,0,0,0,,,,,,,BOILER,LB,z,m,./images/BOILERLB.png,,,,,,,,,,,,,,,,,,,,,z,1,1.1595,,,,,,,,0,32,32,120,1
,,,,,,,,,,,,,,,,,60fef4e2e8b9ed26645404ed,18,2022-02-12_13h17.17.365,lexical_decision_task_DD_L3,2021.2.3,MacIntel,60.0024001,,,,,,,,,,,0.9755,1,,,,,,,,,,,,,,,,,,,,,,,,0.090169,-0.282739597,0,0,0,,,,,,,DANCER,LB,z,m,./images/DANCERLB.png,,,,,,,,,,,,,,,,,,,,,z,1,0.9755,,,,,,,,0,33,33,105,1
,,,,,,,,,,,,,,,,,60fef4e2e8b9ed26645404ed,18,2022-02-12_13h17.17.365,lexical_decision_task_DD_L3,2021.2.3,MacIntel,60.0024001,,,,,,,,,,,0.998,1,,,,,,,,,,,,,,,,,,,,,,,,0.090169,-0.282739597,0,0,0,,,,,,,MUMMY,C,z,m,./images/MUMMY.png,,,,,,,,,,,,,,,,,,,,,z,1,0.998,,,,,,,,0,34,34,130,1
,,,,,,,,,,,,,,,,,60fef4e2e8b9ed26645404ed,18,2022-02-12_13h17.17.365,lexical_decision_task_DD_L3,2021.2.3,MacIntel,60.0024001,,,,,,,,,,,0.7119,1,,,,,,,,,,,,,,,,,,,,,,,,0.090169,-0.282739597,0,0,0,,,,,,,CANYON,C,m,m,./images/CANYON.png,,,,,,,,,,,,,,,,,,,,,m,1,0.7119,,,,,,,,0,35,35,34,1
,,,,,,,,,,,,,,,,,60fef4e2e8b9ed26645404ed,18,2022-02-12_13h17.17.365,lexical_decision_task_DD_L3,2021.2.3,MacIntel,60.0024001,,,,,,,,,,,0.7801,1,,,,,,,,,,,,,,,,,,,,,,,,0.090169,-0.282739597,0,0,0,,,,,,,BANANA,C,z,m,./images/BANANA.png,,,,,,,,,,,,,,,,,,,,,z,1,0.7801,,,,,,,,0,36,36,154,1
,,,,,,,,,,,,,,,,,60fef4e2e8b9ed26645404ed,18,2022-02-12_13h17.17.365,lexical_decision_task_DD_L3,2021.2.3,MacIntel,60.0024001,,,,,,,,,,,1.0153,1,,,,,,,,,,,,,,,,,,,,,,,,0.090169,-0.282739597,0,0,0,,,,,,,CANOE,C,z,m,./images/CANOE.png,,,,,,,,,,,,,,,,,,,,,z,1,1.0153,,,,,,,,0,37,37,142,1
,,,,,,,,,,,,,,,,,60fef4e2e8b9ed26645404ed,18,2022-02-12_13h17.17.365,lexical_decision_task_DD_L3,2021.2.3,MacIntel,60.0024001,,,,,,,,,,,0.7887,1,,,,,,,,,,,,,,,,,,,,,,,,0.090169,-0.282739597,0,0,0,,,,,,,SHELF,LB,m,m,./images/SHELFLB.png,,,,,,,,,,,,,,,,,,,,,m,1,0.7887,,,,,,,,0,38,38,39,1
,,,,,,,,,,,,,,,,,60fef4e2e8b9ed26645404ed,18,2022-02-12_13h17.17.365,lexical_decision_task_DD_L3,2021.2.3,MacIntel,60.0024001,,,,,,,,,,,0.6718,1,,,,,,,,,,,,,,,,,,,,,,,,0.090169,-0.282739597,0,0,0,,,,,,,MOSQUE,C,m,m,./images/MOSQUE.png,,,,,,,,,,,,,,,,,,,,,m,1,0.6718,,,,,,,,0,39,39,43,1
,,,,,,,,,,,,,,,,,60fef4e2e8b9ed26645404ed,18,2022-02-12_13h17.17.365,lexical_decision_task_DD_L3,2021.2.3,MacIntel,60.0024001,,,,,,,,,,,0.925,1,,,,,,,,,,,,,,,,,,,,,,,,0.090169,-0.282739597,0,0,0,,,,,,,DRUMS,C,m,m,./images/DRUMS.png,,,,,,,,,,,,,,,,,,,,,m,1,0.925,,,,,,,,0,40,40,49,1
,,,,,,,,,,,,,,,,,60fef4e2e8b9ed26645404ed,18,2022-02-12_13h17.17.365,lexical_decision_task_DD_L3,2021.2.3,MacIntel,60.0024001,,,,,,,,,,,0.8741,0,,,,,,,,,,,,,,,,,,,,,,,,0.090169,-0.282739597,0,0,0,space,,,,,,WALRUS,HB,m,m,./images/WALRUSHB.png,2.8794,,,,,,,,,,,,,,,,,,,,z,0,0.8741,,,,,,,,0,41,41,23,1
,,,,,,,,,,,,,,,,,60fef4e2e8b9ed26645404ed,18,2022-02-12_13h17.17.365,lexical_decision_task_DD_L3,2021.2.3,MacIntel,60.0024001,,,,,,,,,,,1.1739,1,,,,,,,,,,,,,,,,,,,,,,,,0.090169,-0.282739597,0,0,0,,,,,,,SMOKER,HB,m,m,./images/SMOKERHB.png,,,,,,,,,,,,,,,,,,,,,m,1,1.1739,,,,,,,,0,42,42,26,1
,,,,,,,,,,,,,,,,,60fef4e2e8b9ed26645404ed,18,2022-02-12_13h17.17.365,lexical_decision_task_DD_L3,2021.2.3,MacIntel,60.0024001,,,,,,,,,,,0.9121,0,,,,,,,,,,,,,,,,,,,,,,,,0.090169,-0.282739597,0,0,0,,,,,,,BOXER,C,z,m,./images/BOXER.png,,,,,,,,,,,,,,,,,,,,,m,0,0.9121,,,,,,,,0,43,43,88,1
,,,,,,,,,,,,,,,,,60fef4e2e8b9ed26645404ed,18,2022-02-12_13h17.17.365,lexical_decision_task_DD_L3,2021.2.3,MacIntel,60.0024001,,,,,,,,,,,0.8253,1,,,,,,,,,,,,,,,,,,,,,,,,0.090169,-0.282739597,0,0,0,,,,,,,STRING,HB,m,m,./images/STRINGHB.png,,,,,,,,,,,,,,,,,,,,,m,1,0.8253,,,,,,,,0,44,44,41,1
,,,,,,,,,,,,,,,,,60fef4e2e8b9ed26645404ed,18,2022-02-12_13h17.17.365,lexical_decision_task_DD_L3,2021.2.3,MacIntel,60.0024001,,,,,,,,,,,0.7421,1,,,,,,,,,,,,,,,,,,,,,,,,0.090169,-0.282739597,0,0,0,,,,,,,SHIELD,LB,z,m,./images/SHIELDLB.png,,,,,,,,,,,,,,,,,,,,,z,1,0.7421,,,,,,,,0,45,45,132,1
,,,,,,,,,,,,,,,,,60fef4e2e8b9ed26645404ed,18,2022-02-12_13h17.17.365,lexical_decision_task_DD_L3,2021.2.3,MacIntel,60.0024001,,,,,,,,,,,1.0794,1,,,,,,,,,,,,,,,,,,,,,,,,0.090169,-0.282739597,0,0,0,,,,,,,CASINO,C,z,m,./images/CASINO.png,,,,,,,,,,,,,,,,,,,,,z,1,1.0794,,,,,,,,0,46,46,112,1
,,,,,,,,,,,,,,,,,60fef4e2e8b9ed26645404ed,18,2022-02-12_13h17.17.365,lexical_decision_task_DD_L3,2021.2.3,MacIntel,60.0024001,,,,,,,,,,,0.6272,1,,,,,,,,,,,,,,,,,,,,,,,,0.090169,-0.282739597,0,0,0,,,,,,,MAGGOT,LB,m,m,./images/MAGGOTLB.png,,,,,,,,,,,,,,,,,,,,,m,1,0.6272,,,,,,,,0,47,47,33,1
,,,,,,,,,,,,,,,,,60fef4e2e8b9ed26645404ed,18,2022-02-12_13h17.17.365,lexical_decision_task_DD_L3,2021.2.3,MacIntel,60.0024001,,,,,,,,,,,0.7062,1,,,,,,,,,,,,,,,,,,,,,,,,0.090169,-0.282739597,0,0,0,,,,,,,BARREL,HB,m,m,./images/BARRELHB.png,,,,,,,,,,,,,,,,,,,,,m,1,0.7062,,,,,,,,0,48,48,32,1
,,,,,,,,,,,,,,,,,60fef4e2e8b9ed26645404ed,18,2022-02-12_13h17.17.365,lexical_decision_task_DD_L3,2021.2.3,MacIntel,60.0024001,,,,,,,,,,,0.8233,1,,,,,,,,,,,,,,,,,,,,,,,,0.090169,-0.282739597,0,0,0,,,,,,,CANDLE,C,m,m,./images/CANDLE.png,,,,,,,,,,,,,,,,,,,,,m,1,0.8233,,,,,,,,0,49,49,61,1
,,,,,,,,,,,,,,,,,60fef4e2e8b9ed26645404ed,18,2022-02-12_13h17.17.365,lexical_decision_task_DD_L3,2021.2.3,MacIntel,60.0024001,,,,,,,,,,,1.8937,0,,,,,,,,,,,,,,,,,,,,,,,,0.090169,-0.282739597,0,0,0,,,,,,,STREAM,HB,z,m,./images/STREAMHB.png,,,,,,,,,,,,,,,,,,,,,m,0,1.8937,,,,,,,,0,50,50,125,1
,,,,,,,,,,,,,,,,,60fef4e2e8b9ed26645404ed,18,2022-02-12_13h17.17.365,lexical_decision_task_DD_L3,2021.2.3,MacIntel,60.0024001,,,,,,,,,,,0.7932,1,,,,,,,,,,,,,,,,,,,,,,,,0.090169,-0.282739597,0,0,0,,,,,,,MEDAL,HB,z,m,./images/MEDALHB.png,,,,,,,,,,,,,,,,,,,,,z,1,0.7932,,,,,,,,0,51,51,95,1
,,,,,,,,,,,,,,,,,60fef4e2e8b9ed26645404ed,18,2022-02-12_13h17.17.365,lexical_decision_task_DD_L3,2021.2.3,MacIntel,60.0024001,,,,,,,,,,,1.6688,1,,,,,,,,,,,,,,,,,,,,,,,,0.090169,-0.282739597,0,0,0,,,,,,,TORCH,HB,m,m,./images/TORCHHB.png,,,,,,,,,,,,,,,,,,,,,m,1,1.6688,,,,,,,,0,52,52,68,1
,,,,,,,,,,,,,,,,,60fef4e2e8b9ed26645404ed,18,2022-02-12_13h17.17.365,lexical_decision_task_DD_L3,2021.2.3,MacIntel,60.0024001,,,,,,,,,,,0.8341,0,,,,,,,,,,,,,,,,,,,,,,,,0.090169,-0.282739597,0,0,0,,,,,,,WALNUT,LB,z,m,./images/WALNUTLB.png,,,,,,,,,,,,,,,,,,,,,m,0,0.8341,,,,,,,,0,53,53,84,1
,,,,,,,,,,,,,,,,,60fef4e2e8b9ed26645404ed,18,2022-02-12_13h17.17.365,lexical_decision_task_DD_L3,2021.2.3,MacIntel,60.0024001,,,,,,,,,,,0.7462,1,,,,,,,,,,,,,,,,,,,,,,,,0.090169,-0.282739597,0,0,0,,,,,,,BRIDE,C,z,m,./images/BRIDE.png,,,,,,,,,,,,,,,,,,,,,z,1,0.7462,,,,,,,,0,54,54,148,1
,,,,,,,,,,,,,,,,,60fef4e2e8b9ed26645404ed,18,2022-02-12_13h17.17.365,lexical_decision_task_DD_L3,2021.2.3,MacIntel,60.0024001,,,,,,,,,,,0.9779,1,,,,,,,,,,,,,,,,,,,,,,,,0.090169,-0.282739597,0,0,0,,,,,,,MELON,C,m,m,./images/MELON.png,,,,,,,,,,,,,,,,,,,,,m,1,0.9779,,,,,,,,0,55,55,22,1
,,,,,,,,,,,,,,,,,60fef4e2e8b9ed26645404ed,18,2022-02-12_13h17.17.365,lexical_decision_task_DD_L3,2021.2.3,MacIntel,60.0024001,,,,,,,,,,,0.8275,1,,,,,,,,,,,,,,,,,,,,,,,,0.090169,-0.282739597,0,0,0,,,,,,,RHINO,LB,m,m,./images/RHINOLB.png,,,,,,,,,,,,,,,,,,,,,m,1,0.8275,,,,,,,,0,56,56,9,1
,,,,,,,,,,,,,,,,,60fef4e2e8b9ed26645404ed,18,2022-02-12_13h17.17.365,lexical_decision_task_DD_L3,2021.2.3,MacIntel,60.0024001,,,,,,,,,,,2.1771,0,,,,,,,,,,,,,,,,,,,,,,,,0.090169,-0.282739597,0,0,0,,,,,,,CHALK,C,z,m,./images/CHALK.png,,,,,,,,,,,,,,,,,,,,,m,0,2.1771,,,,,,,,0,57,57,109,1
,,,,,,,,,,,,,,,,,60fef4e2e8b9ed26645404ed,18,2022-02-12_13h17.17.365,lexical_decision_task_DD_L3,2021.2.3,MacIntel,60.0024001,,,,,,,,,,,0.8054,1,,,,,,,,,,,,,,,,,,,,,,,,0.090169,-0.282739597,0,0,0,,,,,,,LADDER,HB,m,m,./images/LADDERHB.png,,,,,,,,,,,,,,,,,,,,,m,1,0.8054,,,,,,,,0,58,58,38,1
,,,,,,,,,,,,,,,,,60fef4e2e8b9ed26645404ed,18,2022-02-12_13h17.17.365,lexical_decision_task_DD_L3,2021.2.3,MacIntel,60.0024001,,,,,,,,,,,0.8757,1,,,,,,,,,,,,,,,,,,,,,,,,0.090169,-0.282739597,0,0,0,,,,,,,BUTTER,LB,z,m,./images/BUTTERLB.png,,,,,,,,,,,,,,,,,,,,,z,1,0.8757,,,,,,,,0,59,59,111,1
,,,,,,,,,,,,,,,,,60fef4e2e8b9ed26645404ed,18,2022-02-12_13h17.17.365,lexical_decision_task_DD_L3,2021.2.3,MacIntel,60.0024001,,,,,,,,,,,0.8737,0,,,,,,,,,,,,,,,,,,,,,,,,0.090169,-0.282739597,0,0,0,,,,,,,TULIP,HB,m,m,./images/TULIPHB.png,,,,,,,,,,,,,,,,,,,,,z,0,0.8737,,,,,,,,0,60,60,8,1
,,,,,,,,,,,,,,,,,60fef4e2e8b9ed26645404ed,18,2022-02-12_13h17.17.365,lexical_decision_task_DD_L3,2021.2.3,MacIntel,60.0024001,,,,,,,,,,,2.2566,1,,,,,,,,,,,,,,,,,,,,,,,,0.090169,-0.282739597,0,0,0,,,,,,,JAGUAR,LB,m,m,./images/JAGUARLB.png,,,,,,,,,,,,,,,,,,,,,m,1,2.2566,,,,,,,,0,61,61,18,1
,,,,,,,,,,,,,,,,,60fef4e2e8b9ed26645404ed,18,2022-02-12_13h17.17.365,lexical_decision_task_DD_L3,2021.2.3,MacIntel,60.0024001,,,,,,,,,,,1.0956,1,,,,,,,,,,,,,,,,,,,,,,,,0.090169,-0.282739597,0,0,0,,,,,,,PARADE,HB,z,m,./images/PARADEHB.png,,,,,,,,,,,,,,,,,,,,,z,1,1.0956,,,,,,,,0,62,62,101,1
,,,,,,,,,,,,,,,,,60fef4e2e8b9ed26645404ed,18,2022-02-12_13h17.17.365,lexical_decision_task_DD_L3,2021.2.3,MacIntel,60.0024001,,,,,,,,,,,1.7096,0,,,,,,,,,,,,,,,,,,,,,,,,0.090169,-0.282739597,0,0,0,,,,,,,PASTA,HB,m,m,./images/PASTAHB.png,,,,,,,,,,,,,,,,,,,,,z,0,1.7096,,,,,,,,0,63,63,5,1
,,,,,,,,,,,,,,,,,60fef4e2e8b9ed26645404ed,18,2022-02-12_13h17.17.365,lexical_decision_task_DD_L3,2021.2.3,MacIntel,60.0024001,,,,,,,,,,,1.2111,1,,,,,,,,,,,,,,,,,,,,,,,,0.090169,-0.282739597,0,0,0,,,,,,,BISHOP,C,z,m,./images/BISHOP.png,,,,,,,,,,,,,,,,,,,,,z,1,1.2111,,,,,,,,0,64,64,133,1
,,,,,,,,,,,,,,,,,60fef4e2e8b9ed26645404ed,18,2022-02-12_13h17.17.365,lexical_decision_task_DD_L3,2021.2.3,MacIntel,60.0024001,,,,,,,,,,,1.3601,1,,,,,,,,,,,,,,,,,,,,,,,,0.090169,-0.282739597,0,0,0,,,,,,,WRIST,C,m,m,./images/WRIST.png,,,,,,,,,,,,,,,,,,,,,m,1,1.3601,,,,,,,,0,65,65,25,1
,,,,,,,,,,,,,,,,,60fef4e2e8b9ed26645404ed,18,2022-02-12_13h17.17.365,lexical_decision_task_DD_L3,2021.2.3,MacIntel,60.0024001,,,,,,,,,,,1.0222,1,,,,,,,,,,,,,,,,,,,,,,,,0.090169,-0.282739597,0,0,0,,,,,,,SQUARE,LB,m,m,./images/SQUARELB.png,,,,,,,,,,,,,,,,,,,,,m,1,1.0222,,,,,,,,0,66,66,6,1
,,,,,,,,,,,,,,,,,60fef4e2e8b9ed26645404ed,18,2022-02-12_13h17.17.365,lexical_decision_task_DD_L3,2021.2.3,MacIntel,60.0024001,,,,,,,,,,,1.862,1,,,,,,,,,,,,,,,,,,,,,,,,0.090169,-0.282739597,0,0,0,,,,,,,CARPET,HB,m,m,./images/CARPETHB.png,,,,,,,,,,,,,,,,,,,,,m,1,1.862,,,,,,,,0,67,67,53,1
,,,,,,,,,,,,,,,,,60fef4e2e8b9ed26645404ed,18,2022-02-12_13h17.17.365,lexical_decision_task_DD_L3,2021.2.3,MacIntel,60.0024001,,,,,,,,,,,1.0614,1,,,,,,,,,,,,,,,,,,,,,,,,0.089626261,-0.283538411,0,0,0,,,,,,,FLESH,LB,z,m,./images/FLESHLB.png,,,,,,,,,,,,,,,,,,,,,z,1,1.0614,,,,,,,,0,68,68,108,1
,,,,,,,,,,,,,,,,,60fef4e2e8b9ed26645404ed,18,2022-02-12_13h17.17.365,lexical_decision_task_DD_L3,2021.2.3,MacIntel,60.0024001,,,,,,,,,,,1.1535,1,,,,,,,,,,,,,,,,,,,,,,,,0.089626261,-0.283538411,0,0,0,,,,,,,HOCKEY,HB,z,m,./images/HOCKEYHB.png,,,,,,,,,,,,,,,,,,,,,z,1,1.1535,,,,,,,,0,69,69,116,1
,,,,,,,,,,,,,,,,,60fef4e2e8b9ed26645404ed,18,2022-02-12_13h17.17.365,lexical_decision_task_DD_L3,2021.2.3,MacIntel,60.0024001,,,,,,,,,,,1.0456,1,,,,,,,,,,,,,,,,,,,,,,,,0.089626261,-0.283538411,0,0,0,,,,,,,GRAPE,C,z,m,./images/GRAPE.png,,,,,,,,,,,,,,,,,,,,,z,1,1.0456,,,,,,,,0,70,70,100,1
,,,,,,,,,,,,,,,,,60fef4e2e8b9ed26645404ed,18,2022-02-12_13h17.17.365,lexical_decision_task_DD_L3,2021.2.3,MacIntel,60.0024001,,,,,,,,,,,0.8709,0,,,,,,,,,,,,,,,,,,,,,,,,0.089626261,-0.283538411,0,0,0,,,,,,,WHEEL,HB,z,m,./images/WHEELHB.png,,,,,,,,,,,,,,,,,,,,,m,0,0.8709,,,,,,,,0,71,71,161,1
,,,,,,,,,,,,,,,,,60fef4e2e8b9ed26645404ed,18,2022-02-12_13h17.17.365,lexical_decision_task_DD_L3,2021.2.3,MacIntel,60.0024001,,,,,,,,,,,0.7567,1,,,,,,,,,,,,,,,,,,,,,,,,0.089626261,-0.283538411,0,0,0,,,,,,,PURSE,HB,m,m,./images/PURSEHB.png,,,,,,,,,,,,,,,,,,,,,m,1,0.7567,,,,,,,,0,72,72,62,1
,,,,,,,,,,,,,,,,,60fef4e2e8b9ed26645404ed,18,2022-02-12_13h17.17.365,lexical_decision_task_DD_L3,2021.2.3,MacIntel,60.0024001,,,,,,,,,,,3.0627,1,,,,,,,,,,,,,,,,,,,,,,,,0.089626261,-0.283538411,0,0,0,,,,,,,MUFFIN,C,m,m,./images/MUFFIN.png,,,,,,,,,,,,,,,,,,,,,m,1,3.0627,,,,,,,,0,73,73,55,1
,,,,,,,,,,,,,,,,,60fef4e2e8b9ed26645404ed,18,2022-02-12_13h17.17.365,lexical_decision_task_DD_L3,2021.2.3,MacIntel,60.0024001,,,,,,,,,,,1.0566,1,,,,,,,,,,,,,,,,,,,,,,,,0.089626261,-0.283538411,0,0,0,,,,,,,LITTER,LB,m,m,./images/LITTERLB.png,,,,,,,,,,,,,,,,,,,,,m,1,1.0566,,,,,,,,0,74,74,78,1
,,,,,,,,,,,,,,,,,60fef4e2e8b9ed26645404ed,18,2022-02-12_13h17.17.365,lexical_decision_task_DD_L3,2021.2.3,MacIntel,60.0024001,,,,,,,,,,,0.7776,1,,,,,,,,,,,,,,,,,,,,,,,,0.089626261,-0.283538411,0,0,0,,,,,,,BELLY,C,m,m,./images/BELLY.png,,,,,,,,,,,,,,,,,,,,,m,1,0.7776,,,,,,,,0,75,75,10,1
,,,,,,,,,,,,,,,,,60fef4e2e8b9ed26645404ed,18,2022-02-12_13h17.17.365,lexical_decision_task_DD_L3,2021.2.3,MacIntel,60.0024001,,,,,,,,,,,1.1542,1,,,,,,,,,,,,,,,,,,,,,,,,0.089626261,-0.283538411,0,0,0,,,,,,,BAMBOO,HB,z,m,./images/BAMBOOHB.png,,,,,,,,,,,,,,,,,,,,,z,1,1.1542,,,,,,,,0,76,76,89,1
,,,,,,,,,,,,,,,,,60fef4e2e8b9ed26645404ed,18,2022-02-12_13h17.17.365,lexical_decision_task_DD_L3,2021.2.3,MacIntel,60.0024001,,,,,,,,,,,1.0302,1,,,,,,,,,,,,,,,,,,,,,,,,0.089626261,-0.283538411,0,0,0,,,,,,,GARDEN,C,z,m,./images/GARDEN.png,,,,,,,,,,,,,,,,,,,,,z,1,1.0302,,,,,,,,0,77,77,94,1
,,,,,,,,,,,,,,,,,60fef4e2e8b9ed26645404ed,18,2022-02-12_13h17.17.365,lexical_decision_task_DD_L3,2021.2.3,MacIntel,60.0024001,,,,,,,,,,,1.0078,1,,,,,,,,,,,,,,,,,,,,,,,,0.089626261,-0.283538411,0,0,0,,,,,,,STEAK,C,z,m,./images/STEAK.png,,,,,,,,,,,,,,,,,,,,,z,1,1.0078,,,,,,,,0,78,78,115,1
,,,,,,,,,,,,,,,,,60fef4e2e8b9ed26645404ed,18,2022-02-12_13h17.17.365,lexical_decision_task_DD_L3,2021.2.3,MacIntel,60.0024001,,,,,,,,,,,0.7624,1,,,,,,,,,,,,,,,,,,,,,,,,0.089626261,-0.283538411,0,0,0,,,,,,,MUSCLE,C,m,m,./images/MUSCLE.png,,,,,,,,,,,,,,,,,,,,,m,1,0.7624,,,,,,,,0,79,79,4,1
,,,,,,,,,,,,,,,,,60fef4e2e8b9ed26645404ed,18,2022-02-12_13h17.17.365,lexical_decision_task_DD_L3,2021.2.3,MacIntel,60.0024001,,,,,,,,,,,1.7932,0,,,,,,,,,,,,,,,,,,,,,,,,0.089626261,-0.283538411,0,0,0,,,,,,,MAMMAL,HB,z,m,./images/MAMMALHB.png,,,,,,,,,,,,,,,,,,,,,m,0,1.7932,,,,,,,,0,80,80,146,1
,,,,,,,,,,,,,,,,,60fef4e2e8b9ed26645404ed,18,2022-02-12_13h17.17.365,lexical_decision_task_DD_L3,2021.2.3,MacIntel,60.0024001,,,,,,,,,,,1.7486,1,,,,,,,,,,,,,,,,,,,,,,,,0.089626261,-0.283538411,0,0,0,,,,,,,CANDY,LB,z,m,./images/CANDYLB.png,,,,,,,,,,,,,,,,,,,,,z,1,1.7486,,,,,,,,0,81,81,123,1
,,,,,,,,,,,,,,,,,60fef4e2e8b9ed26645404ed,18,2022-02-12_13h17.17.365,lexical_decision_task_DD_L3,2021.2.3,MacIntel,60.0024001,,,,,,,,,,,1.1598,1,,,,,,,,,,,,,,,,,,,,,,,,0.089626261,-0.283538411,0,0,0,,,,,,,CURRY,LB,z,m,./images/CURRYLB.png,,,,,,,,,,,,,,,,,,,,,z,1,1.1598,,,,,,,,0,82,82,144,1
,,,,,,,,,,,,,,,,,60fef4e2e8b9ed26645404ed,18,2022-02-12_13h17.17.365,lexical_decision_task_DD_L3,2021.2.3,MacIntel,60.0024001,,,,,,,,,,,0.993,1,,,,,,,,,,,,,,,,,,,,,,,,0.089626261,-0.283538411,0,0,0,space,,,,,,GREASE,LB,m,m,./images/GREASELB.png,3.8048,,,,,,,,,,,,,,,,,,,,m,1,0.993,,,,,,,,0,83,83,15,1
,,,,,,,,,,,,,,,,,60fef4e2e8b9ed26645404ed,18,2022-02-12_13h17.17.365,lexical_decision_task_DD_L3,2021.2.3,MacIntel,60.0024001,,,,,,,,,,,1.1775,1,,,,,,,,,,,,,,,,,,,,,,,,0.089626261,-0.283538411,0,0,0,,,,,,,DESERT,C,z,m,./images/DESERT.png,,,,,,,,,,,,,,,,,,,,,z,1,1.1775,,,,,,,,0,84,84,136,1
,,,,,,,,,,,,,,,,,60fef4e2e8b9ed26645404ed,18,2022-02-12_13h17.17.365,lexical_decision_task_DD_L3,2021.2.3,MacIntel,60.0024001,,,,,,,,,,,0.8902,1,,,,,,,,,,,,,,,,,,,,,,,,0.089626261,-0.283538411,0,0,0,,,,,,,STOOL,C,z,m,./images/STOOL.png,,,,,,,,,,,,,,,,,,,,,z,1,0.8902,,,,,,,,0,85,85,127,1
,,,,,,,,,,,,,,,,,60fef4e2e8b9ed26645404ed,18,2022-02-12_13h17.17.365,lexical_decision_task_DD_L3,2021.2.3,MacIntel,60.0024001,,,,,,,,,,,0.9778,1,,,,,,,,,,,,,,,,,,,,,,,,0.089626261,-0.283538411,0,0,0,,,,,,,SCREW,LB,m,m,./images/SCREWLB.png,,,,,,,,,,,,,,,,,,,,,m,1,0.9778,,,,,,,,0,86,86,24,1
,,,,,,,,,,,,,,,,,60fef4e2e8b9ed26645404ed,18,2022-02-12_13h17.17.365,lexical_decision_task_DD_L3,2021.2.3,MacIntel,60.0024001,,,,,,,,,,,1.1482,1,,,,,,,,,,,,,,,,,,,,,,,,0.089626261,-0.283538411,0,0,0,,,,,,,ARROW,LB,z,m,./images/ARROWLB.png,,,,,,,,,,,,,,,,,,,,,z,1,1.1482,,,,,,,,0,87,87,153,1
,,,,,,,,,,,,,,,,,60fef4e2e8b9ed26645404ed,18,2022-02-12_13h17.17.365,lexical_decision_task_DD_L3,2021.2.3,MacIntel,60.0024001,,,,,,,,,,,1.2318,1,,,,,,,,,,,,,,,,,,,,,,,,0.089626261,-0.283538411,0,0,0,,,,,,,ONION,LB,m,m,./images/ONIONLB.png,,,,,,,,,,,,,,,,,,,,,m,1,1.2318,,,,,,,,0,88,88,51,1
,,,,,,,,,,,,,,,,,60fef4e2e8b9ed26645404ed,18,2022-02-12_13h17.17.365,lexical_decision_task_DD_L3,2021.2.3,MacIntel,60.0024001,,,,,,,,,,,0.6582,1,,,,,,,,,,,,,,,,,,,,,,,,0.089626261,-0.283538411,0,0,0,,,,,,,WEASEL,HB,m,m,./images/WEASELHB.png,,,,,,,,,,,,,,,,,,,,,m,1,0.6582,,,,,,,,0,89,89,80,1
,,,,,,,,,,,,,,,,,60fef4e2e8b9ed26645404ed,18,2022-02-12_13h17.17.365,lexical_decision_task_DD_L3,2021.2.3,MacIntel,60.0024001,,,,,,,,,,,0.793,1,,,,,,,,,,,,,,,,,,,,,,,,0.089626261,-0.283538411,0,0,0,,,,,,,BLOKE,LB,z,m,./images/BLOKELB.png,,,,,,,,,,,,,,,,,,,,,z,1,0.793,,,,,,,,0,90,90,96,1
,,,,,,,,,,,,,,,,,60fef4e2e8b9ed26645404ed,18,2022-02-12_13h17.17.365,lexical_decision_task_DD_L3,2021.2.3,MacIntel,60.0024001,,,,,,,,,,,2.3436,1,,,,,,,,,,,,,,,,,,,,,,,,0.089626261,-0.283538411,0,0,0,,,,,,,ATTIC,LB,m,m,./images/ATTICLB.png,,,,,,,,,,,,,,,,,,,,,m,1,2.3436,,,,,,,,0,91,91,27,1
,,,,,,,,,,,,,,,,,60fef4e2e8b9ed26645404ed,18,2022-02-12_13h17.17.365,lexical_decision_task_DD_L3,2021.2.3,MacIntel,60.0024001,,,,,,,,,,,0.6103,1,,,,,,,,,,,,,,,,,,,,,,,,0.089626261,-0.283538411,0,0,0,,,,,,,PEARL,C,m,m,./images/PEARL.png,,,,,,,,,,,,,,,,,,,,,m,1,0.6103,,,,,,,,0,92,92,46,1
,,,,,,,,,,,,,,,,,60fef4e2e8b9ed26645404ed,18,2022-02-12_13h17.17.365,lexical_decision_task_DD_L3,2021.2.3,MacIntel,60.0024001,,,,,,,,,,,0.6757,1,,,,,,,,,,,,,,,,,,,,,,,,0.089626261,-0.283538411,0,0,0,,,,,,,STAIN,LB,z,m,./images/STAINLB.png,,,,,,,,,,,,,,,,,,,,,z,1,0.6757,,,,,,,,0,93,93,90,1
,,,,,,,,,,,,,,,,,60fef4e2e8b9ed26645404ed,18,2022-02-12_13h17.17.365,lexical_decision_task_DD_L3,2021.2.3,MacIntel,60.0024001,,,,,,,,,,,0.7882,1,,,,,,,,,,,,,,,,,,,,,,,,0.089626261,-0.283538411,0,0,0,,,,,,,DIVER,LB,z,m,./images/DIVERLB.png,,,,,,,,,,,,,,,,,,,,,z,1,0.7882,,,,,,,,0,94,94,93,1
,,,,,,,,,,,,,,,,,60fef4e2e8b9ed26645404ed,18,2022-02-12_13h17.17.365,lexical_decision_task_DD_L3,2021.2.3,MacIntel,60.0024001,,,,,,,,,,,0.8235,1,,,,,,,,,,,,,,,,,,,,,,,,0.089626261,-0.283538411,0,0,0,,,,,,,POSTER,HB,z,m,./images/POSTERHB.png,,,,,,,,,,,,,,,,,,,,,z,1,0.8235,,,,,,,,0,95,95,137,1
,,,,,,,,,,,,,,,,,60fef4e2e8b9ed26645404ed,18,2022-02-12_13h17.17.365,lexical_decision_task_DD_L3,2021.2.3,MacIntel,60.0024001,,,,,,,,,,,0.6611,1,,,,,,,,,,,,,,,,,,,,,,,,0.089626261,-0.283538411,0,0,0,,,,,,,SKIING,HB,m,m,./images/SKIINGHB.png,,,,,,,,,,,,,,,,,,,,,m,1,0.6611,,,,,,,,0,96,96,17,1
,,,,,,,,,,,,,,,,,60fef4e2e8b9ed26645404ed,18,2022-02-12_13h17.17.365,lexical_decision_task_DD_L3,2021.2.3,MacIntel,60.0024001,,,,,,,,,,,0.8281,1,,,,,,,,,,,,,,,,,,,,,,,,0.089626261,-0.283538411,0,0,0,,,,,,,HEATER,HB,z,m,./images/HEATERHB.png,,,,,,,,,,,,,,,,,,,,,z,1,0.8281,,,,,,,,0,97,97,140,1
,,,,,,,,,,,,,,,,,60fef4e2e8b9ed26645404ed,18,2022-02-12_13h17.17.365,lexical_decision_task_DD_L3,2021.2.3,MacIntel,60.0024001,,,,,,,,,,,0.855,1,,,,,,,,,,,,,,,,,,,,,,,,0.089626261,-0.283538411,0,0,0,,,,,,,SNAKE,C,z,m,./images/SNAKE.png,,,,,,,,,,,,,,,,,,,,,z,1,0.855,,,,,,,,0,98,98,124,1
,,,,,,,,,,,,,,,,,60fef4e2e8b9ed26645404ed,18,2022-02-12_13h17.17.365,lexical_decision_task_DD_L3,2021.2.3,MacIntel,60.0024001,,,,,,,,,,,0.9237,1,,,,,,,,,,,,,,,,,,,,,,,,0.089626261,-0.283538411,0,0,0,,,,,,,FOLDER,LB,m,m,./images/FOLDERLB.png,,,,,,,,,,,,,,,,,,,,,m,1,0.9237,,,,,,,,0,99,99,42,1
,,,,,,,,,,,,,,,,,60fef4e2e8b9ed26645404ed,18,2022-02-12_13h17.17.365,lexical_decision_task_DD_L3,2021.2.3,MacIntel,60.0024001,,,,,,,,,,,0.6801,1,,,,,,,,,,,,,,,,,,,,,,,,0.089626261,-0.283538411,0,0,0,,,,,,,TWINS,LB,m,m,./images/TWINSLB.png,,,,,,,,,,,,,,,,,,,,,m,1,0.6801,,,,,,,,0,100,100,60,1
,,,,,,,,,,,,,,,,,60fef4e2e8b9ed26645404ed,18,2022-02-12_13h17.17.365,lexical_decision_task_DD_L3,2021.2.3,MacIntel,60.0024001,,,,,,,,,,,0.7418,1,,,,,,,,,,,,,,,,,,,,,,,,0.089626261,-0.283538411,0,0,0,,,,,,,CEMENT,HB,m,m,./images/CEMENTHB.png,,,,,,,,,,,,,,,,,,,,,m,1,0.7418,,,,,,,,0,101,101,74,1
,,,,,,,,,,,,,,,,,60fef4e2e8b9ed26645404ed,18,2022-02-12_13h17.17.365,lexical_decision_task_DD_L3,2021.2.3,MacIntel,60.0024001,,,,,,,,,,,0.7838,1,,,,,,,,,,,,,,,,,,,,,,,,0.089626261,-0.283538411,0,0,0,,,,,,,BROOM,LB,z,m,./images/BROOMLB.png,,,,,,,,,,,,,,,,,,,,,z,1,0.7838,,,,,,,,0,102,102,162,1
,,,,,,,,,,,,,,,,,60fef4e2e8b9ed26645404ed,18,2022-02-12_13h17.17.365,lexical_decision_task_DD_L3,2021.2.3,MacIntel,60.0024001,,,,,,,,,,,0.757,1,,,,,,,,,,,,,,,,,,,,,,,,0.089626261,-0.283538411,0,0,0,,,,,,,BUBBLE,HB,z,m,./images/BUBBLEHB.png,,,,,,,,,,,,,,,,,,,,,z,1,0.757,,,,,,,,0,103,103,155,1
,,,,,,,,,,,,,,,,,60fef4e2e8b9ed26645404ed,18,2022-02-12_13h17.17.365,lexical_decision_task_DD_L3,2021.2.3,MacIntel,60.0024001,,,,,,,,,,,0.859,1,,,,,,,,,,,,,,,,,,,,,,,,0.089626261,-0.283538411,0,0,0,,,,,,,GRANNY,HB,z,m,./images/GRANNYHB.png,,,,,,,,,,,,,,,,,,,,,z,1,0.859,,,,,,,,0,104,104,104,1
,,,,,,,,,,,,,,,,,60fef4e2e8b9ed26645404ed,18,2022-02-12_13h17.17.365,lexical_decision_task_DD_L3,2021.2.3,MacIntel,60.0024001,,,,,,,,,,,0.9883,1,,,,,,,,,,,,,,,,,,,,,,,,0.089626261,-0.283538411,0,0,0,,,,,,,CLOUD,HB,z,m,./images/CLOUDHB.png,,,,,,,,,,,,,,,,,,,,,z,1,0.9883,,,,,,,,0,105,105,110,1
,,,,,,,,,,,,,,,,,60fef4e2e8b9ed26645404ed,18,2022-02-12_13h17.17.365,lexical_decision_task_DD_L3,2021.2.3,MacIntel,60.0024001,,,,,,,,,,,0.7596,1,,,,,,,,,,,,,,,,,,,,,,,,0.089626261,-0.283538411,0,0,0,,,,,,,CLOTH,HB,z,m,./images/CLOTHHB.png,,,,,,,,,,,,,,,,,,,,,z,1,0.7596,,,,,,,,0,106,106,107,1
,,,,,,,,,,,,,,,,,60fef4e2e8b9ed26645404ed,18,2022-02-12_13h17.17.365,lexical_decision_task_DD_L3,2021.2.3,MacIntel,60.0024001,,,,,,,,,,,0.9298,1,,,,,,,,,,,,,,,,,,,,,,,,0.089626261,-0.283538411,0,0,0,,,,,,,FERRY,LB,z,m,./images/FERRYLB.png,,,,,,,,,,,,,,,,,,,,,z,1,0.9298,,,,,,,,0,107,107,141,1
,,,,,,,,,,,,,,,,,60fef4e2e8b9ed26645404ed,18,2022-02-12_13h17.17.365,lexical_decision_task_DD_L3,2021.2.3,MacIntel,60.0024001,,,,,,,,,,,1.8734,1,,,,,,,,,,,,,,,,,,,,,,,,0.089626261,-0.283538411,0,0,0,,,,,,,SNACK,C,m,m,./images/SNACK.png,,,,,,,,,,,,,,,,,,,,,m,1,1.8734,,,,,,,,0,108,108,73,1
,,,,,,,,,,,,,,,,,60fef4e2e8b9ed26645404ed,18,2022-02-12_13h17.17.365,lexical_decision_task_DD_L3,2021.2.3,MacIntel,60.0024001,,,,,,,,,,,0.6443,1,,,,,,,,,,,,,,,,,,,,,,,,0.089626261,-0.283538411,0,0,0,,,,,,,URINE,C,m,m,./images/URINE.png,,,,,,,,,,,,,,,,,,,,,m,1,0.6443,,,,,,,,0,109,109,70,1
,,,,,,,,,,,,,,,,,60fef4e2e8b9ed26645404ed,18,2022-02-12_13h17.17.365,lexical_decision_task_DD_L3,2021.2.3,MacIntel,60.0024001,,,,,,,,,,,0.63,1,,,,,,,,,,,,,,,,,,,,,,,,0.089626261,-0.283538411,0,0,0,,,,,,,PIMPLE,HB,m,m,./images/PIMPLEHB.png,,,,,,,,,,,,,,,,,,,,,m,1,0.63,,,,,,,,0,110,110,71,1
,,,,,,,,,,,,,,,,,60fef4e2e8b9ed26645404ed,18,2022-02-12_13h17.17.365,lexical_decision_task_DD_L3,2021.2.3,MacIntel,60.0024001,,,,,,,,,,,1.5748,1,,,,,,,,,,,,,,,,,,,,,,,,0.089626261,-0.283538411,0,0,0,,,,,,,PICKLE,HB,m,m,./images/PICKLEHB.png,,,,,,,,,,,,,,,,,,,,,m,1,1.5748,,,,,,,,0,111,111,14,1
,,,,,,,,,,,,,,,,,60fef4e2e8b9ed26645404ed,18,2022-02-12_13h17.17.365,lexical_decision_task_DD_L3,2021.2.3,MacIntel,60.0024001,,,,,,,,,,,2.645,1,,,,,,,,,,,,,,,,,,,,,,,,0.089626261,-0.283538411,0,0,0,,,,,,,PENCE,C,m,m,./images/PENCE.png,,,,,,,,,,,,,,,,,,,,,m,1,2.645,,,,,,,,0,112,112,16,1
,,,,,,,,,,,,,,,,,60fef4e2e8b9ed26645404ed,18,2022-02-12_13h17.17.365,lexical_decision_task_DD_L3,2021.2.3,MacIntel,60.0024001,,,,,,,,,,,0.8058,1,,,,,,,,,,,,,,,,,,,,,,,,0.089626261,-0.283538411,0,0,0,,,,,,,SLOPE,LB,z,m,./images/SLOPELB.png,,,,,,,,,,,,,,,,,,,,,z,1,0.8058,,,,,,,,0,113,113,114,1
,,,,,,,,,,,,,,,,,60fef4e2e8b9ed26645404ed,18,2022-02-12_13h17.17.365,lexical_decision_task_DD_L3,2021.2.3,MacIntel,60.0024001,,,,,,,,,,,1.3438,0,,,,,,,,,,,,,,,,,,,,,,,,0.089626261,-0.283538411,0,0,0,,,,,,,TIGER,C,z,m,./images/TIGER.png,,,,,,,,,,,,,,,,,,,,,m,0,1.3438,,,,,,,,0,114,114,121,1
,,,,,,,,,,,,,,,,,60fef4e2e8b9ed26645404ed,18,2022-02-12_13h17.17.365,lexical_decision_task_DD_L3,2021.2.3,MacIntel,60.0024001,,,,,,,,,,,0.7291,1,,,,,,,,,,,,,,,,,,,,,,,,0.089626261,-0.283538411,0,0,0,,,,,,,DOUGH,C,m,m,./images/DOUGH.png,,,,,,,,,,,,,,,,,,,,,m,1,0.7291,,,,,,,,0,115,115,19,1
,,,,,,,,,,,,,,,,,60fef4e2e8b9ed26645404ed,18,2022-02-12_13h17.17.365,lexical_decision_task_DD_L3,2021.2.3,MacIntel,60.0024001,,,,,,,,,,,0.7428,1,,,,,,,,,,,,,,,,,,,,,,,,0.089626261,-0.283538411,0,0,0,,,,,,,GRAIN,LB,m,m,./images/GRAINLB.png,,,,,,,,,,,,,,,,,,,,,m,1,0.7428,,,,,,,,0,116,116,75,1
,,,,,,,,,,,,,,,,,60fef4e2e8b9ed26645404ed,18,2022-02-12_13h17.17.365,lexical_decision_task_DD_L3,2021.2.3,MacIntel,60.0024001,,,,,,,,,,,0.8748,1,,,,,,,,,,,,,,,,,,,,,,,,0.089626261,-0.283538411,0,0,0,,,,,,,DONKEY,C,z,m,./images/DONKEY.png,,,,,,,,,,,,,,,,,,,,,z,1,0.8748,,,,,,,,0,117,117,103,1
,,,,,,,,,,,,,,,,,60fef4e2e8b9ed26645404ed,18,2022-02-12_13h17.17.365,lexical_decision_task_DD_L3,2021.2.3,MacIntel,60.0024001,,,,,,,,,,,0.8129,1,,,,,,,,,,,,,,,,,,,,,,,,0.089626261,-0.283538411,0,0,0,,,,,,,SAUCE,LB,z,m,./images/SAUCELB.png,,,,,,,,,,,,,,,,,,,,,z,1,0.8129,,,,,,,,0,118,118,135,1
,,,,,,,,,,,,,,,,,60fef4e2e8b9ed26645404ed,18,2022-02-12_13h17.17.365,lexical_decision_task_DD_L3,2021.2.3,MacIntel,60.0024001,,,,,,,,,,,0.8776,1,,,,,,,,,,,,,,,,,,,,,,,,0.089626261,-0.283538411,0,0,0,,,,,,,PARCEL,LB,z,m,./images/PARCELLB.png,,,,,,,,,,,,,,,,,,,,,z,1,0.8776,,,,,,,,0,119,119,102,1
,,,,,,,,,,,,,,,,,60fef4e2e8b9ed26645404ed,18,2022-02-12_13h17.17.365,lexical_decision_task_DD_L3,2021.2.3,MacIntel,60.0024001,,,,,,,,,,,0.6272,1,,,,,,,,,,,,,,,,,,,,,,,,0.089626261,-0.283538411,0,0,0,,,,,,,JELLY,C,m,m,./images/JELLY.png,,,,,,,,,,,,,,,,,,,,,m,1,0.6272,,,,,,,,0,120,120,64,1
,,,,,,,,,,,,,,,,,60fef4e2e8b9ed26645404ed,18,2022-02-12_13h17.17.365,lexical_decision_task_DD_L3,2021.2.3,MacIntel,60.0024001,,,,,,,,,,,2.2433,1,,,,,,,,,,,,,,,,,,,,,,,,0.089626261,-0.283538411,0,0,0,,,,,,,BAKER,LB,z,m,./images/BAKERLB.png,,,,,,,,,,,,,,,,,,,,,z,1,2.2433,,,,,,,,0,121,121,147,1
,,,,,,,,,,,,,,,,,60fef4e2e8b9ed26645404ed,18,2022-02-12_13h17.17.365,lexical_decision_task_DD_L3,2021.2.3,MacIntel,60.0024001,,,,,,,,,,,2.4767,1,,,,,,,,,,,,,,,,,,,,,,,,0.089626261,-0.283538411,0,0,0,,,,,,,CLOWN,C,z,m,./images/CLOWN.png,,,,,,,,,,,,,,,,,,,,,z,1,2.4767,,,,,,,,0,122,122,106,1
,,,,,,,,,,,,,,,,,60fef4e2e8b9ed26645404ed,18,2022-02-12_13h17.17.365,lexical_decision_task_DD_L3,2021.2.3,MacIntel,60.0024001,,,,,,,,,,,0.8485,1,,,,,,,,,,,,,,,,,,,,,,,,0.089626261,-0.283538411,0,0,0,,,,,,,BUNNY,C,z,m,./images/BUNNY.png,,,,,,,,,,,,,,,,,,,,,z,1,0.8485,,,,,,,,0,123,123,97,1
,,,,,,,,,,,,,,,,,60fef4e2e8b9ed26645404ed,18,2022-02-12_13h17.17.365,lexical_decision_task_DD_L3,2021.2.3,MacIntel,60.0024001,,,,,,,,,,,0.8758,1,,,,,,,,,,,,,,,,,,,,,,,,0.089626261,-0.283538411,0,0,0,,,,,,,LIZARD,HB,m,m,./images/LIZARDHB.png,,,,,,,,,,,,,,,,,,,,,m,1,0.8758,,,,,,,,0,124,124,44,1
,,,,,,,,,,,,,,,,,60fef4e2e8b9ed26645404ed,18,2022-02-12_13h17.17.365,lexical_decision_task_DD_L3,2021.2.3,MacIntel,60.0024001,,,,,,,,,,,0.7431,1,,,,,,,,,,,,,,,,,,,,,,,,0.09265035,-0.261246677,0,0,0,space,,,,,,CRUST,C,m,m,./images/CRUST.png,1.4544,,,,,,,,,,,,,,,,,,,,m,1,0.7431,,,,,,,,0,125,125,79,1
,,,,,,,,,,,,,,,,,60fef4e2e8b9ed26645404ed,18,2022-02-12_13h17.17.365,lexical_decision_task_DD_L3,2021.2.3,MacIntel,60.0024001,,,,,,,,,,,1.3744,1,,,,,,,,,,,,,,,,,,,,,,,,0.09265035,-0.261246677,0,0,0,,,,,,,STORM,LB,m,m,./images/STORMLB.png,,,,,,,,,,,,,,,,,,,,,m,1,1.3744,,,,,,,,0,126,126,30,1
,,,,,,,,,,,,,,,,,60fef4e2e8b9ed26645404ed,18,2022-02-12_13h17.17.365,lexical_decision_task_DD_L3,2021.2.3,MacIntel,60.0024001,,,,,,,,,,,0.8581,1,,,,,,,,,,,,,,,,,,,,,,,,0.09265035,-0.230441216,0,0,0,,,,,,,WHISKY,HB,z,m,./images/WHISKYHB.png,,,,,,,,,,,,,,,,,,,,,z,1,0.8581,,,,,,,,0,127,127,167,1
,,,,,,,,,,,,,,,,,60fef4e2e8b9ed26645404ed,18,2022-02-12_13h17.17.365,lexical_decision_task_DD_L3,2021.2.3,MacIntel,60.0024001,,,,,,,,,,,1.4174,0,,,,,,,,,,,,,,,,,,,,,,,,0.09265035,-0.230441216,0,0,0,,,,,,,LAGOON,HB,z,m,./images/LAGOONHB.png,,,,,,,,,,,,,,,,,,,,,m,0,1.4174,,,,,,,,0,128,128,131,1
,,,,,,,,,,,,,,,,,60fef4e2e8b9ed26645404ed,18,2022-02-12_13h17.17.365,lexical_decision_task_DD_L3,2021.2.3,MacIntel,60.0024001,,,,,,,,,,,0.9796,1,,,,,,,,,,,,,,,,,,,,,,,,0.09265035,-0.230441216,0,0,0,,,,,,,GLOVE,C,z,m,./images/GLOVE.png,,,,,,,,,,,,,,,,,,,,,z,1,0.9796,,,,,,,,0,129,129,157,1
,,,,,,,,,,,,,,,,,60fef4e2e8b9ed26645404ed,18,2022-02-12_13h17.17.365,lexical_decision_task_DD_L3,2021.2.3,MacIntel,60.0024001,,,,,,,,,,,0.9936,0,,,,,,,,,,,,,,,,,,,,,,,,0.09265035,-0.230441216,0,0,0,,,,,,,MOTOR,C,m,m,./images/MOTOR.png,,,,,,,,,,,,,,,,,,,,,z,0,0.9936,,,,,,,,0,130,130,13,1
