key_resp.keys,instr_done_touch.x,instr_done_touch.y,instr_done_touch.leftButton,instr_done_touch.midButton,instr_done_touch.rightButton,instr_done_touch.clicked_name,instruction_pages.thisRepN,instruction_pages.thisTrialN,instruction_pages.thisN,instruction_pages.thisIndex,instruction_pages.ran,pageN,phase,instruct_text,has_image,instruct_image,participant,age,date,expName,psychopyVersion,OS,frameRate,response.keys,response.corr,touch_resp.x,touch_resp.y,touch_resp.leftButton,touch_resp.midButton,touch_resp.rightButton,touch_resp.time,touch_resp.clicked_name,rt,corr,practrials.thisRepN,practrials.thisTrialN,practrials.thisN,practrials.thisIndex,practrials.ran,TrialID,Target,corrAns,end_of_practice_trials_pages.thisRepN,end_of_practice_trials_pages.thisTrialN,end_of_practice_trials_pages.thisN,end_of_practice_trials_pages.thisIndex,end_of_practice_trials_pages.ran,key_resp_2.keys,key_resp_2.corr,targ_click.x,targ_click.y,targ_click.leftButton,targ_click.midButton,targ_click.rightButton,targ_click.time,targ_click.clicked_name,break_done_touch.x,break_done_touch.y,break_done_touch.leftButton,break_done_touch.midButton,break_done_touch.rightButton,break_done_keyboard.keys,maintrials.thisRepN,maintrials.thisTrialN,maintrials.thisN,maintrials.thisIndex,maintrials.ran,string,blur,study,lex,stim_path,break_done_touch.clicked_name,mouse_2.x,mouse_2.y,mouse_2.leftButton,mouse_2.midButton,mouse_2.rightButton,mouse_2.clicked_name,slider.response,slider.rt,trials.thisRepN,trials.thisTrialN,trials.thisN,trials.thisIndex,trials.ran,test_instructions.thisRepN,test_instructions.thisTrialN,test_instructions.thisN,test_instructions.thisIndex,test_instructions.ran,key_resp_3.keys,key_resp_3.corr,test_click.x,test_click.y,test_click.leftButton,test_click.midButton,test_click.rightButton,test_click.time,test_click.clicked_name,test_phase.thisRepN,test_phase.thisTrialN,test_phase.thisN,test_phase.thisIndex,test_phase.ran
,0.071428571,-0.389795918,1,0,0,instr_done_button,0,0,0,0,1,1,instructions,"INSTRUCTIONS
At the start of each trial, look at the plus sign  (+) in the center of the screen.  This tells you that a trial is about to begin and where to look. Second, the plus sign will disappear and a string of letters will appear. Your task is to determine if the string of letters is a word or not. If the item is a word press the M key (on keyboard)  or touch the word button (phone/tablet).  If the item is not a word,  press the  Z key (on keyboard)  or touch the nonword button (on phone/tablet). 
Press the space bar or touch  continue.",0,,60ff2a99571ffa508c4b516f,19,2022-02-12_17h46.35.482,lexical_decision_task_DD_L3,2021.2.3,iPhone,29.41176471,,,,,,,,,,,,,,,,,,,,,,,,,,,,,,,,,,,,,,,,,,,,,,,,,,,,,,,,,,,,,,,,,,,,,,,,,,,,,,,,,,
,0.12244898,-0.375510204,1,0,0,instr_done_button,0,1,1,1,1,2,instructions,"If your device has a keyboard, press the 'Z' key for nonwords and the 'M' key for words.





Press the space bar or touch the button below to continue.",0,keyboard-example.gif,60ff2a99571ffa508c4b516f,19,2022-02-12_17h46.35.482,lexical_decision_task_DD_L3,2021.2.3,iPhone,29.41176471,,,,,,,,,,,,,,,,,,,,,,,,,,,,,,,,,,,,,,,,,,,,,,,,,,,,,,,,,,,,,,,,,,,,,,,,,,,,,,,,,,
,0.139795918,-0.413265306,1,0,0,instr_done_button,0,2,2,2,1,3,instructions,"If you are using a touchscreen only device, use the buttons on the screen. Do not use the mouse.





Press the space bar or touch the button below to continue.",0,touchscreen-example.gif,60ff2a99571ffa508c4b516f,19,2022-02-12_17h46.35.482,lexical_decision_task_DD_L3,2021.2.3,iPhone,29.41176471,,,,,,,,,,,,,,,,,,,,,,,,,,,,,,,,,,,,,,,,,,,,,,,,,,,,,,,,,,,,,,,,,,,,,,,,,,,,,,,,,,
,0.117346939,-0.440816327,1,0,0,instr_done_button,0,3,3,3,1,4,instructions,"It is very important that you respond as quickly and accurately as possible, as each letter string will only be on the screen for two seconds. If you do not respond within this time, the message 'Too slow!' will be displayed and the experiment will progress to the next letter string. The first 20 trials will be practice trials and you will receive feedback on your answers. 

Press the space bar or touch the button below to start the practice trials.",0,,60ff2a99571ffa508c4b516f,19,2022-02-12_17h46.35.482,lexical_decision_task_DD_L3,2021.2.3,iPhone,29.41176471,,,,,,,,,,,,,,,,,,,,,,,,,,,,,,,,,,,,,,,,,,,,,,,,,,,,,,,,,,,,,,,,,,,,,,,,,,,,,,,,,,
,,,,,,,,,,,,,,,,,60ff2a99571ffa508c4b516f,19,2022-02-12_17h46.35.482,lexical_decision_task_DD_L3,2021.2.3,iPhone,29.41176471,,0,0.368367347,-0.612244898,1,0,0,1.096,button_left,1.096,1,0,0,0,12,1,1001,SPRINY,z,,,,,,,,,,,,,,,,,,,,,,,,,,,,,,,,,,,,,,,,,,,,,,,,,,,,,,,,,,,,,,,
,,,,,,,,,,,,,,,,,60ff2a99571ffa508c4b516f,19,2022-02-12_17h46.35.482,lexical_decision_task_DD_L3,2021.2.3,iPhone,29.41176471,,0,0.36122449,-0.329591837,1,0,0,1.757,button_right,1.757,1,0,1,1,0,1,1001,UTOPIA,m,,,,,,,,,,,,,,,,,,,,,,,,,,,,,,,,,,,,,,,,,,,,,,,,,,,,,,,,,,,,,,,
,,,,,,,,,,,,,,,,,60ff2a99571ffa508c4b516f,19,2022-02-12_17h46.35.482,lexical_decision_task_DD_L3,2021.2.3,iPhone,29.41176471,,0,-0.381632653,-0.279591837,1,0,0,0.868,button_left,0.868,1,0,2,2,9,1,1001,FARINY,z,,,,,,,,,,,,,,,,,,,,,,,,,,,,,,,,,,,,,,,,,,,,,,,,,,,,,,,,,,,,,,,
,,,,,,,,,,,,,,,,,60ff2a99571ffa508c4b516f,19,2022-02-12_17h46.35.482,lexical_decision_task_DD_L3,2021.2.3,iPhone,29.41176471,,0,0.356122449,-0.319387755,1,0,0,0.793,button_right,0.793,1,0,3,3,3,1,1001,MATRIX,m,,,,,,,,,,,,,,,,,,,,,,,,,,,,,,,,,,,,,,,,,,,,,,,,,,,,,,,,,,,,,,,
,,,,,,,,,,,,,,,,,60ff2a99571ffa508c4b516f,19,2022-02-12_17h46.35.482,lexical_decision_task_DD_L3,2021.2.3,iPhone,29.41176471,,0,0.348979592,-0.347959184,1,0,0,1.057,button_right,1.057,0,0,4,4,13,1,1001,ROUPET,z,,,,,,,,,,,,,,,,,,,,,,,,,,,,,,,,,,,,,,,,,,,,,,,,,,,,,,,,,,,,,,,
,,,,,,,,,,,,,,,,,60ff2a99571ffa508c4b516f,19,2022-02-12_17h46.35.482,lexical_decision_task_DD_L3,2021.2.3,iPhone,29.41176471,,0,0.344897959,-0.292857143,1,0,0,0.597,button_right,0.597,1,0,5,5,7,1,1001,VOLUME,m,,,,,,,,,,,,,,,,,,,,,,,,,,,,,,,,,,,,,,,,,,,,,,,,,,,,,,,,,,,,,,,
,,,,,,,,,,,,,,,,,60ff2a99571ffa508c4b516f,19,2022-02-12_17h46.35.482,lexical_decision_task_DD_L3,2021.2.3,iPhone,29.41176471,,0,-0.396938776,-0.330612245,1,0,0,1.095,button_left,1.095,0,0,6,6,4,1,1001,SQUEAK,m,,,,,,,,,,,,,,,,,,,,,,,,,,,,,,,,,,,,,,,,,,,,,,,,,,,,,,,,,,,,,,,
,,,,,,,,,,,,,,,,,60ff2a99571ffa508c4b516f,19,2022-02-12_17h46.35.482,lexical_decision_task_DD_L3,2021.2.3,iPhone,29.41176471,,0,0.337755102,-0.321428571,1,0,0,0.694,button_right,0.694,1,0,7,7,6,1,1001,ZOMBIE,m,,,,,,,,,,,,,,,,,,,,,,,,,,,,,,,,,,,,,,,,,,,,,,,,,,,,,,,,,,,,,,,
,,,,,,,,,,,,,,,,,60ff2a99571ffa508c4b516f,19,2022-02-12_17h46.35.482,lexical_decision_task_DD_L3,2021.2.3,iPhone,29.41176471,,0,-0.201020408,-0.353061224,1,0,0,1.237,button_left,1.237,1,0,8,8,8,1,1001,ASLERT,z,,,,,,,,,,,,,,,,,,,,,,,,,,,,,,,,,,,,,,,,,,,,,,,,,,,,,,,,,,,,,,,
,,,,,,,,,,,,,,,,,60ff2a99571ffa508c4b516f,19,2022-02-12_17h46.35.482,lexical_decision_task_DD_L3,2021.2.3,iPhone,29.41176471,,0,-0.313265306,-0.319387755,1,0,0,2.431,button_left,2.431,1,0,9,9,15,1,1001,WHAISE,z,,,,,,,,,,,,,,,,,,,,,,,,,,,,,,,,,,,,,,,,,,,,,,,,,,,,,,,,,,,,,,,
,,,,,,,,,,,,,,,,,60ff2a99571ffa508c4b516f,19,2022-02-12_17h46.35.482,lexical_decision_task_DD_L3,2021.2.3,iPhone,29.41176471,,0,0.343877551,-0.195918367,1,0,0,1.095,button_right,1.095,1,0,10,10,5,1,1001,OBTAIN,m,,,,,,,,,,,,,,,,,,,,,,,,,,,,,,,,,,,,,,,,,,,,,,,,,,,,,,,,,,,,,,,
,,,,,,,,,,,,,,,,,60ff2a99571ffa508c4b516f,19,2022-02-12_17h46.35.482,lexical_decision_task_DD_L3,2021.2.3,iPhone,29.41176471,,0,-0.328571429,-0.291836735,1,0,0,1.361,button_left,1.361,1,0,11,11,10,1,1001,INLADE,z,,,,,,,,,,,,,,,,,,,,,,,,,,,,,,,,,,,,,,,,,,,,,,,,,,,,,,,,,,,,,,,
,,,,,,,,,,,,,,,,,60ff2a99571ffa508c4b516f,19,2022-02-12_17h46.35.482,lexical_decision_task_DD_L3,2021.2.3,iPhone,29.41176471,,0,-0.328571429,-0.312244898,1,0,0,0.936,button_left,0.936,1,0,12,12,14,1,1001,THRALE,z,,,,,,,,,,,,,,,,,,,,,,,,,,,,,,,,,,,,,,,,,,,,,,,,,,,,,,,,,,,,,,,
,,,,,,,,,,,,,,,,,60ff2a99571ffa508c4b516f,19,2022-02-12_17h46.35.482,lexical_decision_task_DD_L3,2021.2.3,iPhone,29.41176471,,0,-0.267346939,-0.351020408,1,0,0,1.061,button_left,1.061,1,0,13,13,11,1,1001,RASHET,z,,,,,,,,,,,,,,,,,,,,,,,,,,,,,,,,,,,,,,,,,,,,,,,,,,,,,,,,,,,,,,,
,,,,,,,,,,,,,,,,,60ff2a99571ffa508c4b516f,19,2022-02-12_17h46.35.482,lexical_decision_task_DD_L3,2021.2.3,iPhone,29.41176471,,0,0.376530612,-0.191836735,1,0,0,0.862,button_right,0.862,1,0,14,14,2,1,1001,ALMOND,m,,,,,,,,,,,,,,,,,,,,,,,,,,,,,,,,,,,,,,,,,,,,,,,,,,,,,,,,,,,,,,,
,,,,,,,,,,,,,,,,,60ff2a99571ffa508c4b516f,19,2022-02-12_17h46.35.482,lexical_decision_task_DD_L3,2021.2.3,iPhone,29.41176471,,0,0.395918367,-0.22244898,1,0,0,0.863,button_right,0.863,1,0,15,15,1,1,1001,ADJUST,m,,,,,,,,,,,,,,,,,,,,,,,,,,,,,,,,,,,,,,,,,,,,,,,,,,,,,,,,,,,,,,,
,0.070408163,-0.419387755,1,0,0,instr_done_button,,,,,,1,end_of_practice,"You have completed the practice trials. During the experimental trials, you will not receive feedback. 
Before you begin, please ensure that you are in a comfortable and quiet location and will not be disturbed for about 15 minutes, as we cannot use your data if you do not complete all the trials. 
 When you are ready to start the experimental trials, please press space or touch the button below.",,,60ff2a99571ffa508c4b516f,19,2022-02-12_17h46.35.482,lexical_decision_task_DD_L3,2021.2.3,iPhone,29.41176471,,,,,,,,,,,,,,,,,,,,0,0,0,0,1,,,,,,,,,,,,,,,,,,,,,,,,,,,,,,,,,,,,,,,,,,,,,,,,,,,,,,,,,,
,,,,,,,,,,,,,,,,,60ff2a99571ffa508c4b516f,19,2022-02-12_17h46.35.482,lexical_decision_task_DD_L3,2021.2.3,iPhone,29.41176471,,,,,,,,,,0.889,1,,,,,,,,,,,,,,,0,0.385714286,-0.302040816,1,0,0,0.889,button_right_main,0.385714286,-0.302040816,1,0,0,,0,0,0,55,1,MUFFIN,C,old,m,./images/MUFFIN.png,,,,,,,,,,,,,,,,,,,,,,,,,,,,,,,,,
,,,,,,,,,,,,,,,,,60ff2a99571ffa508c4b516f,19,2022-02-12_17h46.35.482,lexical_decision_task_DD_L3,2021.2.3,iPhone,29.41176471,,,,,,,,,,1.972,1,,,,,,,,,,,,,,,0,-0.406122449,-0.332653061,1,0,0,1.972,button_left_main,-0.406122449,-0.332653061,1,0,0,,0,1,1,154,1,THINT,HB,old,z,./images/THINTHB.png,,,,,,,,,,,,,,,,,,,,,,,,,,,,,,,,,
,,,,,,,,,,,,,,,,,60ff2a99571ffa508c4b516f,19,2022-02-12_17h46.35.482,lexical_decision_task_DD_L3,2021.2.3,iPhone,29.41176471,,,,,,,,,,0.697,1,,,,,,,,,,,,,,,0,0.370408163,-0.303061224,1,0,0,0.697,button_right_main,0.370408163,-0.303061224,1,0,0,,0,2,2,66,1,SWEAT,LB,old,m,./images/SWEATLB.png,,,,,,,,,,,,,,,,,,,,,,,,,,,,,,,,,
,,,,,,,,,,,,,,,,,60ff2a99571ffa508c4b516f,19,2022-02-12_17h46.35.482,lexical_decision_task_DD_L3,2021.2.3,iPhone,29.41176471,,,,,,,,,,1.272,1,,,,,,,,,,,,,,,0,-0.397959184,-0.307142857,1,0,0,1.272,button_left_main,-0.397959184,-0.307142857,1,0,0,,0,3,3,118,1,BAVEL,HB,old,z,./images/BAVELHB.png,,,,,,,,,,,,,,,,,,,,,,,,,,,,,,,,,
,,,,,,,,,,,,,,,,,60ff2a99571ffa508c4b516f,19,2022-02-12_17h46.35.482,lexical_decision_task_DD_L3,2021.2.3,iPhone,29.41176471,,,,,,,,,,2.33,0,,,,,,,,,,,,,,,0,0.394897959,-0.3,1,0,0,2.33,button_right_main,0.394897959,-0.3,1,0,0,,0,4,4,94,1,BLANS,HB,old,z,./images/BLANSHB.png,,,,,,,,,,,,,,,,,,,,,,,,,,,,,,,,,
,,,,,,,,,,,,,,,,,60ff2a99571ffa508c4b516f,19,2022-02-12_17h46.35.482,lexical_decision_task_DD_L3,2021.2.3,iPhone,29.41176471,,,,,,,,,,0.765,1,,,,,,,,,,,,,,,0,0.383673469,-0.276530612,1,0,0,0.765,button_right_main,0.383673469,-0.276530612,1,0,0,,0,5,5,46,1,PEARL,C,old,m,./images/PEARL.png,,,,,,,,,,,,,,,,,,,,,,,,,,,,,,,,,
,,,,,,,,,,,,,,,,,60ff2a99571ffa508c4b516f,19,2022-02-12_17h46.35.482,lexical_decision_task_DD_L3,2021.2.3,iPhone,29.41176471,,,,,,,,,,1.229,1,,,,,,,,,,,,,,,0,-0.406122449,-0.33877551,1,0,0,1.229,button_left_main,-0.406122449,-0.33877551,1,0,0,,0,6,6,124,1,TUNCH,HB,old,z,./images/TUNCHHB.png,,,,,,,,,,,,,,,,,,,,,,,,,,,,,,,,,
,,,,,,,,,,,,,,,,,60ff2a99571ffa508c4b516f,19,2022-02-12_17h46.35.482,lexical_decision_task_DD_L3,2021.2.3,iPhone,29.41176471,,,,,,,,,,0.805,1,,,,,,,,,,,,,,,0,-0.416326531,-0.339795918,1,0,0,0.805,button_left_main,-0.416326531,-0.339795918,1,0,0,,0,7,7,89,1,DRIEK,LB,old,z,./images/DRIEKLB.png,,,,,,,,,,,,,,,,,,,,,,,,,,,,,,,,,
,,,,,,,,,,,,,,,,,60ff2a99571ffa508c4b516f,19,2022-02-12_17h46.35.482,lexical_decision_task_DD_L3,2021.2.3,iPhone,29.41176471,,,,,,,,,,0.832,1,,,,,,,,,,,,,,,0,-0.412244898,-0.298979592,1,0,0,0.832,button_left_main,-0.412244898,-0.298979592,1,0,0,,0,8,8,126,1,GUELS,C,old,z,./images/GUELS.png,,,,,,,,,,,,,,,,,,,,,,,,,,,,,,,,,
,,,,,,,,,,,,,,,,,60ff2a99571ffa508c4b516f,19,2022-02-12_17h46.35.482,lexical_decision_task_DD_L3,2021.2.3,iPhone,29.41176471,,,,,,,,,,0.897,1,,,,,,,,,,,,,,,0,-0.416326531,-0.358163265,1,0,0,0.897,button_left_main,-0.416326531,-0.358163265,1,0,0,,0,9,9,155,1,CANGY,LB,old,z,./images/CANGYLB.png,,,,,,,,,,,,,,,,,,,,,,,,,,,,,,,,,
,,,,,,,,,,,,,,,,,60ff2a99571ffa508c4b516f,19,2022-02-12_17h46.35.482,lexical_decision_task_DD_L3,2021.2.3,iPhone,29.41176471,,,,,,,,,,0.839,1,,,,,,,,,,,,,,,0,-0.405102041,-0.330612245,1,0,0,0.839,button_left_main,-0.405102041,-0.330612245,1,0,0,,0,10,10,137,1,JOOST,LB,old,z,./images/JOOSTLB.png,,,,,,,,,,,,,,,,,,,,,,,,,,,,,,,,,
,,,,,,,,,,,,,,,,,60ff2a99571ffa508c4b516f,19,2022-02-12_17h46.35.482,lexical_decision_task_DD_L3,2021.2.3,iPhone,29.41176471,,,,,,,,,,0.664,1,,,,,,,,,,,,,,,0,0.360204082,-0.347959184,1,0,0,0.664,button_right_main,0.360204082,-0.347959184,1,0,0,,0,11,11,3,1,FINGER,LB,old,m,./images/FINGERLB.png,,,,,,,,,,,,,,,,,,,,,,,,,,,,,,,,,
,,,,,,,,,,,,,,,,,60ff2a99571ffa508c4b516f,19,2022-02-12_17h46.35.482,lexical_decision_task_DD_L3,2021.2.3,iPhone,29.41176471,,,,,,,,,,0.871,1,,,,,,,,,,,,,,,0,-0.405102041,-0.308163265,1,0,0,0.871,button_left_main,-0.405102041,-0.308163265,1,0,0,,0,12,12,149,1,VEASE,LB,old,z,./images/VEASELB.png,,,,,,,,,,,,,,,,,,,,,,,,,,,,,,,,,
,,,,,,,,,,,,,,,,,60ff2a99571ffa508c4b516f,19,2022-02-12_17h46.35.482,lexical_decision_task_DD_L3,2021.2.3,iPhone,29.41176471,,,,,,,,,,1.266,1,,,,,,,,,,,,,,,0,-0.404081633,-0.323469388,1,0,0,1.266,button_left_main,-0.404081633,-0.323469388,1,0,0,,0,13,13,134,1,TROSS,LB,old,z,./images/TROSSLB.png,,,,,,,,,,,,,,,,,,,,,,,,,,,,,,,,,
,,,,,,,,,,,,,,,,,60ff2a99571ffa508c4b516f,19,2022-02-12_17h46.35.482,lexical_decision_task_DD_L3,2021.2.3,iPhone,29.41176471,,,,,,,,,,0.832,1,,,,,,,,,,,,,,,0,0.398979592,-0.314285714,1,0,0,0.832,button_right_main,0.398979592,-0.314285714,1,0,0,,0,14,14,5,1,PASTA,HB,old,m,./images/PASTAHB.png,,,,,,,,,,,,,,,,,,,,,,,,,,,,,,,,,
,,,,,,,,,,,,,,,,,60ff2a99571ffa508c4b516f,19,2022-02-12_17h46.35.482,lexical_decision_task_DD_L3,2021.2.3,iPhone,29.41176471,,,,,,,,,,1.5,1,,,,,,,,,,,,,,,0,0.402040816,-0.329591837,1,0,0,1.5,button_right_main,0.402040816,-0.329591837,1,0,0,,0,15,15,0,1,TOMATO,LB,old,m,./images/TOMATOLB.png,,,,,,,,,,,,,,,,,,,,,,,,,,,,,,,,,
,,,,,,,,,,,,,,,,,60ff2a99571ffa508c4b516f,19,2022-02-12_17h46.35.482,lexical_decision_task_DD_L3,2021.2.3,iPhone,29.41176471,,,,,,,,,,0.797,1,,,,,,,,,,,,,,,0,-0.413265306,-0.326530612,1,0,0,0.797,button_left_main,-0.413265306,-0.326530612,1,0,0,,0,16,16,92,1,PAIMS,LB,old,z,./images/PAIMSLB.png,,,,,,,,,,,,,,,,,,,,,,,,,,,,,,,,,
,,,,,,,,,,,,,,,,,60ff2a99571ffa508c4b516f,19,2022-02-12_17h46.35.482,lexical_decision_task_DD_L3,2021.2.3,iPhone,29.41176471,,,,,,,,,,0.763,1,,,,,,,,,,,,,,,0,0.368367347,-0.298979592,1,0,0,0.763,button_right_main,0.368367347,-0.298979592,1,0,0,,0,17,17,24,1,SCREW,LB,old,m,./images/SCREWLB.png,,,,,,,,,,,,,,,,,,,,,,,,,,,,,,,,,
,,,,,,,,,,,,,,,,,60ff2a99571ffa508c4b516f,19,2022-02-12_17h46.35.482,lexical_decision_task_DD_L3,2021.2.3,iPhone,29.41176471,,,,,,,,,,0.663,1,,,,,,,,,,,,,,,0,-0.419387755,-0.347959184,1,0,0,0.663,button_left_main,-0.419387755,-0.347959184,1,0,0,,0,18,18,96,1,KEAMS,C,old,z,./images/KEAMS.png,,,,,,,,,,,,,,,,,,,,,,,,,,,,,,,,,
,,,,,,,,,,,,,,,,,60ff2a99571ffa508c4b516f,19,2022-02-12_17h46.35.482,lexical_decision_task_DD_L3,2021.2.3,iPhone,29.41176471,,,,,,,,,,1.266,1,,,,,,,,,,,,,,,0,-0.407142857,-0.318367347,1,0,0,1.266,button_left_main,-0.407142857,-0.318367347,1,0,0,,0,19,19,142,1,PLASK,HB,old,z,./images/PLASKHB.png,,,,,,,,,,,,,,,,,,,,,,,,,,,,,,,,,
,,,,,,,,,,,,,,,,,60ff2a99571ffa508c4b516f,19,2022-02-12_17h46.35.482,lexical_decision_task_DD_L3,2021.2.3,iPhone,29.41176471,,,,,,,,,,1.33,1,,,,,,,,,,,,,,,0,0.384693878,-0.303061224,1,0,0,1.33,button_right_main,0.384693878,-0.303061224,1,0,0,,0,20,20,1,1,PLANK,C,old,m,./images/PLANK.png,,,,,,,,,,,,,,,,,,,,,,,,,,,,,,,,,
,,,,,,,,,,,,,,,,,60ff2a99571ffa508c4b516f,19,2022-02-12_17h46.35.482,lexical_decision_task_DD_L3,2021.2.3,iPhone,29.41176471,,,,,,,,,,0.897,1,,,,,,,,,,,,,,,0,-0.428571429,-0.306122449,1,0,0,0.897,button_left_main,-0.428571429,-0.306122449,1,0,0,,0,21,21,125,1,MOOKY,LB,old,z,./images/MOOKYLB.png,,,,,,,,,,,,,,,,,,,,,,,,,,,,,,,,,
,,,,,,,,,,,,,,,,,60ff2a99571ffa508c4b516f,19,2022-02-12_17h46.35.482,lexical_decision_task_DD_L3,2021.2.3,iPhone,29.41176471,,,,,,,,,,1.205,1,,,,,,,,,,,,,,,0,-0.385714286,-0.316326531,1,0,0,1.205,button_left_main,-0.385714286,-0.316326531,1,0,0,,0,22,22,162,1,LEICH,C,old,z,./images/LEICH.png,,,,,,,,,,,,,,,,,,,,,,,,,,,,,,,,,
,,,,,,,,,,,,,,,,,60ff2a99571ffa508c4b516f,19,2022-02-12_17h46.35.482,lexical_decision_task_DD_L3,2021.2.3,iPhone,29.41176471,,,,,,,,,,0.734,1,,,,,,,,,,,,,,,0,-0.412244898,-0.314285714,1,0,0,0.734,button_left_main,-0.412244898,-0.314285714,1,0,0,,0,23,23,131,1,NACES,LB,old,z,./images/NACESLB.png,,,,,,,,,,,,,,,,,,,,,,,,,,,,,,,,,
,,,,,,,,,,,,,,,,,60ff2a99571ffa508c4b516f,19,2022-02-12_17h46.35.482,lexical_decision_task_DD_L3,2021.2.3,iPhone,29.41176471,,,,,,,,,,0.763,1,,,,,,,,,,,,,,,0,-0.407142857,-0.3,1,0,0,0.763,button_left_main,-0.407142857,-0.3,1,0,0,,0,24,24,90,1,NEAST,C,old,z,./images/NEAST.png,,,,,,,,,,,,,,,,,,,,,,,,,,,,,,,,,
,,,,,,,,,,,,,,,,,60ff2a99571ffa508c4b516f,19,2022-02-12_17h46.35.482,lexical_decision_task_DD_L3,2021.2.3,iPhone,29.41176471,,,,,,,,,,0.503,0,,,,,,,,,,,,,,,0,-0.403061224,-0.310204082,1,0,0,0.503,button_left_main,-0.403061224,-0.310204082,1,0,0,,0,25,25,31,1,QUILL,C,old,m,./images/QUILL.png,,,,,,,,,,,,,,,,,,,,,,,,,,,,,,,,,
,,,,,,,,,,,,,,,,,60ff2a99571ffa508c4b516f,19,2022-02-12_17h46.35.482,lexical_decision_task_DD_L3,2021.2.3,iPhone,29.41176471,,,,,,,,,,1.299,1,,,,,,,,,,,,,,,0,0.37244898,-0.319387755,1,0,0,1.299,button_right_main,0.37244898,-0.319387755,1,0,0,,0,26,26,77,1,COUCH,HB,old,m,./images/COUCHHB.png,,,,,,,,,,,,,,,,,,,,,,,,,,,,,,,,,
,,,,,,,,,,,,,,,,,60ff2a99571ffa508c4b516f,19,2022-02-12_17h46.35.482,lexical_decision_task_DD_L3,2021.2.3,iPhone,29.41176471,,,,,,,,,,0.732,1,,,,,,,,,,,,,,,0,0.424489796,-0.38877551,1,0,0,0.732,button_right_main,0.424489796,-0.38877551,1,0,0,,0,27,27,51,1,ONION,LB,old,m,./images/ONIONLB.png,,,,,,,,,,,,,,,,,,,,,,,,,,,,,,,,,
,,,,,,,,,,,,,,,,,60ff2a99571ffa508c4b516f,19,2022-02-12_17h46.35.482,lexical_decision_task_DD_L3,2021.2.3,iPhone,29.41176471,,,,,,,,,,0.863,1,,,,,,,,,,,,,,,0,0.384693878,-0.302040816,1,0,0,0.863,button_right_main,0.384693878,-0.302040816,1,0,0,,0,28,28,69,1,COOKER,LB,old,m,./images/COOKERLB.png,,,,,,,,,,,,,,,,,,,,,,,,,,,,,,,,,
,,,,,,,,,,,,,,,,,60ff2a99571ffa508c4b516f,19,2022-02-12_17h46.35.482,lexical_decision_task_DD_L3,2021.2.3,iPhone,29.41176471,,,,,,,,,,0.731,1,,,,,,,,,,,,,,,0,-0.373469388,-0.290816327,1,0,0,0.731,button_left_main,-0.373469388,-0.290816327,1,0,0,,0,29,29,86,1,AIFED,LB,old,z,./images/AIFEDLB.png,,,,,,,,,,,,,,,,,,,,,,,,,,,,,,,,,
,,,,,,,,,,,,,,,,,60ff2a99571ffa508c4b516f,19,2022-02-12_17h46.35.482,lexical_decision_task_DD_L3,2021.2.3,iPhone,29.41176471,,,,,,,,,,1.03,1,,,,,,,,,,,,,,,0,-0.41122449,-0.366326531,1,0,0,1.03,button_left_main,-0.41122449,-0.366326531,1,0,0,,0,30,30,150,1,NOOLS,C,old,z,./images/NOOLS.png,,,,,,,,,,,,,,,,,,,,,,,,,,,,,,,,,
,,,,,,,,,,,,,,,,,60ff2a99571ffa508c4b516f,19,2022-02-12_17h46.35.482,lexical_decision_task_DD_L3,2021.2.3,iPhone,29.41176471,,,,,,,,,,1.007,1,,,,,,,,,,,,,,,0,0.390816327,-0.315306122,1,0,0,1.007,button_right_main,0.390816327,-0.315306122,1,0,0,,0,31,31,76,1,INFANT,C,old,m,./images/INFANT.png,,,,,,,,,,,,,,,,,,,,,,,,,,,,,,,,,
,,,,,,,,,,,,,,,,,60ff2a99571ffa508c4b516f,19,2022-02-12_17h46.35.482,lexical_decision_task_DD_L3,2021.2.3,iPhone,29.41176471,,,,,,,,,,1.097,1,,,,,,,,,,,,,,,0,0.376530612,-0.27244898,1,0,0,1.097,button_right_main,0.376530612,-0.27244898,1,0,0,,0,32,32,16,1,PENCE,C,old,m,./images/PENCE.png,,,,,,,,,,,,,,,,,,,,,,,,,,,,,,,,,
,,,,,,,,,,,,,,,,,60ff2a99571ffa508c4b516f,19,2022-02-12_17h46.35.482,lexical_decision_task_DD_L3,2021.2.3,iPhone,29.41176471,,,,,,,,,,0.962,1,,,,,,,,,,,,,,,0,0.366326531,-0.286734694,1,0,0,0.962,button_right_main,0.366326531,-0.286734694,1,0,0,,0,33,33,68,1,TORCH,HB,old,m,./images/TORCHHB.png,,,,,,,,,,,,,,,,,,,,,,,,,,,,,,,,,
,,,,,,,,,,,,,,,,,60ff2a99571ffa508c4b516f,19,2022-02-12_17h46.35.482,lexical_decision_task_DD_L3,2021.2.3,iPhone,29.41176471,,,,,,,,,,1.708,1,,,,,,,,,,,,,,,0,0.391836735,-0.287755102,1,0,0,1.708,button_right_main,0.391836735,-0.287755102,1,0,0,,0,34,34,8,1,TULIP,HB,old,m,./images/TULIPHB.png,,,,,,,,,,,,,,,,,,,,,,,,,,,,,,,,,
,,,,,,,,,,,,,,,,,60ff2a99571ffa508c4b516f,19,2022-02-12_17h46.35.482,lexical_decision_task_DD_L3,2021.2.3,iPhone,29.41176471,,,,,,,,,,1.339,0,,,,,,,,,,,,,,,0,0.402040816,-0.314285714,1,0,0,1.339,button_right_main,0.402040816,-0.314285714,1,0,0,,0,35,35,140,1,DOVET,LB,old,z,./images/DOVETLB.png,,,,,,,,,,,,,,,,,,,,,,,,,,,,,,,,,
,,,,,,,,,,,,,,,,,60ff2a99571ffa508c4b516f,19,2022-02-12_17h46.35.482,lexical_decision_task_DD_L3,2021.2.3,iPhone,29.41176471,,,,,,,,,,0.901,1,,,,,,,,,,,,,,,0,-0.42755102,-0.343877551,1,0,0,0.901,button_left_main,-0.42755102,-0.343877551,1,0,0,,0,36,36,165,1,TROWN,C,old,z,./images/TROWN.png,,,,,,,,,,,,,,,,,,,,,,,,,,,,,,,,,
,,,,,,,,,,,,,,,,,60ff2a99571ffa508c4b516f,19,2022-02-12_17h46.35.482,lexical_decision_task_DD_L3,2021.2.3,iPhone,29.41176471,,,,,,,,,,1.138,1,,,,,,,,,,,,,,,0,-0.4,-0.309183673,1,0,0,1.138,button_left_main,-0.4,-0.309183673,1,0,0,,0,37,37,151,1,TINKY,HB,old,z,./images/TINKYHB.png,,,,,,,,,,,,,,,,,,,,,,,,,,,,,,,,,
,,,,,,,,,,,,,,,,,60ff2a99571ffa508c4b516f,19,2022-02-12_17h46.35.482,lexical_decision_task_DD_L3,2021.2.3,iPhone,29.41176471,,,,,,,,,,0.865,1,,,,,,,,,,,,,,,0,0.378571429,-0.340816327,1,0,0,0.865,button_right_main,0.378571429,-0.340816327,1,0,0,,0,38,38,12,1,SHORE,LB,old,m,./images/SHORELB.png,,,,,,,,,,,,,,,,,,,,,,,,,,,,,,,,,
,,,,,,,,,,,,,,,,,60ff2a99571ffa508c4b516f,19,2022-02-12_17h46.35.482,lexical_decision_task_DD_L3,2021.2.3,iPhone,29.41176471,,,,,,,,,,1.266,1,,,,,,,,,,,,,,,0,0.369387755,-0.321428571,1,0,0,1.266,button_right_main,0.369387755,-0.321428571,1,0,0,,0,39,39,75,1,GRAIN,LB,old,m,./images/GRAINLB.png,,,,,,,,,,,,,,,,,,,,,,,,,,,,,,,,,
,,,,,,,,,,,,,,,,,60ff2a99571ffa508c4b516f,19,2022-02-12_17h46.35.482,lexical_decision_task_DD_L3,2021.2.3,iPhone,29.41176471,,,,,,,,,,1.606,1,,,,,,,,,,,,,,,0,0.418367347,-0.310204082,1,0,0,1.606,button_right_main,0.418367347,-0.310204082,1,0,0,,0,40,40,38,1,LADDER,HB,old,m,./images/LADDERHB.png,,,,,,,,,,,,,,,,,,,,,,,,,,,,,,,,,
,,,,,,,,,,,,,,,,,60ff2a99571ffa508c4b516f,19,2022-02-12_17h46.35.482,lexical_decision_task_DD_L3,2021.2.3,iPhone,29.41176471,,,,,,,,,,1.264,1,,,,,,,,,,,,,,,0,0.406122449,-0.320408163,1,0,0,1.264,button_right_main,0.076530612,-0.393877551,1,0,0,,0,41,41,28,1,FALCON,C,old,m,./images/FALCON.png,break_done_button,,,,,,,,,,,,,,,,,,,,,,,,,,,,,,,,
,,,,,,,,,,,,,,,,,60ff2a99571ffa508c4b516f,19,2022-02-12_17h46.35.482,lexical_decision_task_DD_L3,2021.2.3,iPhone,29.41176471,,,,,,,,,,1.197,1,,,,,,,,,,,,,,,0,0.405102041,-0.275510204,1,0,0,1.197,button_right_main,0.405102041,-0.275510204,1,0,0,,0,42,42,70,1,URINE,C,old,m,./images/URINE.png,,,,,,,,,,,,,,,,,,,,,,,,,,,,,,,,,
,,,,,,,,,,,,,,,,,60ff2a99571ffa508c4b516f,19,2022-02-12_17h46.35.482,lexical_decision_task_DD_L3,2021.2.3,iPhone,29.41176471,,,,,,,,,,0.699,1,,,,,,,,,,,,,,,0,0.381632653,-0.3,1,0,0,0.699,button_right_main,0.381632653,-0.3,1,0,0,,0,43,43,42,1,FOLDER,LB,old,m,./images/FOLDERLB.png,,,,,,,,,,,,,,,,,,,,,,,,,,,,,,,,,
,,,,,,,,,,,,,,,,,60ff2a99571ffa508c4b516f,19,2022-02-12_17h46.35.482,lexical_decision_task_DD_L3,2021.2.3,iPhone,29.41176471,,,,,,,,,,0.962,1,,,,,,,,,,,,,,,0,-0.392857143,-0.319387755,1,0,0,0.962,button_left_main,-0.392857143,-0.319387755,1,0,0,,0,44,44,120,1,RINED,C,old,z,./images/RINED.png,,,,,,,,,,,,,,,,,,,,,,,,,,,,,,,,,
,,,,,,,,,,,,,,,,,60ff2a99571ffa508c4b516f,19,2022-02-12_17h46.35.482,lexical_decision_task_DD_L3,2021.2.3,iPhone,29.41176471,,,,,,,,,,1.263,1,,,,,,,,,,,,,,,0,-0.393877551,-0.285714286,1,0,0,1.263,button_left_main,-0.393877551,-0.285714286,1,0,0,,0,45,45,87,1,TRING,C,old,z,./images/TRING.png,,,,,,,,,,,,,,,,,,,,,,,,,,,,,,,,,
,,,,,,,,,,,,,,,,,60ff2a99571ffa508c4b516f,19,2022-02-12_17h46.35.482,lexical_decision_task_DD_L3,2021.2.3,iPhone,29.41176471,,,,,,,,,,1.532,1,,,,,,,,,,,,,,,0,-0.396938776,-0.283673469,1,0,0,1.532,button_left_main,-0.396938776,-0.283673469,1,0,0,,0,46,46,95,1,HANTY,LB,old,z,./images/HANTYLB.png,,,,,,,,,,,,,,,,,,,,,,,,,,,,,,,,,
,,,,,,,,,,,,,,,,,60ff2a99571ffa508c4b516f,19,2022-02-12_17h46.35.482,lexical_decision_task_DD_L3,2021.2.3,iPhone,29.41176471,,,,,,,,,,2.531,1,,,,,,,,,,,,,,,0,-0.393877551,-0.302040816,1,0,0,2.531,button_left_main,-0.393877551,-0.302040816,1,0,0,,0,47,47,117,1,STEEG,C,old,z,./images/STEEG.png,,,,,,,,,,,,,,,,,,,,,,,,,,,,,,,,,
,,,,,,,,,,,,,,,,,60ff2a99571ffa508c4b516f,19,2022-02-12_17h46.35.482,lexical_decision_task_DD_L3,2021.2.3,iPhone,29.41176471,,,,,,,,,,1.073,1,,,,,,,,,,,,,,,0,-0.404081633,-0.308163265,1,0,0,1.073,button_left_main,-0.404081633,-0.308163265,1,0,0,,0,48,48,153,1,CLUPS,C,old,z,./images/CLUPS.png,,,,,,,,,,,,,,,,,,,,,,,,,,,,,,,,,
,,,,,,,,,,,,,,,,,60ff2a99571ffa508c4b516f,19,2022-02-12_17h46.35.482,lexical_decision_task_DD_L3,2021.2.3,iPhone,29.41176471,,,,,,,,,,0.929,1,,,,,,,,,,,,,,,0,0.380612245,-0.310204082,1,0,0,0.929,button_right_main,0.380612245,-0.310204082,1,0,0,,0,49,49,44,1,LIZARD,HB,old,m,./images/LIZARDHB.png,,,,,,,,,,,,,,,,,,,,,,,,,,,,,,,,,
,,,,,,,,,,,,,,,,,60ff2a99571ffa508c4b516f,19,2022-02-12_17h46.35.482,lexical_decision_task_DD_L3,2021.2.3,iPhone,29.41176471,,,,,,,,,,0.742,1,,,,,,,,,,,,,,,0,0.387755102,-0.295918367,1,0,0,0.742,button_right_main,0.387755102,-0.295918367,1,0,0,,0,50,50,22,1,MELON,C,old,m,./images/MELON.png,,,,,,,,,,,,,,,,,,,,,,,,,,,,,,,,,
,,,,,,,,,,,,,,,,,60ff2a99571ffa508c4b516f,19,2022-02-12_17h46.35.482,lexical_decision_task_DD_L3,2021.2.3,iPhone,29.41176471,,,,,,,,,,0.829,1,,,,,,,,,,,,,,,0,0.37755102,-0.310204082,1,0,0,0.829,button_right_main,0.37755102,-0.310204082,1,0,0,,0,51,51,61,1,CANDLE,C,old,m,./images/CANDLE.png,,,,,,,,,,,,,,,,,,,,,,,,,,,,,,,,,
,,,,,,,,,,,,,,,,,60ff2a99571ffa508c4b516f,19,2022-02-12_17h46.35.482,lexical_decision_task_DD_L3,2021.2.3,iPhone,29.41176471,,,,,,,,,,0.81,1,,,,,,,,,,,,,,,0,0.4,-0.310204082,1,0,0,0.81,button_right_main,0.4,-0.310204082,1,0,0,,0,52,52,7,1,PAINT,C,old,m,./images/PAINT.png,,,,,,,,,,,,,,,,,,,,,,,,,,,,,,,,,
,,,,,,,,,,,,,,,,,60ff2a99571ffa508c4b516f,19,2022-02-12_17h46.35.482,lexical_decision_task_DD_L3,2021.2.3,iPhone,29.41176471,,,,,,,,,,0.799,1,,,,,,,,,,,,,,,0,0.375510204,-0.3,1,0,0,0.799,button_right_main,0.375510204,-0.3,1,0,0,,0,53,53,10,1,BELLY,C,old,m,./images/BELLY.png,,,,,,,,,,,,,,,,,,,,,,,,,,,,,,,,,
,,,,,,,,,,,,,,,,,60ff2a99571ffa508c4b516f,19,2022-02-12_17h46.35.482,lexical_decision_task_DD_L3,2021.2.3,iPhone,29.41176471,,,,,,,,,,2.63,1,,,,,,,,,,,,,,,0,-0.414285714,-0.313265306,1,0,0,2.63,button_left_main,-0.414285714,-0.313265306,1,0,0,,0,54,54,130,1,CRILL,HB,old,z,./images/CRILLHB.png,,,,,,,,,,,,,,,,,,,,,,,,,,,,,,,,,
,,,,,,,,,,,,,,,,,60ff2a99571ffa508c4b516f,19,2022-02-12_17h46.35.482,lexical_decision_task_DD_L3,2021.2.3,iPhone,29.41176471,,,,,,,,,,1.434,1,,,,,,,,,,,,,,,0,0.380612245,-0.302040816,1,0,0,1.434,button_right_main,0.380612245,-0.302040816,1,0,0,,0,55,55,62,1,PURSE,HB,old,m,./images/PURSEHB.png,,,,,,,,,,,,,,,,,,,,,,,,,,,,,,,,,
,,,,,,,,,,,,,,,,,60ff2a99571ffa508c4b516f,19,2022-02-12_17h46.35.482,lexical_decision_task_DD_L3,2021.2.3,iPhone,29.41176471,,,,,,,,,,1.899,1,,,,,,,,,,,,,,,0,-0.397959184,-0.332653061,1,0,0,1.899,button_left_main,-0.397959184,-0.332653061,1,0,0,,0,56,56,157,1,INLER,HB,old,z,./images/INLERHB.png,,,,,,,,,,,,,,,,,,,,,,,,,,,,,,,,,
,,,,,,,,,,,,,,,,,60ff2a99571ffa508c4b516f,19,2022-02-12_17h46.35.482,lexical_decision_task_DD_L3,2021.2.3,iPhone,29.41176471,,,,,,,,,,1.406,1,,,,,,,,,,,,,,,0,-0.407142857,-0.333673469,1,0,0,1.406,button_left_main,-0.407142857,-0.333673469,1,0,0,,0,57,57,133,1,POWDY,HB,old,z,./images/POWDYHB.png,,,,,,,,,,,,,,,,,,,,,,,,,,,,,,,,,
,,,,,,,,,,,,,,,,,60ff2a99571ffa508c4b516f,19,2022-02-12_17h46.35.482,lexical_decision_task_DD_L3,2021.2.3,iPhone,29.41176471,,,,,,,,,,2.032,0,,,,,,,,,,,,,,,0,0.363265306,-0.341836735,1,0,0,2.032,button_right_main,0.363265306,-0.341836735,1,0,0,,0,58,58,106,1,CLUMS,HB,old,z,./images/CLUMSHB.png,,,,,,,,,,,,,,,,,,,,,,,,,,,,,,,,,
,,,,,,,,,,,,,,,,,60ff2a99571ffa508c4b516f,19,2022-02-12_17h46.35.482,lexical_decision_task_DD_L3,2021.2.3,iPhone,29.41176471,,,,,,,,,,0.998,1,,,,,,,,,,,,,,,0,0.374489796,-0.332653061,1,0,0,0.998,button_right_main,0.374489796,-0.332653061,1,0,0,,0,59,59,58,1,BABOON,C,old,m,./images/BABOON.png,,,,,,,,,,,,,,,,,,,,,,,,,,,,,,,,,
,,,,,,,,,,,,,,,,,60ff2a99571ffa508c4b516f,19,2022-02-12_17h46.35.482,lexical_decision_task_DD_L3,2021.2.3,iPhone,29.41176471,,,,,,,,,,0.829,1,,,,,,,,,,,,,,,0,0.38877551,-0.315306122,1,0,0,0.829,button_right_main,0.38877551,-0.315306122,1,0,0,,0,60,60,57,1,MOOSE,LB,old,m,./images/MOOSELB.png,,,,,,,,,,,,,,,,,,,,,,,,,,,,,,,,,
,,,,,,,,,,,,,,,,,60ff2a99571ffa508c4b516f,19,2022-02-12_17h46.35.482,lexical_decision_task_DD_L3,2021.2.3,iPhone,29.41176471,,,,,,,,,,1.671,1,,,,,,,,,,,,,,,0,-0.401020408,-0.324489796,1,0,0,1.671,button_left_main,-0.401020408,-0.324489796,1,0,0,,0,61,61,107,1,FASKS,LB,old,z,./images/FASKSLB.png,,,,,,,,,,,,,,,,,,,,,,,,,,,,,,,,,
,,,,,,,,,,,,,,,,,60ff2a99571ffa508c4b516f,19,2022-02-12_17h46.35.482,lexical_decision_task_DD_L3,2021.2.3,iPhone,29.41176471,,,,,,,,,,1.564,1,,,,,,,,,,,,,,,0,-0.4,-0.336734694,1,0,0,1.564,button_left_main,-0.4,-0.336734694,1,0,0,,0,62,62,84,1,HAXES,C,old,z,./images/HAXES.png,,,,,,,,,,,,,,,,,,,,,,,,,,,,,,,,,
,,,,,,,,,,,,,,,,,60ff2a99571ffa508c4b516f,19,2022-02-12_17h46.35.482,lexical_decision_task_DD_L3,2021.2.3,iPhone,29.41176471,,,,,,,,,,1.066,1,,,,,,,,,,,,,,,0,-0.409183673,-0.293877551,1,0,0,1.066,button_left_main,-0.409183673,-0.293877551,1,0,0,,0,63,63,148,1,JOMS,HB,old,z,./images/JOMSHB.png,,,,,,,,,,,,,,,,,,,,,,,,,,,,,,,,,
,,,,,,,,,,,,,,,,,60ff2a99571ffa508c4b516f,19,2022-02-12_17h46.35.482,lexical_decision_task_DD_L3,2021.2.3,iPhone,29.41176471,,,,,,,,,,0.939,1,,,,,,,,,,,,,,,0,-0.405102041,-0.313265306,1,0,0,0.939,button_left_main,-0.405102041,-0.313265306,1,0,0,,0,64,64,146,1,MOOST,LB,old,z,./images/MOOSTLB.png,,,,,,,,,,,,,,,,,,,,,,,,,,,,,,,,,
,,,,,,,,,,,,,,,,,60ff2a99571ffa508c4b516f,19,2022-02-12_17h46.35.482,lexical_decision_task_DD_L3,2021.2.3,iPhone,29.41176471,,,,,,,,,,2.162,1,,,,,,,,,,,,,,,0,-0.420408163,-0.279591837,1,0,0,2.162,button_left_main,-0.420408163,-0.279591837,1,0,0,,0,65,65,166,1,SHORY,HB,old,z,./images/SHORYHB.png,,,,,,,,,,,,,,,,,,,,,,,,,,,,,,,,,
,,,,,,,,,,,,,,,,,60ff2a99571ffa508c4b516f,19,2022-02-12_17h46.35.482,lexical_decision_task_DD_L3,2021.2.3,iPhone,29.41176471,,,,,,,,,,1.066,1,,,,,,,,,,,,,,,0,-0.418367347,-0.309183673,1,0,0,1.066,button_left_main,-0.418367347,-0.309183673,1,0,0,,0,66,66,111,1,HOSSE,C,old,z,./images/HOSSE.png,,,,,,,,,,,,,,,,,,,,,,,,,,,,,,,,,
,,,,,,,,,,,,,,,,,60ff2a99571ffa508c4b516f,19,2022-02-12_17h46.35.482,lexical_decision_task_DD_L3,2021.2.3,iPhone,29.41176471,,,,,,,,,,1.465,1,,,,,,,,,,,,,,,0,-0.401020408,-0.298979592,1,0,0,1.465,button_left_main,-0.401020408,-0.298979592,1,0,0,,0,67,67,136,1,WERVE,HB,old,z,./images/WERVEHB.png,,,,,,,,,,,,,,,,,,,,,,,,,,,,,,,,,
,,,,,,,,,,,,,,,,,60ff2a99571ffa508c4b516f,19,2022-02-12_17h46.35.482,lexical_decision_task_DD_L3,2021.2.3,iPhone,29.41176471,,,,,,,,,,1.663,1,,,,,,,,,,,,,,,0,-0.401020408,-0.324489796,1,0,0,1.663,button_left_main,-0.401020408,-0.324489796,1,0,0,,0,68,68,112,1,MYING,HB,old,z,./images/MYINGHB.png,,,,,,,,,,,,,,,,,,,,,,,,,,,,,,,,,
,,,,,,,,,,,,,,,,,60ff2a99571ffa508c4b516f,19,2022-02-12_17h46.35.482,lexical_decision_task_DD_L3,2021.2.3,iPhone,29.41176471,,,,,,,,,,0.695,1,,,,,,,,,,,,,,,0,-0.408163265,-0.263265306,1,0,0,0.695,button_left_main,-0.408163265,-0.263265306,1,0,0,,0,69,69,156,1,HIXES,C,old,z,./images/HIXES.png,,,,,,,,,,,,,,,,,,,,,,,,,,,,,,,,,
,,,,,,,,,,,,,,,,,60ff2a99571ffa508c4b516f,19,2022-02-12_17h46.35.482,lexical_decision_task_DD_L3,2021.2.3,iPhone,29.41176471,,,,,,,,,,0.732,1,,,,,,,,,,,,,,,0,0.37244898,-0.331632653,1,0,0,0.732,button_right_main,0.37244898,-0.331632653,1,0,0,,0,70,70,6,1,SQUARE,LB,old,m,./images/SQUARELB.png,,,,,,,,,,,,,,,,,,,,,,,,,,,,,,,,,
,,,,,,,,,,,,,,,,,60ff2a99571ffa508c4b516f,19,2022-02-12_17h46.35.482,lexical_decision_task_DD_L3,2021.2.3,iPhone,29.41176471,,,,,,,,,,0.698,1,,,,,,,,,,,,,,,0,-0.412244898,-0.304081633,1,0,0,0.698,button_left_main,-0.412244898,-0.304081633,1,0,0,,0,71,71,164,1,SGREW,LB,old,z,./images/SGREWLB.png,,,,,,,,,,,,,,,,,,,,,,,,,,,,,,,,,
,,,,,,,,,,,,,,,,,60ff2a99571ffa508c4b516f,19,2022-02-12_17h46.35.482,lexical_decision_task_DD_L3,2021.2.3,iPhone,29.41176471,,,,,,,,,,1.405,1,,,,,,,,,,,,,,,0,-0.405102041,-0.329591837,1,0,0,1.405,button_left_main,-0.405102041,-0.329591837,1,0,0,,0,72,72,128,1,GRIFT,LB,old,z,./images/GRIFTLB.png,,,,,,,,,,,,,,,,,,,,,,,,,,,,,,,,,
,,,,,,,,,,,,,,,,,60ff2a99571ffa508c4b516f,19,2022-02-12_17h46.35.482,lexical_decision_task_DD_L3,2021.2.3,iPhone,29.41176471,,,,,,,,,,1.031,1,,,,,,,,,,,,,,,0,-0.414285714,-0.318367347,1,0,0,1.031,button_left_main,-0.414285714,-0.318367347,1,0,0,,0,73,73,145,1,LAMEL,HB,old,z,./images/LAMELHB.png,,,,,,,,,,,,,,,,,,,,,,,,,,,,,,,,,
,,,,,,,,,,,,,,,,,60ff2a99571ffa508c4b516f,19,2022-02-12_17h46.35.482,lexical_decision_task_DD_L3,2021.2.3,iPhone,29.41176471,,,,,,,,,,1.03,1,,,,,,,,,,,,,,,0,-0.402040816,-0.334693878,1,0,0,1.03,button_left_main,-0.402040816,-0.334693878,1,0,0,,0,74,74,91,1,SHENS,HB,old,z,./images/SHENSHB.png,,,,,,,,,,,,,,,,,,,,,,,,,,,,,,,,,
,,,,,,,,,,,,,,,,,60ff2a99571ffa508c4b516f,19,2022-02-12_17h46.35.482,lexical_decision_task_DD_L3,2021.2.3,iPhone,29.41176471,,,,,,,,,,2.675,1,,,,,,,,,,,,,,,0,0.384693878,-0.356122449,1,0,0,2.675,button_right_main,0.384693878,-0.356122449,1,0,0,,0,75,75,82,1,SUNSET,C,old,m,./images/SUNSET.png,,,,,,,,,,,,,,,,,,,,,,,,,,,,,,,,,
,,,,,,,,,,,,,,,,,60ff2a99571ffa508c4b516f,19,2022-02-12_17h46.35.482,lexical_decision_task_DD_L3,2021.2.3,iPhone,29.41176471,,,,,,,,,,1.231,1,,,,,,,,,,,,,,,0,0.380612245,-0.32244898,1,0,0,1.231,button_right_main,0.380612245,-0.32244898,1,0,0,,0,76,76,41,1,STRING,HB,old,m,./images/STRINGHB.png,,,,,,,,,,,,,,,,,,,,,,,,,,,,,,,,,
,,,,,,,,,,,,,,,,,60ff2a99571ffa508c4b516f,19,2022-02-12_17h46.35.482,lexical_decision_task_DD_L3,2021.2.3,iPhone,29.41176471,,,,,,,,,,1.365,1,,,,,,,,,,,,,,,0,-0.405102041,-0.307142857,1,0,0,1.365,button_left_main,-0.405102041,-0.307142857,1,0,0,,0,77,77,114,1,RIKES,C,old,z,./images/RIKES.png,,,,,,,,,,,,,,,,,,,,,,,,,,,,,,,,,
,,,,,,,,,,,,,,,,,60ff2a99571ffa508c4b516f,19,2022-02-12_17h46.35.482,lexical_decision_task_DD_L3,2021.2.3,iPhone,29.41176471,,,,,,,,,,1.264,1,,,,,,,,,,,,,,,0,0.376530612,-0.32755102,1,0,0,1.264,button_right_main,0.376530612,-0.32755102,1,0,0,,0,78,78,64,1,JELLY,C,old,m,./images/JELLY.png,,,,,,,,,,,,,,,,,,,,,,,,,,,,,,,,,
,,,,,,,,,,,,,,,,,60ff2a99571ffa508c4b516f,19,2022-02-12_17h46.35.482,lexical_decision_task_DD_L3,2021.2.3,iPhone,29.41176471,,,,,,,,,,0.964,1,,,,,,,,,,,,,,,0,-0.413265306,-0.323469388,1,0,0,0.964,button_left_main,-0.413265306,-0.323469388,1,0,0,,0,79,79,160,1,VEETS,HB,old,z,./images/VEETSHB.png,,,,,,,,,,,,,,,,,,,,,,,,,,,,,,,,,
,,,,,,,,,,,,,,,,,60ff2a99571ffa508c4b516f,19,2022-02-12_17h46.35.482,lexical_decision_task_DD_L3,2021.2.3,iPhone,29.41176471,,,,,,,,,,1.497,1,,,,,,,,,,,,,,,0,0.384693878,-0.303061224,1,0,0,1.497,button_right_main,0.384693878,-0.303061224,1,0,0,,0,80,80,59,1,BURIAL,HB,old,m,./images/BURIALHB.png,,,,,,,,,,,,,,,,,,,,,,,,,,,,,,,,,
,,,,,,,,,,,,,,,,,60ff2a99571ffa508c4b516f,19,2022-02-12_17h46.35.482,lexical_decision_task_DD_L3,2021.2.3,iPhone,29.41176471,,,,,,,,,,1.164,0,,,,,,,,,,,,,,,0,-0.403061224,-0.325510204,1,0,0,1.164,button_left_main,-0.403061224,-0.325510204,1,0,0,,0,81,81,78,1,LITTER,LB,old,m,./images/LITTERLB.png,,,,,,,,,,,,,,,,,,,,,,,,,,,,,,,,,
,,,,,,,,,,,,,,,,,60ff2a99571ffa508c4b516f,19,2022-02-12_17h46.35.482,lexical_decision_task_DD_L3,2021.2.3,iPhone,29.41176471,,,,,,,,,,1.638,1,,,,,,,,,,,,,,,0,-0.393877551,-0.318367347,1,0,0,1.638,button_left_main,-0.393877551,-0.318367347,1,0,0,,0,82,82,88,1,GLUSH,HB,old,z,./images/GLUSHHB.png,,,,,,,,,,,,,,,,,,,,,,,,,,,,,,,,,
,,,,,,,,,,,,,,,,,60ff2a99571ffa508c4b516f,19,2022-02-12_17h46.35.482,lexical_decision_task_DD_L3,2021.2.3,iPhone,29.41176471,,,,,,,,,,1.396,1,,,,,,,,,,,,,,,0,-0.397959184,-0.317346939,1,0,0,1.396,button_left_main,0.147959184,-0.409183673,1,0,0,,0,83,83,135,1,JOODY,C,old,z,./images/JOODY.png,break_done_button,,,,,,,,,,,,,,,,,,,,,,,,,,,,,,,,
,,,,,,,,,,,,,,,,,60ff2a99571ffa508c4b516f,19,2022-02-12_17h46.35.482,lexical_decision_task_DD_L3,2021.2.3,iPhone,29.41176471,,,,,,,,,,1.905,1,,,,,,,,,,,,,,,0,0.364285714,-0.36122449,1,0,0,1.905,button_right_main,0.364285714,-0.36122449,1,0,0,,0,84,84,19,1,DOUGH,C,old,m,./images/DOUGH.png,,,,,,,,,,,,,,,,,,,,,,,,,,,,,,,,,
,,,,,,,,,,,,,,,,,60ff2a99571ffa508c4b516f,19,2022-02-12_17h46.35.482,lexical_decision_task_DD_L3,2021.2.3,iPhone,29.41176471,,,,,,,,,,1.364,1,,,,,,,,,,,,,,,0,0.353061224,-0.348979592,1,0,0,1.364,button_right_main,0.353061224,-0.348979592,1,0,0,,0,85,85,67,1,SAILOR,C,old,m,./images/SAILOR.png,,,,,,,,,,,,,,,,,,,,,,,,,,,,,,,,,
,,,,,,,,,,,,,,,,,60ff2a99571ffa508c4b516f,19,2022-02-12_17h46.35.482,lexical_decision_task_DD_L3,2021.2.3,iPhone,29.41176471,,,,,,,,,,1.31,1,,,,,,,,,,,,,,,0,-0.402040816,-0.354081633,1,0,0,1.31,button_left_main,-0.402040816,-0.354081633,1,0,0,,0,86,86,101,1,GLEET,LB,old,z,./images/GLEETLB.png,,,,,,,,,,,,,,,,,,,,,,,,,,,,,,,,,
,,,,,,,,,,,,,,,,,60ff2a99571ffa508c4b516f,19,2022-02-12_17h46.35.482,lexical_decision_task_DD_L3,2021.2.3,iPhone,29.41176471,,,,,,,,,,0.865,1,,,,,,,,,,,,,,,0,0.37755102,-0.340816327,1,0,0,0.865,button_right_main,0.37755102,-0.340816327,1,0,0,,0,87,87,53,1,CARPET,HB,old,m,./images/CARPETHB.png,,,,,,,,,,,,,,,,,,,,,,,,,,,,,,,,,
,,,,,,,,,,,,,,,,,60ff2a99571ffa508c4b516f,19,2022-02-12_17h46.35.482,lexical_decision_task_DD_L3,2021.2.3,iPhone,29.41176471,,,,,,,,,,1.263,1,,,,,,,,,,,,,,,0,0.384693878,-0.31122449,1,0,0,1.263,button_right_main,0.384693878,-0.31122449,1,0,0,,0,88,88,25,1,WRIST,C,old,m,./images/WRIST.png,,,,,,,,,,,,,,,,,,,,,,,,,,,,,,,,,
,,,,,,,,,,,,,,,,,60ff2a99571ffa508c4b516f,19,2022-02-12_17h46.35.482,lexical_decision_task_DD_L3,2021.2.3,iPhone,29.41176471,,,,,,,,,,1.364,1,,,,,,,,,,,,,,,0,-0.406122449,-0.326530612,1,0,0,1.364,button_left_main,-0.406122449,-0.326530612,1,0,0,,0,89,89,119,1,PAFER,LB,old,z,./images/PAFERLB.png,,,,,,,,,,,,,,,,,,,,,,,,,,,,,,,,,
,,,,,,,,,,,,,,,,,60ff2a99571ffa508c4b516f,19,2022-02-12_17h46.35.482,lexical_decision_task_DD_L3,2021.2.3,iPhone,29.41176471,,,,,,,,,,2.341,1,,,,,,,,,,,,,,,0,-0.402040816,-0.323469388,1,0,0,2.341,button_left_main,-0.402040816,-0.323469388,1,0,0,,0,90,90,115,1,MAWNS,HB,old,z,./images/MAWNSHB.png,,,,,,,,,,,,,,,,,,,,,,,,,,,,,,,,,
,,,,,,,,,,,,,,,,,60ff2a99571ffa508c4b516f,19,2022-02-12_17h46.35.482,lexical_decision_task_DD_L3,2021.2.3,iPhone,29.41176471,,,,,,,,,,2.064,0,,,,,,,,,,,,,,,0,0.369387755,-0.325510204,1,0,0,2.064,button_right_main,0.369387755,-0.325510204,1,0,0,,0,91,91,85,1,CHULK,HB,old,z,./images/CHULKHB.png,,,,,,,,,,,,,,,,,,,,,,,,,,,,,,,,,
,,,,,,,,,,,,,,,,,60ff2a99571ffa508c4b516f,19,2022-02-12_17h46.35.482,lexical_decision_task_DD_L3,2021.2.3,iPhone,29.41176471,,,,,,,,,,0.932,1,,,,,,,,,,,,,,,0,0.36122449,-0.343877551,1,0,0,0.932,button_right_main,0.36122449,-0.343877551,1,0,0,,0,92,92,63,1,MIRROR,LB,old,m,./images/MIRRORLB.png,,,,,,,,,,,,,,,,,,,,,,,,,,,,,,,,,
,,,,,,,,,,,,,,,,,60ff2a99571ffa508c4b516f,19,2022-02-12_17h46.35.482,lexical_decision_task_DD_L3,2021.2.3,iPhone,29.41176471,,,,,,,,,,1.797,1,,,,,,,,,,,,,,,0,0.362244898,-0.323469388,1,0,0,1.797,button_right_main,0.362244898,-0.323469388,1,0,0,,0,93,93,74,1,CEMENT,HB,old,m,./images/CEMENTHB.png,,,,,,,,,,,,,,,,,,,,,,,,,,,,,,,,,
,,,,,,,,,,,,,,,,,60ff2a99571ffa508c4b516f,19,2022-02-12_17h46.35.482,lexical_decision_task_DD_L3,2021.2.3,iPhone,29.41176471,,,,,,,,,,1.632,1,,,,,,,,,,,,,,,0,-0.398979592,-0.371428571,1,0,0,1.632,button_left_main,-0.398979592,-0.371428571,1,0,0,,0,94,94,129,1,PRANS,C,old,z,./images/PRANS.png,,,,,,,,,,,,,,,,,,,,,,,,,,,,,,,,,
,,,,,,,,,,,,,,,,,60ff2a99571ffa508c4b516f,19,2022-02-12_17h46.35.482,lexical_decision_task_DD_L3,2021.2.3,iPhone,29.41176471,,,,,,,,,,1.166,1,,,,,,,,,,,,,,,0,0.364285714,-0.360204082,1,0,0,1.166,button_right_main,0.364285714,-0.360204082,1,0,0,,0,95,95,34,1,CANYON,C,old,m,./images/CANYON.png,,,,,,,,,,,,,,,,,,,,,,,,,,,,,,,,,
,,,,,,,,,,,,,,,,,60ff2a99571ffa508c4b516f,19,2022-02-12_17h46.35.482,lexical_decision_task_DD_L3,2021.2.3,iPhone,29.41176471,,,,,,,,,,2.964,0,,,,,,,,,,,,,,,0,0.365306122,-0.35,1,0,0,2.964,button_right_main,0.365306122,-0.35,1,0,0,,0,96,96,159,1,CUDDY,C,old,z,./images/CUDDY.png,,,,,,,,,,,,,,,,,,,,,,,,,,,,,,,,,
,,,,,,,,,,,,,,,,,60ff2a99571ffa508c4b516f,19,2022-02-12_17h46.35.482,lexical_decision_task_DD_L3,2021.2.3,iPhone,29.41176471,,,,,,,,,,2.773,1,,,,,,,,,,,,,,,0,-0.397959184,-0.325510204,1,0,0,2.773,button_left_main,-0.397959184,-0.325510204,1,0,0,,0,97,97,109,1,BURGE,HB,old,z,./images/BURGEHB.png,,,,,,,,,,,,,,,,,,,,,,,,,,,,,,,,,
,,,,,,,,,,,,,,,,,60ff2a99571ffa508c4b516f,19,2022-02-12_17h46.35.482,lexical_decision_task_DD_L3,2021.2.3,iPhone,29.41176471,,,,,,,,,,3.963,1,,,,,,,,,,,,,,,0,-0.394897959,-0.352040816,1,0,0,3.963,button_left_main,-0.394897959,-0.352040816,1,0,0,,0,98,98,98,1,BAMPS,LB,old,z,./images/BAMPSLB.png,,,,,,,,,,,,,,,,,,,,,,,,,,,,,,,,,
,,,,,,,,,,,,,,,,,60ff2a99571ffa508c4b516f,19,2022-02-12_17h46.35.482,lexical_decision_task_DD_L3,2021.2.3,iPhone,29.41176471,,,,,,,,,,1.563,1,,,,,,,,,,,,,,,0,-0.370408163,-0.333673469,1,0,0,1.563,button_left_main,-0.370408163,-0.333673469,1,0,0,,0,99,99,158,1,EGECT,LB,old,z,./images/EGECTLB.png,,,,,,,,,,,,,,,,,,,,,,,,,,,,,,,,,
,,,,,,,,,,,,,,,,,60ff2a99571ffa508c4b516f,19,2022-02-12_17h46.35.482,lexical_decision_task_DD_L3,2021.2.3,iPhone,29.41176471,,,,,,,,,,1.664,1,,,,,,,,,,,,,,,0,-0.378571429,-0.344897959,1,0,0,1.664,button_left_main,-0.378571429,-0.344897959,1,0,0,,0,100,100,132,1,SCIFF,C,old,z,./images/SCIFF.png,,,,,,,,,,,,,,,,,,,,,,,,,,,,,,,,,
,,,,,,,,,,,,,,,,,60ff2a99571ffa508c4b516f,19,2022-02-12_17h46.35.482,lexical_decision_task_DD_L3,2021.2.3,iPhone,29.41176471,,,,,,,,,,1.363,1,,,,,,,,,,,,,,,0,-0.389795918,-0.304081633,1,0,0,1.363,button_left_main,-0.389795918,-0.304081633,1,0,0,,0,101,101,161,1,BLAPS,LB,old,z,./images/BLAPSLB.png,,,,,,,,,,,,,,,,,,,,,,,,,,,,,,,,,
,,,,,,,,,,,,,,,,,60ff2a99571ffa508c4b516f,19,2022-02-12_17h46.35.482,lexical_decision_task_DD_L3,2021.2.3,iPhone,29.41176471,,,,,,,,,,1.897,1,,,,,,,,,,,,,,,0,0.373469388,-0.334693878,1,0,0,1.897,button_right_main,0.373469388,-0.334693878,1,0,0,,0,102,102,72,1,NOOSE,LB,old,m,./images/NOOSELB.png,,,,,,,,,,,,,,,,,,,,,,,,,,,,,,,,,
,,,,,,,,,,,,,,,,,60ff2a99571ffa508c4b516f,19,2022-02-12_17h46.35.482,lexical_decision_task_DD_L3,2021.2.3,iPhone,29.41176471,,,,,,,,,,1.131,1,,,,,,,,,,,,,,,0,0.36122449,-0.367346939,1,0,0,1.131,button_right_main,0.36122449,-0.367346939,1,0,0,,0,103,103,49,1,DRUMS,C,old,m,./images/DRUMS.png,,,,,,,,,,,,,,,,,,,,,,,,,,,,,,,,,
,,,,,,,,,,,,,,,,,60ff2a99571ffa508c4b516f,19,2022-02-12_17h46.35.482,lexical_decision_task_DD_L3,2021.2.3,iPhone,29.41176471,,,,,,,,,,1.164,1,,,,,,,,,,,,,,,0,0.366326531,-0.344897959,1,0,0,1.164,button_right_main,0.366326531,-0.344897959,1,0,0,,0,104,104,50,1,MALLET,HB,old,m,./images/MALLETHB.png,,,,,,,,,,,,,,,,,,,,,,,,,,,,,,,,,
,,,,,,,,,,,,,,,,,60ff2a99571ffa508c4b516f,19,2022-02-12_17h46.35.482,lexical_decision_task_DD_L3,2021.2.3,iPhone,29.41176471,,,,,,,,,,0.766,1,,,,,,,,,,,,,,,0,0.359183673,-0.331632653,1,0,0,0.766,button_right_main,0.359183673,-0.331632653,1,0,0,,0,105,105,15,1,GREASE,LB,old,m,./images/GREASELB.png,,,,,,,,,,,,,,,,,,,,,,,,,,,,,,,,,
,,,,,,,,,,,,,,,,,60ff2a99571ffa508c4b516f,19,2022-02-12_17h46.35.482,lexical_decision_task_DD_L3,2021.2.3,iPhone,29.41176471,,,,,,,,,,1.805,1,,,,,,,,,,,,,,,0,0.356122449,-0.347959184,1,0,0,1.805,button_right_main,0.356122449,-0.347959184,1,0,0,,0,106,106,54,1,TRIPOD,LB,old,m,./images/TRIPODLB.png,,,,,,,,,,,,,,,,,,,,,,,,,,,,,,,,,
,,,,,,,,,,,,,,,,,60ff2a99571ffa508c4b516f,19,2022-02-12_17h46.35.482,lexical_decision_task_DD_L3,2021.2.3,iPhone,29.41176471,,,,,,,,,,0.963,1,,,,,,,,,,,,,,,0,-0.419387755,-0.371428571,1,0,0,0.963,button_left_main,-0.419387755,-0.371428571,1,0,0,,0,107,107,113,1,LINEW,LB,old,z,./images/LINEWLB.png,,,,,,,,,,,,,,,,,,,,,,,,,,,,,,,,,
,,,,,,,,,,,,,,,,,60ff2a99571ffa508c4b516f,19,2022-02-12_17h46.35.482,lexical_decision_task_DD_L3,2021.2.3,iPhone,29.41176471,,,,,,,,,,0.798,1,,,,,,,,,,,,,,,0,0.360204082,-0.342857143,1,0,0,0.798,button_right_main,0.360204082,-0.342857143,1,0,0,,0,108,108,39,1,SHELF,LB,old,m,./images/SHELFLB.png,,,,,,,,,,,,,,,,,,,,,,,,,,,,,,,,,
,,,,,,,,,,,,,,,,,60ff2a99571ffa508c4b516f,19,2022-02-12_17h46.35.482,lexical_decision_task_DD_L3,2021.2.3,iPhone,29.41176471,,,,,,,,,,0.698,1,,,,,,,,,,,,,,,0,0.368367347,-0.334693878,1,0,0,0.698,button_right_main,0.368367347,-0.334693878,1,0,0,,0,109,109,60,1,TWINS,LB,old,m,./images/TWINSLB.png,,,,,,,,,,,,,,,,,,,,,,,,,,,,,,,,,
,,,,,,,,,,,,,,,,,60ff2a99571ffa508c4b516f,19,2022-02-12_17h46.35.482,lexical_decision_task_DD_L3,2021.2.3,iPhone,29.41176471,,,,,,,,,,1.364,1,,,,,,,,,,,,,,,0,0.346938776,-0.352040816,1,0,0,1.364,button_right_main,0.346938776,-0.352040816,1,0,0,,0,110,110,2,1,BEARD,HB,old,m,./images/BEARDHB.png,,,,,,,,,,,,,,,,,,,,,,,,,,,,,,,,,
,,,,,,,,,,,,,,,,,60ff2a99571ffa508c4b516f,19,2022-02-12_17h46.35.482,lexical_decision_task_DD_L3,2021.2.3,iPhone,29.41176471,,,,,,,,,,0.606,1,,,,,,,,,,,,,,,0,0.370408163,-0.298979592,1,0,0,0.606,button_right_main,0.370408163,-0.298979592,1,0,0,,0,111,111,36,1,THROAT,LB,old,m,./images/THROATLB.png,,,,,,,,,,,,,,,,,,,,,,,,,,,,,,,,,
,,,,,,,,,,,,,,,,,60ff2a99571ffa508c4b516f,19,2022-02-12_17h46.35.482,lexical_decision_task_DD_L3,2021.2.3,iPhone,29.41176471,,,,,,,,,,0.864,1,,,,,,,,,,,,,,,0,0.348979592,-0.357142857,1,0,0,0.864,button_right_main,0.348979592,-0.357142857,1,0,0,,0,112,112,18,1,JAGUAR,LB,old,m,./images/JAGUARLB.png,,,,,,,,,,,,,,,,,,,,,,,,,,,,,,,,,
,,,,,,,,,,,,,,,,,60ff2a99571ffa508c4b516f,19,2022-02-12_17h46.35.482,lexical_decision_task_DD_L3,2021.2.3,iPhone,29.41176471,,,,,,,,,,0.864,1,,,,,,,,,,,,,,,0,0.353061224,-0.357142857,1,0,0,0.864,button_right_main,0.353061224,-0.357142857,1,0,0,,0,113,113,14,1,PICKLE,HB,old,m,./images/PICKLEHB.png,,,,,,,,,,,,,,,,,,,,,,,,,,,,,,,,,
,,,,,,,,,,,,,,,,,60ff2a99571ffa508c4b516f,19,2022-02-12_17h46.35.482,lexical_decision_task_DD_L3,2021.2.3,iPhone,29.41176471,,,,,,,,,,1.839,1,,,,,,,,,,,,,,,0,0.364285714,-0.344897959,1,0,0,1.839,button_right_main,0.364285714,-0.344897959,1,0,0,,0,114,114,56,1,PACKET,HB,old,m,./images/PACKETHB.png,,,,,,,,,,,,,,,,,,,,,,,,,,,,,,,,,
,,,,,,,,,,,,,,,,,60ff2a99571ffa508c4b516f,19,2022-02-12_17h46.35.482,lexical_decision_task_DD_L3,2021.2.3,iPhone,29.41176471,,,,,,,,,,1.063,0,,,,,,,,,,,,,,,0,0.367346939,-0.359183673,1,0,0,1.063,button_right_main,0.367346939,-0.359183673,1,0,0,,0,115,115,110,1,CRUNK,LB,old,z,./images/CRUNKLB.png,,,,,,,,,,,,,,,,,,,,,,,,,,,,,,,,,
,,,,,,,,,,,,,,,,,60ff2a99571ffa508c4b516f,19,2022-02-12_17h46.35.482,lexical_decision_task_DD_L3,2021.2.3,iPhone,29.41176471,,,,,,,,,,1.197,1,,,,,,,,,,,,,,,0,-0.409183673,-0.314285714,1,0,0,1.197,button_left_main,-0.409183673,-0.314285714,1,0,0,,0,116,116,152,1,FRAIN,LB,old,z,./images/FRAINLB.png,,,,,,,,,,,,,,,,,,,,,,,,,,,,,,,,,
,,,,,,,,,,,,,,,,,60ff2a99571ffa508c4b516f,19,2022-02-12_17h46.35.482,lexical_decision_task_DD_L3,2021.2.3,iPhone,29.41176471,,,,,,,,,,1.669,1,,,,,,,,,,,,,,,0,-0.437755102,-0.354081633,1,0,0,1.669,button_left_main,-0.437755102,-0.354081633,1,0,0,,0,117,117,121,1,CEERS,HB,old,z,./images/CEERSHB.png,,,,,,,,,,,,,,,,,,,,,,,,,,,,,,,,,
,,,,,,,,,,,,,,,,,60ff2a99571ffa508c4b516f,19,2022-02-12_17h46.35.482,lexical_decision_task_DD_L3,2021.2.3,iPhone,29.41176471,,,,,,,,,,0.763,1,,,,,,,,,,,,,,,0,-0.426530612,-0.324489796,1,0,0,0.763,button_left_main,-0.426530612,-0.324489796,1,0,0,,0,118,118,147,1,ZOLES,C,old,z,./images/ZOLES.png,,,,,,,,,,,,,,,,,,,,,,,,,,,,,,,,,
,,,,,,,,,,,,,,,,,60ff2a99571ffa508c4b516f,19,2022-02-12_17h46.35.482,lexical_decision_task_DD_L3,2021.2.3,iPhone,29.41176471,,,,,,,,,,1.331,1,,,,,,,,,,,,,,,0,-0.419387755,-0.384693878,1,0,0,1.331,button_left_main,-0.419387755,-0.384693878,1,0,0,,0,119,119,139,1,BLEAR,HB,old,z,./images/BLEARHB.png,,,,,,,,,,,,,,,,,,,,,,,,,,,,,,,,,
,,,,,,,,,,,,,,,,,60ff2a99571ffa508c4b516f,19,2022-02-12_17h46.35.482,lexical_decision_task_DD_L3,2021.2.3,iPhone,29.41176471,,,,,,,,,,0.796,1,,,,,,,,,,,,,,,0,0.368367347,-0.33877551,1,0,0,0.796,button_right_main,0.368367347,-0.33877551,1,0,0,,0,120,120,33,1,MAGGOT,LB,old,m,./images/MAGGOTLB.png,,,,,,,,,,,,,,,,,,,,,,,,,,,,,,,,,
,,,,,,,,,,,,,,,,,60ff2a99571ffa508c4b516f,19,2022-02-12_17h46.35.482,lexical_decision_task_DD_L3,2021.2.3,iPhone,29.41176471,,,,,,,,,,1.474,1,,,,,,,,,,,,,,,0,0.344897959,-0.354081633,1,0,0,1.474,button_right_main,0.344897959,-0.354081633,1,0,0,,0,121,121,20,1,CRADLE,HB,old,m,./images/CRADLEHB.png,,,,,,,,,,,,,,,,,,,,,,,,,,,,,,,,,
,,,,,,,,,,,,,,,,,60ff2a99571ffa508c4b516f,19,2022-02-12_17h46.35.482,lexical_decision_task_DD_L3,2021.2.3,iPhone,29.41176471,,,,,,,,,,0.739,1,,,,,,,,,,,,,,,0,-0.414285714,-0.382653061,1,0,0,0.739,button_left_main,-0.414285714,-0.382653061,1,0,0,,0,122,122,138,1,PLICE,C,old,z,./images/PLICE.png,,,,,,,,,,,,,,,,,,,,,,,,,,,,,,,,,
,,,,,,,,,,,,,,,,,60ff2a99571ffa508c4b516f,19,2022-02-12_17h46.35.482,lexical_decision_task_DD_L3,2021.2.3,iPhone,29.41176471,,,,,,,,,,0.696,1,,,,,,,,,,,,,,,0,0.351020408,-0.367346939,1,0,0,0.696,button_right_main,0.351020408,-0.367346939,1,0,0,,0,123,123,81,1,POODLE,LB,old,m,./images/POODLELB.png,,,,,,,,,,,,,,,,,,,,,,,,,,,,,,,,,
,,,,,,,,,,,,,,,,,60ff2a99571ffa508c4b516f,19,2022-02-12_17h46.35.482,lexical_decision_task_DD_L3,2021.2.3,iPhone,29.41176471,,,,,,,,,,0.763,1,,,,,,,,,,,,,,,0,0.353061224,-0.343877551,1,0,0,0.763,button_right_main,0.353061224,-0.343877551,1,0,0,,0,124,124,27,1,ATTIC,LB,old,m,./images/ATTICLB.png,,,,,,,,,,,,,,,,,,,,,,,,,,,,,,,,,
,,,,,,,,,,,,,,,,,60ff2a99571ffa508c4b516f,19,2022-02-12_17h46.35.482,lexical_decision_task_DD_L3,2021.2.3,iPhone,29.41176471,,,,,,,,,,0.764,1,,,,,,,,,,,,,,,0,0.357142857,-0.334693878,1,0,0,0.764,button_right_main,0.07755102,-0.381632653,1,0,0,,0,125,125,73,1,SNACK,C,old,m,./images/SNACK.png,break_done_button,,,,,,,,,,,,,,,,,,,,,,,,,,,,,,,,
,,,,,,,,,,,,,,,,,60ff2a99571ffa508c4b516f,19,2022-02-12_17h46.35.482,lexical_decision_task_DD_L3,2021.2.3,iPhone,29.41176471,,,,,,,,,,0.834,1,,,,,,,,,,,,,,,0,-0.430612245,-0.332653061,1,0,0,0.834,button_left_main,-0.430612245,-0.332653061,1,0,0,,0,126,126,108,1,GRUET,C,old,z,./images/GRUET.png,,,,,,,,,,,,,,,,,,,,,,,,,,,,,,,,,
,,,,,,,,,,,,,,,,,60ff2a99571ffa508c4b516f,19,2022-02-12_17h46.35.482,lexical_decision_task_DD_L3,2021.2.3,iPhone,29.41176471,,,,,,,,,,1.009,1,,,,,,,,,,,,,,,0,-0.42244898,-0.310204082,1,0,0,1.009,button_left_main,-0.42244898,-0.310204082,1,0,0,,0,127,127,143,1,MONGS,LB,old,z,./images/MONGSLB.png,,,,,,,,,,,,,,,,,,,,,,,,,,,,,,,,,
,,,,,,,,,,,,,,,,,60ff2a99571ffa508c4b516f,19,2022-02-12_17h46.35.482,lexical_decision_task_DD_L3,2021.2.3,iPhone,29.41176471,,,,,,,,,,1.047,1,,,,,,,,,,,,,,,0,0.348979592,-0.346938776,1,0,0,1.047,button_right_main,0.348979592,-0.346938776,1,0,0,,0,128,128,29,1,CRUMB,HB,old,m,./images/CRUMBHB.png,,,,,,,,,,,,,,,,,,,,,,,,,,,,,,,,,
,,,,,,,,,,,,,,,,,60ff2a99571ffa508c4b516f,19,2022-02-12_17h46.35.482,lexical_decision_task_DD_L3,2021.2.3,iPhone,29.41176471,,,,,,,,,,0.599,1,,,,,,,,,,,,,,,0,0.359183673,-0.335714286,1,0,0,0.599,button_right_main,0.359183673,-0.335714286,1,0,0,,0,129,129,40,1,SWING,C,old,m,./images/SWING.png,,,,,,,,,,,,,,,,,,,,,,,,,,,,,,,,,
,,,,,,,,,,,,,,,,,60ff2a99571ffa508c4b516f,19,2022-02-12_17h46.35.482,lexical_decision_task_DD_L3,2021.2.3,iPhone,29.41176471,,,,,,,,,,1.032,1,,,,,,,,,,,,,,,0,0.354081633,-0.357142857,1,0,0,1.032,button_right_main,0.354081633,-0.357142857,1,0,0,,0,130,130,32,1,BARREL,HB,old,m,./images/BARRELHB.png,,,,,,,,,,,,,,,,,,,,,,,,,,,,,,,,,
,,,,,,,,,,,,,,,,,60ff2a99571ffa508c4b516f,19,2022-02-12_17h46.35.482,lexical_decision_task_DD_L3,2021.2.3,iPhone,29.41176471,,,,,,,,,,0.896,1,,,,,,,,,,,,,,,0,-0.412244898,-0.353061224,1,0,0,0.896,button_left_main,-0.412244898,-0.353061224,1,0,0,,0,131,131,104,1,GITTY,LB,old,z,./images/GITTYLB.png,,,,,,,,,,,,,,,,,,,,,,,,,,,,,,,,,
,,,,,,,,,,,,,,,,,60ff2a99571ffa508c4b516f,19,2022-02-12_17h46.35.482,lexical_decision_task_DD_L3,2021.2.3,iPhone,29.41176471,,,,,,,,,,0.897,1,,,,,,,,,,,,,,,0,0.359183673,-0.33877551,1,0,0,0.897,button_right_main,0.359183673,-0.33877551,1,0,0,,0,132,132,13,1,MOTOR,C,old,m,./images/MOTOR.png,,,,,,,,,,,,,,,,,,,,,,,,,,,,,,,,,
,,,,,,,,,,,,,,,,,60ff2a99571ffa508c4b516f,19,2022-02-12_17h46.35.482,lexical_decision_task_DD_L3,2021.2.3,iPhone,29.41176471,,,,,,,,,,1.164,1,,,,,,,,,,,,,,,0,-0.423469388,-0.329591837,1,0,0,1.164,button_left_main,-0.423469388,-0.329591837,1,0,0,,0,133,133,97,1,CHIDS,HB,old,z,./images/CHIDSHB.png,,,,,,,,,,,,,,,,,,,,,,,,,,,,,,,,,
,,,,,,,,,,,,,,,,,60ff2a99571ffa508c4b516f,19,2022-02-12_17h46.35.482,lexical_decision_task_DD_L3,2021.2.3,iPhone,29.41176471,,,,,,,,,,2.041,1,,,,,,,,,,,,,,,0,-0.407142857,-0.318367347,1,0,0,2.041,button_left_main,-0.407142857,-0.318367347,1,0,0,,0,134,134,163,1,GAMBA,HB,old,z,./images/GAMBAHB.png,,,,,,,,,,,,,,,,,,,,,,,,,,,,,,,,,
,,,,,,,,,,,,,,,,,60ff2a99571ffa508c4b516f,19,2022-02-12_17h46.35.482,lexical_decision_task_DD_L3,2021.2.3,iPhone,29.41176471,,,,,,,,,,2.94,1,,,,,,,,,,,,,,,0,-0.395918367,-0.268367347,1,0,0,2.94,button_left_main,-0.395918367,-0.268367347,1,0,0,,0,135,135,93,1,SMONE,C,old,z,./images/SMONE.png,,,,,,,,,,,,,,,,,,,,,,,,,,,,,,,,,
,,,,,,,,,,,,,,,,,60ff2a99571ffa508c4b516f,19,2022-02-12_17h46.35.482,lexical_decision_task_DD_L3,2021.2.3,iPhone,29.41176471,,,,,,,,,,0.697,1,,,,,,,,,,,,,,,0,0.37244898,-0.329591837,1,0,0,0.697,button_right_main,0.37244898,-0.329591837,1,0,0,,0,136,136,37,1,BIRTH,C,old,m,./images/BIRTH.png,,,,,,,,,,,,,,,,,,,,,,,,,,,,,,,,,
,,,,,,,,,,,,,,,,,60ff2a99571ffa508c4b516f,19,2022-02-12_17h46.35.482,lexical_decision_task_DD_L3,2021.2.3,iPhone,29.41176471,,,,,,,,,,0.697,1,,,,,,,,,,,,,,,0,-0.391836735,-0.321428571,1,0,0,0.697,button_left_main,-0.391836735,-0.321428571,1,0,0,,0,137,137,102,1,DULLE,C,old,z,./images/DULLE.png,,,,,,,,,,,,,,,,,,,,,,,,,,,,,,,,,
,,,,,,,,,,,,,,,,,60ff2a99571ffa508c4b516f,19,2022-02-12_17h46.35.482,lexical_decision_task_DD_L3,2021.2.3,iPhone,29.41176471,,,,,,,,,,0.865,1,,,,,,,,,,,,,,,0,0.37244898,-0.33877551,1,0,0,0.865,button_right_main,0.37244898,-0.33877551,1,0,0,,0,138,138,52,1,BANNER,C,old,m,./images/BANNER.png,,,,,,,,,,,,,,,,,,,,,,,,,,,,,,,,,
,,,,,,,,,,,,,,,,,60ff2a99571ffa508c4b516f,19,2022-02-12_17h46.35.482,lexical_decision_task_DD_L3,2021.2.3,iPhone,29.41176471,,,,,,,,,,0.829,1,,,,,,,,,,,,,,,0,-0.386734694,-0.298979592,1,0,0,0.829,button_left_main,-0.386734694,-0.298979592,1,0,0,,0,139,139,123,1,SEDGE,C,old,z,./images/SEDGE.png,,,,,,,,,,,,,,,,,,,,,,,,,,,,,,,,,
,,,,,,,,,,,,,,,,,60ff2a99571ffa508c4b516f,19,2022-02-12_17h46.35.482,lexical_decision_task_DD_L3,2021.2.3,iPhone,29.41176471,,,,,,,,,,0.964,1,,,,,,,,,,,,,,,0,0.360204082,-0.33877551,1,0,0,0.964,button_right_main,0.360204082,-0.33877551,1,0,0,,0,140,140,11,1,BONNET,HB,old,m,./images/BONNETHB.png,,,,,,,,,,,,,,,,,,,,,,,,,,,,,,,,,
,,,,,,,,,,,,,,,,,60ff2a99571ffa508c4b516f,19,2022-02-12_17h46.35.482,lexical_decision_task_DD_L3,2021.2.3,iPhone,29.41176471,,,,,,,,,,1.03,1,,,,,,,,,,,,,,,0,0.36122449,-0.315306122,1,0,0,1.03,button_right_main,0.36122449,-0.315306122,1,0,0,,0,141,141,26,1,SMOKER,HB,old,m,./images/SMOKERHB.png,,,,,,,,,,,,,,,,,,,,,,,,,,,,,,,,,
,,,,,,,,,,,,,,,,,60ff2a99571ffa508c4b516f,19,2022-02-12_17h46.35.482,lexical_decision_task_DD_L3,2021.2.3,iPhone,29.41176471,,,,,,,,,,1.006,1,,,,,,,,,,,,,,,0,-0.384693878,-0.348979592,1,0,0,1.006,button_left_main,-0.384693878,-0.348979592,1,0,0,,0,142,142,100,1,DRIBS,HB,old,z,./images/DRIBSHB.png,,,,,,,,,,,,,,,,,,,,,,,,,,,,,,,,,
,,,,,,,,,,,,,,,,,60ff2a99571ffa508c4b516f,19,2022-02-12_17h46.35.482,lexical_decision_task_DD_L3,2021.2.3,iPhone,29.41176471,,,,,,,,,,0.698,1,,,,,,,,,,,,,,,0,0.351020408,-0.359183673,1,0,0,0.698,button_right_main,0.351020408,-0.359183673,1,0,0,,0,143,143,48,1,SPORT,LB,old,m,./images/SPORTLB.png,,,,,,,,,,,,,,,,,,,,,,,,,,,,,,,,,
,,,,,,,,,,,,,,,,,60ff2a99571ffa508c4b516f,19,2022-02-12_17h46.35.482,lexical_decision_task_DD_L3,2021.2.3,iPhone,29.41176471,,,,,,,,,,0.798,1,,,,,,,,,,,,,,,0,0.33877551,-0.365306122,1,0,0,0.798,button_right_main,0.33877551,-0.365306122,1,0,0,,0,144,144,83,1,JUNGLE,HB,old,m,./images/JUNGLEHB.png,,,,,,,,,,,,,,,,,,,,,,,,,,,,,,,,,
,,,,,,,,,,,,,,,,,60ff2a99571ffa508c4b516f,19,2022-02-12_17h46.35.482,lexical_decision_task_DD_L3,2021.2.3,iPhone,29.41176471,,,,,,,,,,0.665,1,,,,,,,,,,,,,,,0,0.357142857,-0.339795918,1,0,0,0.665,button_right_main,0.357142857,-0.339795918,1,0,0,,0,145,145,21,1,KIDNEY,LB,old,m,./images/KIDNEYLB.png,,,,,,,,,,,,,,,,,,,,,,,,,,,,,,,,,
,,,,,,,,,,,,,,,,,60ff2a99571ffa508c4b516f,19,2022-02-12_17h46.35.482,lexical_decision_task_DD_L3,2021.2.3,iPhone,29.41176471,,,,,,,,,,0.93,1,,,,,,,,,,,,,,,0,-0.407142857,-0.310204082,1,0,0,0.93,button_left_main,-0.407142857,-0.310204082,1,0,0,,0,146,146,99,1,BACKY,C,old,z,./images/BACKY.png,,,,,,,,,,,,,,,,,,,,,,,,,,,,,,,,,
,,,,,,,,,,,,,,,,,60ff2a99571ffa508c4b516f,19,2022-02-12_17h46.35.482,lexical_decision_task_DD_L3,2021.2.3,iPhone,29.41176471,,,,,,,,,,0.766,1,,,,,,,,,,,,,,,0,-0.387755102,-0.28877551,1,0,0,0.766,button_left_main,-0.387755102,-0.28877551,1,0,0,,0,147,147,141,1,PLEET,C,old,z,./images/PLEET.png,,,,,,,,,,,,,,,,,,,,,,,,,,,,,,,,,
,,,,,,,,,,,,,,,,,60ff2a99571ffa508c4b516f,19,2022-02-12_17h46.35.482,lexical_decision_task_DD_L3,2021.2.3,iPhone,29.41176471,,,,,,,,,,0.896,1,,,,,,,,,,,,,,,0,-0.358163265,-0.318367347,1,0,0,0.896,button_left_main,-0.358163265,-0.318367347,1,0,0,,0,148,148,144,1,NAIRY,C,old,z,./images/NAIRY.png,,,,,,,,,,,,,,,,,,,,,,,,,,,,,,,,,
,,,,,,,,,,,,,,,,,60ff2a99571ffa508c4b516f,19,2022-02-12_17h46.35.482,lexical_decision_task_DD_L3,2021.2.3,iPhone,29.41176471,,,,,,,,,,0.766,1,,,,,,,,,,,,,,,0,0.343877551,-0.367346939,1,0,0,0.766,button_right_main,0.343877551,-0.367346939,1,0,0,,0,149,149,9,1,RHINO,LB,old,m,./images/RHINOLB.png,,,,,,,,,,,,,,,,,,,,,,,,,,,,,,,,,
,,,,,,,,,,,,,,,,,60ff2a99571ffa508c4b516f,19,2022-02-12_17h46.35.482,lexical_decision_task_DD_L3,2021.2.3,iPhone,29.41176471,,,,,,,,,,1.371,1,,,,,,,,,,,,,,,0,-0.326530612,-0.368367347,1,0,0,1.371,button_left_main,-0.326530612,-0.368367347,1,0,0,,0,150,150,127,1,NINDY,HB,old,z,./images/NINDYHB.png,,,,,,,,,,,,,,,,,,,,,,,,,,,,,,,,,
,,,,,,,,,,,,,,,,,60ff2a99571ffa508c4b516f,19,2022-02-12_17h46.35.482,lexical_decision_task_DD_L3,2021.2.3,iPhone,29.41176471,,,,,,,,,,1.062,1,,,,,,,,,,,,,,,0,0.359183673,-0.354081633,1,0,0,1.062,button_right_main,0.359183673,-0.354081633,1,0,0,,0,151,151,43,1,MOSQUE,C,old,m,./images/MOSQUE.png,,,,,,,,,,,,,,,,,,,,,,,,,,,,,,,,,
,,,,,,,,,,,,,,,,,60ff2a99571ffa508c4b516f,19,2022-02-12_17h46.35.482,lexical_decision_task_DD_L3,2021.2.3,iPhone,29.41176471,,,,,,,,,,1.096,1,,,,,,,,,,,,,,,0,0.351020408,-0.357142857,1,0,0,1.096,button_right_main,0.351020408,-0.357142857,1,0,0,,0,152,152,80,1,WEASEL,HB,old,m,./images/WEASELHB.png,,,,,,,,,,,,,,,,,,,,,,,,,,,,,,,,,
,,,,,,,,,,,,,,,,,60ff2a99571ffa508c4b516f,19,2022-02-12_17h46.35.482,lexical_decision_task_DD_L3,2021.2.3,iPhone,29.41176471,,,,,,,,,,0.865,1,,,,,,,,,,,,,,,0,0.340816327,-0.37244898,1,0,0,0.865,button_right_main,0.340816327,-0.37244898,1,0,0,,0,153,153,47,1,BERRY,HB,old,m,./images/BERRYHB.png,,,,,,,,,,,,,,,,,,,,,,,,,,,,,,,,,
,,,,,,,,,,,,,,,,,60ff2a99571ffa508c4b516f,19,2022-02-12_17h46.35.482,lexical_decision_task_DD_L3,2021.2.3,iPhone,29.41176471,,,,,,,,,,0.728,1,,,,,,,,,,,,,,,0,-0.373469388,-0.317346939,1,0,0,0.728,button_left_main,-0.373469388,-0.317346939,1,0,0,,0,154,154,105,1,MOKER,C,old,z,./images/MOKER.png,,,,,,,,,,,,,,,,,,,,,,,,,,,,,,,,,
,,,,,,,,,,,,,,,,,60ff2a99571ffa508c4b516f,19,2022-02-12_17h46.35.482,lexical_decision_task_DD_L3,2021.2.3,iPhone,29.41176471,,,,,,,,,,1.007,1,,,,,,,,,,,,,,,0,0.332653061,-0.363265306,1,0,0,1.007,button_right_main,0.332653061,-0.363265306,1,0,0,,0,155,155,23,1,WALRUS,HB,old,m,./images/WALRUSHB.png,,,,,,,,,,,,,,,,,,,,,,,,,,,,,,,,,
,,,,,,,,,,,,,,,,,60ff2a99571ffa508c4b516f,19,2022-02-12_17h46.35.482,lexical_decision_task_DD_L3,2021.2.3,iPhone,29.41176471,,,,,,,,,,1.164,1,,,,,,,,,,,,,,,0,0.348979592,-0.344897959,1,0,0,1.164,button_right_main,0.348979592,-0.344897959,1,0,0,,0,156,156,71,1,PIMPLE,HB,old,m,./images/PIMPLEHB.png,,,,,,,,,,,,,,,,,,,,,,,,,,,,,,,,,
,,,,,,,,,,,,,,,,,60ff2a99571ffa508c4b516f,19,2022-02-12_17h46.35.482,lexical_decision_task_DD_L3,2021.2.3,iPhone,29.41176471,,,,,,,,,,0.707,1,,,,,,,,,,,,,,,0,0.337755102,-0.32755102,1,0,0,0.707,button_right_main,0.337755102,-0.32755102,1,0,0,,0,157,157,30,1,STORM,LB,old,m,./images/STORMLB.png,,,,,,,,,,,,,,,,,,,,,,,,,,,,,,,,,
,,,,,,,,,,,,,,,,,60ff2a99571ffa508c4b516f,19,2022-02-12_17h46.35.482,lexical_decision_task_DD_L3,2021.2.3,iPhone,29.41176471,,,,,,,,,,0.766,1,,,,,,,,,,,,,,,0,0.345918367,-0.336734694,1,0,0,0.766,button_right_main,0.345918367,-0.336734694,1,0,0,,0,158,158,35,1,PEACH,HB,old,m,./images/PEACHHB.png,,,,,,,,,,,,,,,,,,,,,,,,,,,,,,,,,
,,,,,,,,,,,,,,,,,60ff2a99571ffa508c4b516f,19,2022-02-12_17h46.35.482,lexical_decision_task_DD_L3,2021.2.3,iPhone,29.41176471,,,,,,,,,,2.23,1,,,,,,,,,,,,,,,0,0.344897959,-0.331632653,1,0,0,2.23,button_right_main,0.344897959,-0.331632653,1,0,0,,0,159,159,4,1,MUSCLE,C,old,m,./images/MUSCLE.png,,,,,,,,,,,,,,,,,,,,,,,,,,,,,,,,,
,,,,,,,,,,,,,,,,,60ff2a99571ffa508c4b516f,19,2022-02-12_17h46.35.482,lexical_decision_task_DD_L3,2021.2.3,iPhone,29.41176471,,,,,,,,,,1.264,1,,,,,,,,,,,,,,,0,0.323469388,-0.336734694,1,0,0,1.264,button_right_main,0.323469388,-0.336734694,1,0,0,,0,160,160,17,1,SKIING,HB,old,m,./images/SKIINGHB.png,,,,,,,,,,,,,,,,,,,,,,,,,,,,,,,,,
,,,,,,,,,,,,,,,,,60ff2a99571ffa508c4b516f,19,2022-02-12_17h46.35.482,lexical_decision_task_DD_L3,2021.2.3,iPhone,29.41176471,,,,,,,,,,1.163,1,,,,,,,,,,,,,,,0,-0.374489796,-0.365306122,1,0,0,1.163,button_left_main,-0.374489796,-0.365306122,1,0,0,,0,161,161,122,1,BLOOT,LB,old,z,./images/BLOOTLB.png,,,,,,,,,,,,,,,,,,,,,,,,,,,,,,,,,
,,,,,,,,,,,,,,,,,60ff2a99571ffa508c4b516f,19,2022-02-12_17h46.35.482,lexical_decision_task_DD_L3,2021.2.3,iPhone,29.41176471,,,,,,,,,,0.73,1,,,,,,,,,,,,,,,0,0.362244898,-0.351020408,1,0,0,0.73,button_right_main,0.362244898,-0.351020408,1,0,0,,0,162,162,79,1,CRUST,C,old,m,./images/CRUST.png,,,,,,,,,,,,,,,,,,,,,,,,,,,,,,,,,
,,,,,,,,,,,,,,,,,60ff2a99571ffa508c4b516f,19,2022-02-12_17h46.35.482,lexical_decision_task_DD_L3,2021.2.3,iPhone,29.41176471,,,,,,,,,,0.976,1,,,,,,,,,,,,,,,0,0.366326531,-0.318367347,1,0,0,0.976,button_right_main,0.366326531,-0.318367347,1,0,0,,0,163,163,65,1,FARMER,HB,old,m,./images/FARMERHB.png,,,,,,,,,,,,,,,,,,,,,,,,,,,,,,,,,
,,,,,,,,,,,,,,,,,60ff2a99571ffa508c4b516f,19,2022-02-12_17h46.35.482,lexical_decision_task_DD_L3,2021.2.3,iPhone,29.41176471,,,,,,,,,,1.03,1,,,,,,,,,,,,,,,0,-0.359183673,-0.323469388,1,0,0,1.03,button_left_main,-0.359183673,-0.323469388,1,0,0,,0,164,164,116,1,BALGY,LB,old,z,./images/BALGYLB.png,,,,,,,,,,,,,,,,,,,,,,,,,,,,,,,,,
,,,,,,,,,,,,,,,,,60ff2a99571ffa508c4b516f,19,2022-02-12_17h46.35.482,lexical_decision_task_DD_L3,2021.2.3,iPhone,29.41176471,,,,,,,,,,1.664,1,,,,,,,,,,,,,,,0,-0.376530612,-0.358163265,1,0,0,1.664,button_left_main,-0.376530612,-0.358163265,1,0,0,,0,165,165,103,1,FLORT,HB,old,z,./images/FLORTHB.png,,,,,,,,,,,,,,,,,,,,,,,,,,,,,,,,,
,,,,,,,,,,,,,,,,,60ff2a99571ffa508c4b516f,19,2022-02-12_17h46.35.482,lexical_decision_task_DD_L3,2021.2.3,iPhone,29.41176471,,,,,,,,,,0.795,1,,,,,,,,,,,,,,,0,-0.373469388,-0.310204082,1,0,0,0.795,button_left_main,-0.373469388,-0.310204082,1,0,0,,0,166,166,167,1,ZONET,LB,old,z,./images/ZONETLB.png,,,,,,,,,,,,,,,,,,,,,,,,,,,,,,,,,
,,,,,,,,,,,,,,,,,60ff2a99571ffa508c4b516f,19,2022-02-12_17h46.35.482,lexical_decision_task_DD_L3,2021.2.3,iPhone,29.41176471,,,,,,,,,,0.643,1,,,,,,,,,,,,,,,0,0.368367347,-0.325510204,1,0,0,0.643,button_right_main,0.368367347,-0.325510204,1,0,0,,0,167,167,45,1,KITTEN,LB,old,m,./images/KITTENLB.png,,,,,,,,,,,,,,,,,,,,,,,,,,,,,,,,,
,,,,,,,,,,,,,,,,,60ff2a99571ffa508c4b516f,19,2022-02-12_17h46.35.482,lexical_decision_task_DD_L3,2021.2.3,iPhone,29.41176471,,,,,,,,,,,,,,,,,,,,,,,,,,,,,,,,,,,,,,,,,,,,,,How likely will it be that you will recognize the words presented slighly blurred on a scale of 0 (not likely) to 100 (most likely)?,,,,,0.017346939,-0.405102041,1,0,0,jol_adv,5,14.233,0,0,0,1,1,,,,,,,,,,,,,,,,,,,
,,,,,,,,,,,,,,,,,60ff2a99571ffa508c4b516f,19,2022-02-12_17h46.35.482,lexical_decision_task_DD_L3,2021.2.3,iPhone,29.41176471,,,,,,,,,,,,,,,,,,,,,,,,,,,,,,,,,,,,,,,,,,,,,,How likely will it be that you will recognize the words presented clearly on a scale of 0 (not likely) to 100 (most likely)?,,,,,,,,,,,6,16.358,0,1,1,0,1,,,,,,,,,,,,,,,,,,,
,,,,,,,,,,,,,,,,,60ff2a99571ffa508c4b516f,19,2022-02-12_17h46.35.482,lexical_decision_task_DD_L3,2021.2.3,iPhone,29.41176471,,,,,,,,,,,,,,,,,,,,,,,,,,,,,,,,,,,,,,,,,,,,,,How likely will it be that you will recognize the words presented very blurred on a scale of 0 (not likely) to 100 (most likely)?,,,,,,,,,,,5,3.406,0,2,2,2,1,,,,,,,,,,,,,,,,,,,
,0.083673469,-0.413265306,1,0,0,instr_done_button,,,,,,1,test,"In the next phase you will be presented with the words from the the first phase. Your job is to decide whether you remember seeing the word or not. If you remember seeing the word press ""old"" or type ""m"". If you do not remember seeing the word press ""new"" or type ""z"". Please press the space bar or click on continue to begin. ",,,60ff2a99571ffa508c4b516f,19,2022-02-12_17h46.35.482,lexical_decision_task_DD_L3,2021.2.3,iPhone,29.41176471,,,,,,,,,,,,,,,,,,,,,,,,,,,,,,,,,,,,,,,,,,,,,,,,,,,,,,,,,,,,,,,,0,0,0,0,1,,,,,,,,,,,,,,
,0.057142857,-0.421428571,1,0,0,instr_done_button,,,,,,1,test,"In the next phase you will be presented with the words from the the first phase. Your job is to decide whether you remember seeing the word or not. If you remember seeing the word press ""old"" or type ""m"". If you do not remember seeing the word press ""new"" or type ""z"". Please press the space bar or click on continue to begin. ",,,60ff2a99571ffa508c4b516f,19,2022-02-12_17h46.35.482,lexical_decision_task_DD_L3,2021.2.3,iPhone,29.41176471,,,,,,,,,,,,,,,,,,,,,,,,,,,,,,,,,,,,,,,,,,,,,,,,,,,,,,,,,,,,,,,,1,0,1,0,1,,,,,,,,,,,,,,
,0.071428571,-0.351020408,1,0,0,instr_done_button,,,,,,1,test,"In the next phase you will be presented with the words from the the first phase. Your job is to decide whether you remember seeing the word or not. If you remember seeing the word press ""old"" or type ""m"". If you do not remember seeing the word press ""new"" or type ""z"". Please press the space bar or click on continue to begin. ",,,60ff2a99571ffa508c4b516f,19,2022-02-12_17h46.35.482,lexical_decision_task_DD_L3,2021.2.3,iPhone,29.41176471,,,,,,,,,,,,,,,,,,,,,,,,,,,,,,,,,,,,,,,,,,,,,,,,,,,,,,,,,,,,,,,,2,0,2,0,1,,,,,,,,,,,,,,
,0.026530612,-0.413265306,1,0,0,instr_done_button,,,,,,1,test,"In the next phase you will be presented with the words from the the first phase. Your job is to decide whether you remember seeing the word or not. If you remember seeing the word press ""old"" or type ""m"". If you do not remember seeing the word press ""new"" or type ""z"". Please press the space bar or click on continue to begin. ",,,60ff2a99571ffa508c4b516f,19,2022-02-12_17h46.35.482,lexical_decision_task_DD_L3,2021.2.3,iPhone,29.41176471,,,,,,,,,,,,,,,,,,,,,,,,,,,,,,,,,,,,,,,,,,,,,,,,,,,,,,,,,,,,,,,,3,0,3,0,1,,,,,,,,,,,,,,
,-0.009183673,-0.434693878,1,0,0,instr_done_button,,,,,,1,test,"In the next phase you will be presented with the words from the the first phase. Your job is to decide whether you remember seeing the word or not. If you remember seeing the word press ""old"" or type ""m"". If you do not remember seeing the word press ""new"" or type ""z"". Please press the space bar or click on continue to begin. ",,,60ff2a99571ffa508c4b516f,19,2022-02-12_17h46.35.482,lexical_decision_task_DD_L3,2021.2.3,iPhone,29.41176471,,,,,,,,,,,,,,,,,,,,,,,,,,,,,,,,,,,,,,,,,,,,,,,,,,,,,,,,,,,,,,,,4,0,4,0,1,,,,,,,,,,,,,,
,,,,,,,,,,,,,,,,,60ff2a99571ffa508c4b516f,19,2022-02-12_17h46.35.482,lexical_decision_task_DD_L3,2021.2.3,iPhone,29.41176471,,,,,,,,,,2.467,1,,,,,,,,,,,,,,,,,,,,,,,-0.375510204,-0.335714286,1,0,0,,,,,,,PLANET,HB,z,m,./images/PLANETHB.png,,,,,,,,,,,,,,,,,,,,,0,-0.375510204,-0.335714286,1,0,0,2.467,button_left_test,0,0,0,164,1
,,,,,,,,,,,,,,,,,60ff2a99571ffa508c4b516f,19,2022-02-12_17h46.35.482,lexical_decision_task_DD_L3,2021.2.3,iPhone,29.41176471,,,,,,,,,,0.673,1,,,,,,,,,,,,,,,,,,,,,,,0.359183673,-0.312244898,1,0,0,,,,,,,CRUST,C,m,m,./images/CRUST.png,,,,,,,,,,,,,,,,,,,,,0,0.359183673,-0.312244898,1,0,0,0.673,button_right_test,0,1,1,79,1
,,,,,,,,,,,,,,,,,60ff2a99571ffa508c4b516f,19,2022-02-12_17h46.35.482,lexical_decision_task_DD_L3,2021.2.3,iPhone,29.41176471,,,,,,,,,,0.635,1,,,,,,,,,,,,,,,,,,,,,,,0.359183673,-0.321428571,1,0,0,,,,,,,LIZARD,HB,m,m,./images/LIZARDHB.png,,,,,,,,,,,,,,,,,,,,,0,0.359183673,-0.321428571,1,0,0,0.635,button_right_test,0,2,2,44,1
,,,,,,,,,,,,,,,,,60ff2a99571ffa508c4b516f,19,2022-02-12_17h46.35.482,lexical_decision_task_DD_L3,2021.2.3,iPhone,29.41176471,,,,,,,,,,0.83,1,,,,,,,,,,,,,,,,,,,,,,,-0.387755102,-0.335714286,1,0,0,,,,,,,PEBBLE,C,z,m,./images/PEBBLE.png,,,,,,,,,,,,,,,,,,,,,0,-0.387755102,-0.335714286,1,0,0,0.83,button_left_test,0,3,3,166,1
,,,,,,,,,,,,,,,,,60ff2a99571ffa508c4b516f,19,2022-02-12_17h46.35.482,lexical_decision_task_DD_L3,2021.2.3,iPhone,29.41176471,,,,,,,,,,0.795,1,,,,,,,,,,,,,,,,,,,,,,,0.345918367,-0.363265306,1,0,0,,,,,,,PURSE,HB,m,m,./images/PURSEHB.png,,,,,,,,,,,,,,,,,,,,,0,0.345918367,-0.363265306,1,0,0,0.795,button_right_test,0,4,4,62,1
,,,,,,,,,,,,,,,,,60ff2a99571ffa508c4b516f,19,2022-02-12_17h46.35.482,lexical_decision_task_DD_L3,2021.2.3,iPhone,29.41176471,,,,,,,,,,3.111,1,,,,,,,,,,,,,,,,,,,,,,,0.346938776,-0.380612245,1,0,0,,,,,,,MELON,C,m,m,./images/MELON.png,,,,,,,,,,,,,,,,,,,,,0,0.346938776,-0.380612245,1,0,0,3.111,button_right_test,0,5,5,22,1
,,,,,,,,,,,,,,,,,60ff2a99571ffa508c4b516f,19,2022-02-12_17h46.35.482,lexical_decision_task_DD_L3,2021.2.3,iPhone,29.41176471,,,,,,,,,,1.562,1,,,,,,,,,,,,,,,,,,,,,,,-0.373469388,-0.313265306,1,0,0,,,,,,,POKER,C,z,m,./images/POKER.png,,,,,,,,,,,,,,,,,,,,,0,-0.373469388,-0.313265306,1,0,0,1.562,button_left_test,0,6,6,151,1
,,,,,,,,,,,,,,,,,60ff2a99571ffa508c4b516f,19,2022-02-12_17h46.35.482,lexical_decision_task_DD_L3,2021.2.3,iPhone,29.41176471,,,,,,,,,,1.465,1,,,,,,,,,,,,,,,,,,,,,,,0.378571429,-0.314285714,1,0,0,,,,,,,PIMPLE,HB,m,m,./images/PIMPLEHB.png,,,,,,,,,,,,,,,,,,,,,0,0.378571429,-0.314285714,1,0,0,1.465,button_right_test,0,7,7,71,1
,,,,,,,,,,,,,,,,,60ff2a99571ffa508c4b516f,19,2022-02-12_17h46.35.482,lexical_decision_task_DD_L3,2021.2.3,iPhone,29.41176471,,,,,,,,,,1.596,1,,,,,,,,,,,,,,,,,,,,,,,-0.398979592,-0.316326531,1,0,0,,,,,,,GRAPE,C,z,m,./images/GRAPE.png,,,,,,,,,,,,,,,,,,,,,0,-0.398979592,-0.316326531,1,0,0,1.596,button_left_test,0,8,8,100,1
,,,,,,,,,,,,,,,,,60ff2a99571ffa508c4b516f,19,2022-02-12_17h46.35.482,lexical_decision_task_DD_L3,2021.2.3,iPhone,29.41176471,,,,,,,,,,3.196,1,,,,,,,,,,,,,,,,,,,,,,,-0.403061224,-0.298979592,1,0,0,,,,,,,BAKER,LB,z,m,./images/BAKERLB.png,,,,,,,,,,,,,,,,,,,,,0,-0.403061224,-0.298979592,1,0,0,3.196,button_left_test,0,9,9,147,1
,,,,,,,,,,,,,,,,,60ff2a99571ffa508c4b516f,19,2022-02-12_17h46.35.482,lexical_decision_task_DD_L3,2021.2.3,iPhone,29.41176471,,,,,,,,,,1.596,0,,,,,,,,,,,,,,,,,,,,,,,-0.382653061,-0.309183673,1,0,0,,,,,,,CANYON,C,m,m,./images/CANYON.png,,,,,,,,,,,,,,,,,,,,,0,-0.382653061,-0.309183673,1,0,0,1.596,button_left_test,0,10,10,34,1
,,,,,,,,,,,,,,,,,60ff2a99571ffa508c4b516f,19,2022-02-12_17h46.35.482,lexical_decision_task_DD_L3,2021.2.3,iPhone,29.41176471,,,,,,,,,,4.459,1,,,,,,,,,,,,,,,,,,,,,,,0.343877551,-0.340816327,1,0,0,,,,,,,SAILOR,C,m,m,./images/SAILOR.png,,,,,,,,,,,,,,,,,,,,,0,0.343877551,-0.340816327,1,0,0,4.459,button_right_test,0,11,11,67,1
,,,,,,,,,,,,,,,,,60ff2a99571ffa508c4b516f,19,2022-02-12_17h46.35.482,lexical_decision_task_DD_L3,2021.2.3,iPhone,29.41176471,,,,,,,,,,0.695,1,,,,,,,,,,,,,,,,,,,,,,,0.391836735,-0.307142857,1,0,0,,,,,,,BURIAL,HB,m,m,./images/BURIALHB.png,,,,,,,,,,,,,,,,,,,,,0,0.391836735,-0.307142857,1,0,0,0.695,button_right_test,0,12,12,59,1
,,,,,,,,,,,,,,,,,60ff2a99571ffa508c4b516f,19,2022-02-12_17h46.35.482,lexical_decision_task_DD_L3,2021.2.3,iPhone,29.41176471,,,,,,,,,,0.64,1,,,,,,,,,,,,,,,,,,,,,,,0.354081633,-0.331632653,1,0,0,,,,,,,PEACH,HB,m,m,./images/PEACHHB.png,,,,,,,,,,,,,,,,,,,,,0,0.354081633,-0.331632653,1,0,0,0.64,button_right_test,0,13,13,35,1
,,,,,,,,,,,,,,,,,60ff2a99571ffa508c4b516f,19,2022-02-12_17h46.35.482,lexical_decision_task_DD_L3,2021.2.3,iPhone,29.41176471,,,,,,,,,,1.1,1,,,,,,,,,,,,,,,,,,,,,,,0.384693878,-0.308163265,1,0,0,,,,,,,SWEAT,LB,m,m,./images/SWEATLB.png,,,,,,,,,,,,,,,,,,,,,0,0.384693878,-0.308163265,1,0,0,1.1,button_right_test,0,14,14,66,1
,,,,,,,,,,,,,,,,,60ff2a99571ffa508c4b516f,19,2022-02-12_17h46.35.482,lexical_decision_task_DD_L3,2021.2.3,iPhone,29.41176471,,,,,,,,,,1.229,0,,,,,,,,,,,,,,,,,,,,,,,0.379591837,-0.313265306,1,0,0,,,,,,,HEATER,HB,z,m,./images/HEATERHB.png,,,,,,,,,,,,,,,,,,,,,0,0.379591837,-0.313265306,1,0,0,1.229,button_right_test,0,15,15,140,1
,,,,,,,,,,,,,,,,,60ff2a99571ffa508c4b516f,19,2022-02-12_17h46.35.482,lexical_decision_task_DD_L3,2021.2.3,iPhone,29.41176471,,,,,,,,,,0.96,1,,,,,,,,,,,,,,,,,,,,,,,0.365306122,-0.332653061,1,0,0,,,,,,,BIRTH,C,m,m,./images/BIRTH.png,,,,,,,,,,,,,,,,,,,,,0,0.365306122,-0.332653061,1,0,0,0.96,button_right_test,0,16,16,37,1
,,,,,,,,,,,,,,,,,60ff2a99571ffa508c4b516f,19,2022-02-12_17h46.35.482,lexical_decision_task_DD_L3,2021.2.3,iPhone,29.41176471,,,,,,,,,,0.663,1,,,,,,,,,,,,,,,,,,,,,,,-0.37244898,-0.321428571,1,0,0,,,,,,,ARROW,LB,z,m,./images/ARROWLB.png,,,,,,,,,,,,,,,,,,,,,0,-0.37244898,-0.321428571,1,0,0,0.663,button_left_test,0,17,17,153,1
,,,,,,,,,,,,,,,,,60ff2a99571ffa508c4b516f,19,2022-02-12_17h46.35.482,lexical_decision_task_DD_L3,2021.2.3,iPhone,29.41176471,,,,,,,,,,1.196,1,,,,,,,,,,,,,,,,,,,,,,,-0.380612245,-0.314285714,1,0,0,,,,,,,SPINE,HB,z,m,./images/SPINEHB.png,,,,,,,,,,,,,,,,,,,,,0,-0.380612245,-0.314285714,1,0,0,1.196,button_left_test,0,18,18,149,1
,,,,,,,,,,,,,,,,,60ff2a99571ffa508c4b516f,19,2022-02-12_17h46.35.482,lexical_decision_task_DD_L3,2021.2.3,iPhone,29.41176471,,,,,,,,,,1.195,1,,,,,,,,,,,,,,,,,,,,,,,-0.381632653,-0.326530612,1,0,0,,,,,,,GARDEN,C,z,m,./images/GARDEN.png,,,,,,,,,,,,,,,,,,,,,0,-0.381632653,-0.326530612,1,0,0,1.195,button_left_test,0,19,19,94,1
,,,,,,,,,,,,,,,,,60ff2a99571ffa508c4b516f,19,2022-02-12_17h46.35.482,lexical_decision_task_DD_L3,2021.2.3,iPhone,29.41176471,,,,,,,,,,2.096,0,,,,,,,,,,,,,,,,,,,,,,,-0.389795918,-0.312244898,1,0,0,,,,,,,SQUARE,LB,m,m,./images/SQUARELB.png,,,,,,,,,,,,,,,,,,,,,0,-0.389795918,-0.312244898,1,0,0,2.096,button_left_test,0,20,20,6,1
,,,,,,,,,,,,,,,,,60ff2a99571ffa508c4b516f,19,2022-02-12_17h46.35.482,lexical_decision_task_DD_L3,2021.2.3,iPhone,29.41176471,,,,,,,,,,1.096,1,,,,,,,,,,,,,,,,,,,,,,,-0.376530612,-0.308163265,1,0,0,,,,,,,FENCE,HB,z,m,./images/FENCEHB.png,,,,,,,,,,,,,,,,,,,,,0,-0.376530612,-0.308163265,1,0,0,1.096,button_left_test,0,21,21,98,1
,,,,,,,,,,,,,,,,,60ff2a99571ffa508c4b516f,19,2022-02-12_17h46.35.482,lexical_decision_task_DD_L3,2021.2.3,iPhone,29.41176471,,,,,,,,,,1.031,1,,,,,,,,,,,,,,,,,,,,,,,-0.387755102,-0.292857143,1,0,0,,,,,,,DRILL,LB,z,m,./images/DRILLLB.png,,,,,,,,,,,,,,,,,,,,,0,-0.387755102,-0.292857143,1,0,0,1.031,button_left_test,0,22,22,165,1
,,,,,,,,,,,,,,,,,60ff2a99571ffa508c4b516f,19,2022-02-12_17h46.35.482,lexical_decision_task_DD_L3,2021.2.3,iPhone,29.41176471,,,,,,,,,,1.001,1,,,,,,,,,,,,,,,,,,,,,,,-0.389795918,-0.292857143,1,0,0,,,,,,,CLOTH,HB,z,m,./images/CLOTHHB.png,,,,,,,,,,,,,,,,,,,,,0,-0.389795918,-0.292857143,1,0,0,1.001,button_left_test,0,23,23,107,1
,,,,,,,,,,,,,,,,,60ff2a99571ffa508c4b516f,19,2022-02-12_17h46.35.482,lexical_decision_task_DD_L3,2021.2.3,iPhone,29.41176471,,,,,,,,,,1.071,0,,,,,,,,,,,,,,,,,,,,,,,-0.378571429,-0.331632653,1,0,0,,,,,,,KITTEN,LB,m,m,./images/KITTENLB.png,,,,,,,,,,,,,,,,,,,,,0,-0.378571429,-0.331632653,1,0,0,1.071,button_left_test,0,24,24,45,1
,,,,,,,,,,,,,,,,,60ff2a99571ffa508c4b516f,19,2022-02-12_17h46.35.482,lexical_decision_task_DD_L3,2021.2.3,iPhone,29.41176471,,,,,,,,,,0.665,1,,,,,,,,,,,,,,,,,,,,,,,0.365306122,-0.317346939,1,0,0,,,,,,,FOLDER,LB,m,m,./images/FOLDERLB.png,,,,,,,,,,,,,,,,,,,,,0,0.365306122,-0.317346939,1,0,0,0.665,button_right_test,0,25,25,42,1
,,,,,,,,,,,,,,,,,60ff2a99571ffa508c4b516f,19,2022-02-12_17h46.35.482,lexical_decision_task_DD_L3,2021.2.3,iPhone,29.41176471,,,,,,,,,,0.841,1,,,,,,,,,,,,,,,,,,,,,,,-0.394897959,-0.323469388,1,0,0,,,,,,,WALNUT,LB,z,m,./images/WALNUTLB.png,,,,,,,,,,,,,,,,,,,,,0,-0.394897959,-0.323469388,1,0,0,0.841,button_left_test,0,26,26,84,1
,,,,,,,,,,,,,,,,,60ff2a99571ffa508c4b516f,19,2022-02-12_17h46.35.482,lexical_decision_task_DD_L3,2021.2.3,iPhone,29.41176471,,,,,,,,,,0.761,0,,,,,,,,,,,,,,,,,,,,,,,-0.403061224,-0.304081633,1,0,0,,,,,,,COOKER,LB,m,m,./images/COOKERLB.png,,,,,,,,,,,,,,,,,,,,,0,-0.403061224,-0.304081633,1,0,0,0.761,button_left_test,0,27,27,69,1
,,,,,,,,,,,,,,,,,60ff2a99571ffa508c4b516f,19,2022-02-12_17h46.35.482,lexical_decision_task_DD_L3,2021.2.3,iPhone,29.41176471,,,,,,,,,,1.271,0,,,,,,,,,,,,,,,,,,,,,,,0.370408163,-0.32755102,1,0,0,,,,,,,BUBBLE,HB,z,m,./images/BUBBLEHB.png,,,,,,,,,,,,,,,,,,,,,0,0.370408163,-0.32755102,1,0,0,1.271,button_right_test,0,28,28,155,1
,,,,,,,,,,,,,,,,,60ff2a99571ffa508c4b516f,19,2022-02-12_17h46.35.482,lexical_decision_task_DD_L3,2021.2.3,iPhone,29.41176471,,,,,,,,,,3.112,0,,,,,,,,,,,,,,,,,,,,,,,-0.367346939,-0.329591837,1,0,0,,,,,,,SCREW,LB,m,m,./images/SCREWLB.png,,,,,,,,,,,,,,,,,,,,,0,-0.367346939,-0.329591837,1,0,0,3.112,button_left_test,0,29,29,24,1
,,,,,,,,,,,,,,,,,60ff2a99571ffa508c4b516f,19,2022-02-12_17h46.35.482,lexical_decision_task_DD_L3,2021.2.3,iPhone,29.41176471,,,,,,,,,,1.327,1,,,,,,,,,,,,,,,,,,,,,,,-0.393877551,-0.318367347,1,0,0,,,,,,,BRUSH,HB,z,m,./images/BRUSHHB.png,,,,,,,,,,,,,,,,,,,,,0,-0.393877551,-0.318367347,1,0,0,1.327,button_left_test,0,30,30,143,1
,,,,,,,,,,,,,,,,,60ff2a99571ffa508c4b516f,19,2022-02-12_17h46.35.482,lexical_decision_task_DD_L3,2021.2.3,iPhone,29.41176471,,,,,,,,,,1.33,1,,,,,,,,,,,,,,,,,,,,,,,-0.413265306,-0.260204082,1,0,0,,,,,,,BISHOP,C,z,m,./images/BISHOP.png,,,,,,,,,,,,,,,,,,,,,0,-0.413265306,-0.260204082,1,0,0,1.33,button_left_test,0,31,31,133,1
,,,,,,,,,,,,,,,,,60ff2a99571ffa508c4b516f,19,2022-02-12_17h46.35.482,lexical_decision_task_DD_L3,2021.2.3,iPhone,29.41176471,,,,,,,,,,1.905,1,,,,,,,,,,,,,,,,,,,,,,,0.364285714,-0.316326531,1,0,0,,,,,,,MIRROR,LB,m,m,./images/MIRRORLB.png,,,,,,,,,,,,,,,,,,,,,0,0.364285714,-0.316326531,1,0,0,1.905,button_right_test,0,32,32,63,1
,,,,,,,,,,,,,,,,,60ff2a99571ffa508c4b516f,19,2022-02-12_17h46.35.482,lexical_decision_task_DD_L3,2021.2.3,iPhone,29.41176471,,,,,,,,,,0.831,0,,,,,,,,,,,,,,,,,,,,,,,-0.397959184,-0.320408163,1,0,0,,,,,,,TWINS,LB,m,m,./images/TWINSLB.png,,,,,,,,,,,,,,,,,,,,,0,-0.397959184,-0.320408163,1,0,0,0.831,button_left_test,0,33,33,60,1
,,,,,,,,,,,,,,,,,60ff2a99571ffa508c4b516f,19,2022-02-12_17h46.35.482,lexical_decision_task_DD_L3,2021.2.3,iPhone,29.41176471,,,,,,,,,,2.006,0,,,,,,,,,,,,,,,,,,,,,,,-0.398979592,-0.251020408,1,0,0,,,,,,,MALLET,HB,m,m,./images/MALLETHB.png,,,,,,,,,,,,,,,,,,,,,0,-0.398979592,-0.251020408,1,0,0,2.006,button_left_test,0,34,34,50,1
,,,,,,,,,,,,,,,,,60ff2a99571ffa508c4b516f,19,2022-02-12_17h46.35.482,lexical_decision_task_DD_L3,2021.2.3,iPhone,29.41176471,,,,,,,,,,9.296,1,,,,,,,,,,,,,,,,,,,,,,,-0.387755102,-0.308163265,1,0,0,,,,,,,TOWEL,C,z,m,./images/TOWEL.png,,,,,,,,,,,,,,,,,,,,,0,-0.387755102,-0.308163265,1,0,0,9.296,button_left_test,0,35,35,85,1
,,,,,,,,,,,,,,,,,60ff2a99571ffa508c4b516f,19,2022-02-12_17h46.35.482,lexical_decision_task_DD_L3,2021.2.3,iPhone,29.41176471,,,,,,,,,,1.066,1,,,,,,,,,,,,,,,,,,,,,,,-0.407142857,-0.302040816,1,0,0,,,,,,,DONKEY,C,z,m,./images/DONKEY.png,,,,,,,,,,,,,,,,,,,,,0,-0.407142857,-0.302040816,1,0,0,1.066,button_left_test,0,36,36,103,1
,,,,,,,,,,,,,,,,,60ff2a99571ffa508c4b516f,19,2022-02-12_17h46.35.482,lexical_decision_task_DD_L3,2021.2.3,iPhone,29.41176471,,,,,,,,,,0.904,1,,,,,,,,,,,,,,,,,,,,,,,0.36122449,-0.353061224,1,0,0,,,,,,,URINE,C,m,m,./images/URINE.png,,,,,,,,,,,,,,,,,,,,,0,0.36122449,-0.353061224,1,0,0,0.904,button_right_test,0,37,37,70,1
,,,,,,,,,,,,,,,,,60ff2a99571ffa508c4b516f,19,2022-02-12_17h46.35.482,lexical_decision_task_DD_L3,2021.2.3,iPhone,29.41176471,,,,,,,,,,2.53,1,,,,,,,,,,,,,,,,,,,,,,,0.380612245,-0.318367347,1,0,0,,,,,,,BEARD,HB,m,m,./images/BEARDHB.png,,,,,,,,,,,,,,,,,,,,,0,0.380612245,-0.318367347,1,0,0,2.53,button_right_test,0,38,38,2,1
,,,,,,,,,,,,,,,,,60ff2a99571ffa508c4b516f,19,2022-02-12_17h46.35.482,lexical_decision_task_DD_L3,2021.2.3,iPhone,29.41176471,,,,,,,,,,3.365,0,,,,,,,,,,,,,,,,,,,,,,,0.380612245,-0.304081633,1,0,0,,,,,,,BUTTER,LB,z,m,./images/BUTTERLB.png,,,,,,,,,,,,,,,,,,,,,0,0.380612245,-0.304081633,1,0,0,3.365,button_right_test,0,39,39,111,1
,,,,,,,,,,,,,,,,,60ff2a99571ffa508c4b516f,19,2022-02-12_17h46.35.482,lexical_decision_task_DD_L3,2021.2.3,iPhone,29.41176471,,,,,,,,,,3.172,1,,,,,,,,,,,,,,,,,,,,,,,-0.387755102,-0.328571429,1,0,0,,,,,,,STATUE,LB,z,m,./images/STATUELB.png,,,,,,,,,,,,,,,,,,,,,0,-0.387755102,-0.328571429,1,0,0,3.172,button_left_test,0,40,40,150,1
,,,,,,,,,,,,,,,,,60ff2a99571ffa508c4b516f,19,2022-02-12_17h46.35.482,lexical_decision_task_DD_L3,2021.2.3,iPhone,29.41176471,,,,,,,,,,1.13,0,,,,,,,,,,,,,,,,,,,,,,,0.023469388,-0.398979592,1,0,0,,,,,,,POODLE,LB,m,m,./images/POODLELB.png,break_done_button,,,,,,,,,,,,,,,,,,,,0,-0.369387755,-0.334693878,1,0,0,1.13,button_left_test,0,41,41,81,1
,,,,,,,,,,,,,,,,,60ff2a99571ffa508c4b516f,19,2022-02-12_17h46.35.482,lexical_decision_task_DD_L3,2021.2.3,iPhone,29.41176471,,,,,,,,,,0.871,1,,,,,,,,,,,,,,,,,,,,,,,0.323469388,-0.248979592,1,0,0,,,,,,,TOMATO,LB,m,m,./images/TOMATOLB.png,,,,,,,,,,,,,,,,,,,,,0,0.323469388,-0.248979592,1,0,0,0.871,button_right_test,0,42,42,0,1
,,,,,,,,,,,,,,,,,60ff2a99571ffa508c4b516f,19,2022-02-12_17h46.35.482,lexical_decision_task_DD_L3,2021.2.3,iPhone,29.41176471,,,,,,,,,,1.062,1,,,,,,,,,,,,,,,,,,,,,,,-0.213265306,-0.284693878,1,0,0,,,,,,,BROOM,LB,z,m,./images/BROOMLB.png,,,,,,,,,,,,,,,,,,,,,0,-0.213265306,-0.284693878,1,0,0,1.062,button_left_test,0,43,43,162,1
,,,,,,,,,,,,,,,,,60ff2a99571ffa508c4b516f,19,2022-02-12_17h46.35.482,lexical_decision_task_DD_L3,2021.2.3,iPhone,29.41176471,,,,,,,,,,3.496,1,,,,,,,,,,,,,,,,,,,,,,,0.376530612,-0.298979592,1,0,0,,,,,,,SUNSET,C,m,m,./images/SUNSET.png,,,,,,,,,,,,,,,,,,,,,0,0.376530612,-0.298979592,1,0,0,3.496,button_right_test,0,44,44,82,1
,,,,,,,,,,,,,,,,,60ff2a99571ffa508c4b516f,19,2022-02-12_17h46.35.482,lexical_decision_task_DD_L3,2021.2.3,iPhone,29.41176471,,,,,,,,,,3.763,1,,,,,,,,,,,,,,,,,,,,,,,-0.210204082,-0.339795918,1,0,0,,,,,,,MIDGET,C,z,m,./images/MIDGET.png,,,,,,,,,,,,,,,,,,,,,0,-0.210204082,-0.339795918,1,0,0,3.763,button_left_test,0,45,45,160,1
,,,,,,,,,,,,,,,,,60ff2a99571ffa508c4b516f,19,2022-02-12_17h46.35.482,lexical_decision_task_DD_L3,2021.2.3,iPhone,29.41176471,,,,,,,,,,3.278,1,,,,,,,,,,,,,,,,,,,,,,,0.315306122,-0.326530612,1,0,0,,,,,,,WALRUS,HB,m,m,./images/WALRUSHB.png,,,,,,,,,,,,,,,,,,,,,0,0.315306122,-0.326530612,1,0,0,3.278,button_right_test,0,46,46,23,1
,,,,,,,,,,,,,,,,,60ff2a99571ffa508c4b516f,19,2022-02-12_17h46.35.482,lexical_decision_task_DD_L3,2021.2.3,iPhone,29.41176471,,,,,,,,,,1.03,0,,,,,,,,,,,,,,,,,,,,,,,0.341836735,-0.342857143,1,0,0,,,,,,,STAIN,LB,z,m,./images/STAINLB.png,,,,,,,,,,,,,,,,,,,,,0,0.341836735,-0.342857143,1,0,0,1.03,button_right_test,0,47,47,90,1
,,,,,,,,,,,,,,,,,60ff2a99571ffa508c4b516f,19,2022-02-12_17h46.35.482,lexical_decision_task_DD_L3,2021.2.3,iPhone,29.41176471,,,,,,,,,,0.962,0,,,,,,,,,,,,,,,,,,,,,,,-0.286734694,-0.37755102,1,0,0,,,,,,,JAGUAR,LB,m,m,./images/JAGUARLB.png,,,,,,,,,,,,,,,,,,,,,0,-0.286734694,-0.37755102,1,0,0,0.962,button_left_test,0,48,48,18,1
,,,,,,,,,,,,,,,,,60ff2a99571ffa508c4b516f,19,2022-02-12_17h46.35.482,lexical_decision_task_DD_L3,2021.2.3,iPhone,29.41176471,,,,,,,,,,0.864,1,,,,,,,,,,,,,,,,,,,,,,,-0.301020408,-0.357142857,1,0,0,,,,,,,BANANA,C,z,m,./images/BANANA.png,,,,,,,,,,,,,,,,,,,,,0,-0.301020408,-0.357142857,1,0,0,0.864,button_left_test,0,49,49,154,1
,,,,,,,,,,,,,,,,,60ff2a99571ffa508c4b516f,19,2022-02-12_17h46.35.482,lexical_decision_task_DD_L3,2021.2.3,iPhone,29.41176471,,,,,,,,,,5.696,1,,,,,,,,,,,,,,,,,,,,,,,-0.302040816,-0.397959184,1,0,0,,,,,,,MUMMY,C,z,m,./images/MUMMY.png,,,,,,,,,,,,,,,,,,,,,0,-0.302040816,-0.397959184,1,0,0,5.696,button_left_test,0,50,50,130,1
,,,,,,,,,,,,,,,,,60ff2a99571ffa508c4b516f,19,2022-02-12_17h46.35.482,lexical_decision_task_DD_L3,2021.2.3,iPhone,29.41176471,,,,,,,,,,1.506,1,,,,,,,,,,,,,,,,,,,,,,,0.412244898,-0.290816327,1,0,0,,,,,,,FINGER,LB,m,m,./images/FINGERLB.png,,,,,,,,,,,,,,,,,,,,,0,0.412244898,-0.290816327,1,0,0,1.506,button_right_test,0,51,51,3,1
,,,,,,,,,,,,,,,,,60ff2a99571ffa508c4b516f,19,2022-02-12_17h46.35.482,lexical_decision_task_DD_L3,2021.2.3,iPhone,29.41176471,,,,,,,,,,1.129,1,,,,,,,,,,,,,,,,,,,,,,,-0.340816327,-0.345918367,1,0,0,,,,,,,DANCER,LB,z,m,./images/DANCERLB.png,,,,,,,,,,,,,,,,,,,,,0,-0.343877551,-0.410204082,1,0,0,1.129,button_left_test,0,52,52,105,1
,,,,,,,,,,,,,,,,,60ff2a99571ffa508c4b516f,19,2022-02-12_17h46.35.482,lexical_decision_task_DD_L3,2021.2.3,iPhone,29.41176471,,,,,,,,,,2.165,1,,,,,,,,,,,,,,,,,,,,,,,0.346938776,-0.262244898,1,0,0,,,,,,,COUCH,HB,m,m,./images/COUCHHB.png,,,,,,,,,,,,,,,,,,,,,0,0.346938776,-0.262244898,1,0,0,2.165,button_right_test,0,53,53,77,1
,,,,,,,,,,,,,,,,,60ff2a99571ffa508c4b516f,19,2022-02-12_17h46.35.482,lexical_decision_task_DD_L3,2021.2.3,iPhone,29.41176471,,,,,,,,,,2.502,0,,,,,,,,,,,,,,,,,,,,,,,-0.32244898,-0.371428571,1,0,0,,,,,,,MOOSE,LB,m,m,./images/MOOSELB.png,,,,,,,,,,,,,,,,,,,,,0,-0.32244898,-0.371428571,1,0,0,2.502,button_left_test,0,54,54,57,1
,,,,,,,,,,,,,,,,,60ff2a99571ffa508c4b516f,19,2022-02-12_17h46.35.482,lexical_decision_task_DD_L3,2021.2.3,iPhone,29.41176471,,,,,,,,,,1.332,0,,,,,,,,,,,,,,,,,,,,,,,-0.339795918,-0.355102041,1,0,0,,,,,,,FARMER,HB,m,m,./images/FARMERHB.png,,,,,,,,,,,,,,,,,,,,,0,-0.339795918,-0.355102041,1,0,0,1.332,button_left_test,0,55,55,65,1
,,,,,,,,,,,,,,,,,60ff2a99571ffa508c4b516f,19,2022-02-12_17h46.35.482,lexical_decision_task_DD_L3,2021.2.3,iPhone,29.41176471,,,,,,,,,,1.474,0,,,,,,,,,,,,,,,,,,,,,,,0.35,-0.317346939,1,0,0,,,,,,,HAMMER,LB,z,m,./images/HAMMERLB.png,,,,,,,,,,,,,,,,,,,,,0,0.35,-0.317346939,1,0,0,1.474,button_right_test,0,56,56,159,1
,,,,,,,,,,,,,,,,,60ff2a99571ffa508c4b516f,19,2022-02-12_17h46.35.482,lexical_decision_task_DD_L3,2021.2.3,iPhone,29.41176471,,,,,,,,,,4.374,0,,,,,,,,,,,,,,,,,,,,,,,-0.284693878,-0.336734694,1,0,0,,,,,,,TRIPOD,LB,m,m,./images/TRIPODLB.png,,,,,,,,,,,,,,,,,,,,,0,-0.284693878,-0.336734694,1,0,0,4.374,button_left_test,0,57,57,54,1
,,,,,,,,,,,,,,,,,60ff2a99571ffa508c4b516f,19,2022-02-12_17h46.35.482,lexical_decision_task_DD_L3,2021.2.3,iPhone,29.41176471,,,,,,,,,,3.429,0,,,,,,,,,,,,,,,,,,,,,,,-0.273469388,-0.307142857,1,0,0,,,,,,,MUFFIN,C,m,m,./images/MUFFIN.png,,,,,,,,,,,,,,,,,,,,,0,-0.273469388,-0.307142857,1,0,0,3.429,button_left_test,0,58,58,55,1
,,,,,,,,,,,,,,,,,60ff2a99571ffa508c4b516f,19,2022-02-12_17h46.35.482,lexical_decision_task_DD_L3,2021.2.3,iPhone,29.41176471,,,,,,,,,,1.033,1,,,,,,,,,,,,,,,,,,,,,,,0.379591837,-0.35,1,0,0,,,,,,,BONNET,HB,m,m,./images/BONNETHB.png,,,,,,,,,,,,,,,,,,,,,0,0.379591837,-0.35,1,0,0,1.033,button_right_test,0,59,59,11,1
,,,,,,,,,,,,,,,,,60ff2a99571ffa508c4b516f,19,2022-02-12_17h46.35.482,lexical_decision_task_DD_L3,2021.2.3,iPhone,29.41176471,,,,,,,,,,4.169,0,,,,,,,,,,,,,,,,,,,,,,,-0.354081633,-0.336734694,1,0,0,,,,,,,PENCE,C,m,m,./images/PENCE.png,,,,,,,,,,,,,,,,,,,,,0,-0.354081633,-0.336734694,1,0,0,4.169,button_left_test,0,60,60,16,1
,,,,,,,,,,,,,,,,,60ff2a99571ffa508c4b516f,19,2022-02-12_17h46.35.482,lexical_decision_task_DD_L3,2021.2.3,iPhone,29.41176471,,,,,,,,,,1.096,0,,,,,,,,,,,,,,,,,,,,,,,-0.319387755,-0.306122449,1,0,0,,,,,,,LADDER,HB,m,m,./images/LADDERHB.png,,,,,,,,,,,,,,,,,,,,,0,-0.319387755,-0.306122449,1,0,0,1.096,button_left_test,0,61,61,38,1
,,,,,,,,,,,,,,,,,60ff2a99571ffa508c4b516f,19,2022-02-12_17h46.35.482,lexical_decision_task_DD_L3,2021.2.3,iPhone,29.41176471,,,,,,,,,,1.029,0,,,,,,,,,,,,,,,,,,,,,,,-0.320408163,-0.370408163,1,0,0,,,,,,,KIDNEY,LB,m,m,./images/KIDNEYLB.png,,,,,,,,,,,,,,,,,,,,,0,-0.320408163,-0.370408163,1,0,0,1.029,button_left_test,0,62,62,21,1
,,,,,,,,,,,,,,,,,60ff2a99571ffa508c4b516f,19,2022-02-12_17h46.35.482,lexical_decision_task_DD_L3,2021.2.3,iPhone,29.41176471,,,,,,,,,,0.862,0,,,,,,,,,,,,,,,,,,,,,,,-0.286734694,-0.304081633,1,0,0,,,,,,,BERRY,HB,m,m,./images/BERRYHB.png,,,,,,,,,,,,,,,,,,,,,0,-0.286734694,-0.304081633,1,0,0,0.862,button_left_test,0,63,63,47,1
,,,,,,,,,,,,,,,,,60ff2a99571ffa508c4b516f,19,2022-02-12_17h46.35.482,lexical_decision_task_DD_L3,2021.2.3,iPhone,29.41176471,,,,,,,,,,0.837,1,,,,,,,,,,,,,,,,,,,,,,,-0.279591837,-0.356122449,1,0,0,,,,,,,HOCKEY,HB,z,m,./images/HOCKEYHB.png,,,,,,,,,,,,,,,,,,,,,0,-0.279591837,-0.356122449,1,0,0,0.837,button_left_test,0,64,64,116,1
,,,,,,,,,,,,,,,,,60ff2a99571ffa508c4b516f,19,2022-02-12_17h46.35.482,lexical_decision_task_DD_L3,2021.2.3,iPhone,29.41176471,,,,,,,,,,0.965,1,,,,,,,,,,,,,,,,,,,,,,,0.341836735,-0.266326531,1,0,0,,,,,,,SWING,C,m,m,./images/SWING.png,,,,,,,,,,,,,,,,,,,,,0,0.341836735,-0.266326531,1,0,0,0.965,button_right_test,0,65,65,40,1
,,,,,,,,,,,,,,,,,60ff2a99571ffa508c4b516f,19,2022-02-12_17h46.35.482,lexical_decision_task_DD_L3,2021.2.3,iPhone,29.41176471,,,,,,,,,,1.04,1,,,,,,,,,,,,,,,,,,,,,,,-0.262244898,-0.345918367,1,0,0,,,,,,,PISTOL,HB,z,m,./images/PISTOLHB.png,,,,,,,,,,,,,,,,,,,,,0,-0.262244898,-0.345918367,1,0,0,1.04,button_left_test,0,66,66,113,1
,,,,,,,,,,,,,,,,,60ff2a99571ffa508c4b516f,19,2022-02-12_17h46.35.482,lexical_decision_task_DD_L3,2021.2.3,iPhone,29.41176471,,,,,,,,,,1.961,1,,,,,,,,,,,,,,,,,,,,,,,-0.326530612,-0.310204082,1,0,0,,,,,,,PILOT,HB,z,m,./images/PILOTHB.png,,,,,,,,,,,,,,,,,,,,,0,-0.326530612,-0.310204082,1,0,0,1.961,button_left_test,0,67,67,134,1
,,,,,,,,,,,,,,,,,60ff2a99571ffa508c4b516f,19,2022-02-12_17h46.35.482,lexical_decision_task_DD_L3,2021.2.3,iPhone,29.41176471,,,,,,,,,,0.964,0,,,,,,,,,,,,,,,,,,,,,,,-0.279591837,-0.310204082,1,0,0,,,,,,,PAINT,C,m,m,./images/PAINT.png,,,,,,,,,,,,,,,,,,,,,0,-0.279591837,-0.310204082,1,0,0,0.964,button_left_test,0,68,68,7,1
,,,,,,,,,,,,,,,,,60ff2a99571ffa508c4b516f,19,2022-02-12_17h46.35.482,lexical_decision_task_DD_L3,2021.2.3,iPhone,29.41176471,,,,,,,,,,1.372,1,,,,,,,,,,,,,,,,,,,,,,,0.380612245,-0.275510204,1,0,0,,,,,,,CARPET,HB,m,m,./images/CARPETHB.png,,,,,,,,,,,,,,,,,,,,,0,0.380612245,-0.275510204,1,0,0,1.372,button_right_test,0,69,69,53,1
,,,,,,,,,,,,,,,,,60ff2a99571ffa508c4b516f,19,2022-02-12_17h46.35.482,lexical_decision_task_DD_L3,2021.2.3,iPhone,29.41176471,,,,,,,,,,1.429,1,,,,,,,,,,,,,,,,,,,,,,,0.404081633,-0.270408163,1,0,0,,,,,,,CRADLE,HB,m,m,./images/CRADLEHB.png,,,,,,,,,,,,,,,,,,,,,0,0.404081633,-0.270408163,1,0,0,1.429,button_right_test,0,70,70,20,1
,,,,,,,,,,,,,,,,,60ff2a99571ffa508c4b516f,19,2022-02-12_17h46.35.482,lexical_decision_task_DD_L3,2021.2.3,iPhone,29.41176471,,,,,,,,,,0.731,0,,,,,,,,,,,,,,,,,,,,,,,-0.305102041,-0.317346939,1,0,0,,,,,,,SPORT,LB,m,m,./images/SPORTLB.png,,,,,,,,,,,,,,,,,,,,,0,-0.305102041,-0.317346939,1,0,0,0.731,button_left_test,0,71,71,48,1
,,,,,,,,,,,,,,,,,60ff2a99571ffa508c4b516f,19,2022-02-12_17h46.35.482,lexical_decision_task_DD_L3,2021.2.3,iPhone,29.41176471,,,,,,,,,,1.663,1,,,,,,,,,,,,,,,,,,,,,,,-0.340816327,-0.314285714,1,0,0,,,,,,,SNAKE,C,z,m,./images/SNAKE.png,,,,,,,,,,,,,,,,,,,,,0,-0.340816327,-0.314285714,1,0,0,1.663,button_left_test,0,72,72,124,1
,,,,,,,,,,,,,,,,,60ff2a99571ffa508c4b516f,19,2022-02-12_17h46.35.482,lexical_decision_task_DD_L3,2021.2.3,iPhone,29.41176471,,,,,,,,,,1.803,1,,,,,,,,,,,,,,,,,,,,,,,0.389795918,-0.302040816,1,0,0,,,,,,,WEASEL,HB,m,m,./images/WEASELHB.png,,,,,,,,,,,,,,,,,,,,,0,0.389795918,-0.302040816,1,0,0,1.803,button_right_test,0,73,73,80,1
,,,,,,,,,,,,,,,,,60ff2a99571ffa508c4b516f,19,2022-02-12_17h46.35.482,lexical_decision_task_DD_L3,2021.2.3,iPhone,29.41176471,,,,,,,,,,5.663,1,,,,,,,,,,,,,,,,,,,,,,,-0.306122449,-0.353061224,1,0,0,,,,,,,BLOKE,LB,z,m,./images/BLOKELB.png,,,,,,,,,,,,,,,,,,,,,0,-0.306122449,-0.353061224,1,0,0,5.663,button_left_test,0,74,74,96,1
,,,,,,,,,,,,,,,,,60ff2a99571ffa508c4b516f,19,2022-02-12_17h46.35.482,lexical_decision_task_DD_L3,2021.2.3,iPhone,29.41176471,,,,,,,,,,2.297,0,,,,,,,,,,,,,,,,,,,,,,,-0.274489796,-0.330612245,1,0,0,,,,,,,MOTOR,C,m,m,./images/MOTOR.png,,,,,,,,,,,,,,,,,,,,,0,-0.274489796,-0.330612245,1,0,0,2.297,button_left_test,0,75,75,13,1
,,,,,,,,,,,,,,,,,60ff2a99571ffa508c4b516f,19,2022-02-12_17h46.35.482,lexical_decision_task_DD_L3,2021.2.3,iPhone,29.41176471,,,,,,,,,,4.13,0,,,,,,,,,,,,,,,,,,,,,,,-0.283673469,-0.352040816,1,0,0,,,,,,,DRUMS,C,m,m,./images/DRUMS.png,,,,,,,,,,,,,,,,,,,,,0,-0.283673469,-0.352040816,1,0,0,4.13,button_left_test,0,76,76,49,1
,,,,,,,,,,,,,,,,,60ff2a99571ffa508c4b516f,19,2022-02-12_17h46.35.482,lexical_decision_task_DD_L3,2021.2.3,iPhone,29.41176471,,,,,,,,,,1.008,1,,,,,,,,,,,,,,,,,,,,,,,-0.278571429,-0.33877551,1,0,0,,,,,,,FERRY,LB,z,m,./images/FERRYLB.png,,,,,,,,,,,,,,,,,,,,,0,-0.278571429,-0.33877551,1,0,0,1.008,button_left_test,0,77,77,141,1
,,,,,,,,,,,,,,,,,60ff2a99571ffa508c4b516f,19,2022-02-12_17h46.35.482,lexical_decision_task_DD_L3,2021.2.3,iPhone,29.41176471,,,,,,,,,,0.807,0,,,,,,,,,,,,,,,,,,,,,,,-0.263265306,-0.336734694,1,0,0,,,,,,,JUNGLE,HB,m,m,./images/JUNGLEHB.png,,,,,,,,,,,,,,,,,,,,,0,-0.263265306,-0.336734694,1,0,0,0.807,button_left_test,0,78,78,83,1
,,,,,,,,,,,,,,,,,60ff2a99571ffa508c4b516f,19,2022-02-12_17h46.35.482,lexical_decision_task_DD_L3,2021.2.3,iPhone,29.41176471,,,,,,,,,,0.804,1,,,,,,,,,,,,,,,,,,,,,,,-0.279591837,-0.353061224,1,0,0,,,,,,,BUNNY,C,z,m,./images/BUNNY.png,,,,,,,,,,,,,,,,,,,,,0,-0.279591837,-0.353061224,1,0,0,0.804,button_left_test,0,79,79,97,1
,,,,,,,,,,,,,,,,,60ff2a99571ffa508c4b516f,19,2022-02-12_17h46.35.482,lexical_decision_task_DD_L3,2021.2.3,iPhone,29.41176471,,,,,,,,,,1.07,1,,,,,,,,,,,,,,,,,,,,,,,-0.283673469,-0.325510204,1,0,0,,,,,,,LLAMA,HB,z,m,./images/LLAMAHB.png,,,,,,,,,,,,,,,,,,,,,0,-0.283673469,-0.325510204,1,0,0,1.07,button_left_test,0,80,80,119,1
,,,,,,,,,,,,,,,,,60ff2a99571ffa508c4b516f,19,2022-02-12_17h46.35.482,lexical_decision_task_DD_L3,2021.2.3,iPhone,29.41176471,,,,,,,,,,4.104,0,,,,,,,,,,,,,,,,,,,,,,,-0.31122449,-0.307142857,1,0,0,,,,,,,ATTIC,LB,m,m,./images/ATTICLB.png,,,,,,,,,,,,,,,,,,,,,0,-0.31122449,-0.307142857,1,0,0,4.104,button_left_test,0,81,81,27,1
,,,,,,,,,,,,,,,,,60ff2a99571ffa508c4b516f,19,2022-02-12_17h46.35.482,lexical_decision_task_DD_L3,2021.2.3,iPhone,29.41176471,,,,,,,,,,1.696,1,,,,,,,,,,,,,,,,,,,,,,,-0.324489796,-0.281632653,1,0,0,,,,,,,BRIDE,C,z,m,./images/BRIDE.png,,,,,,,,,,,,,,,,,,,,,0,-0.324489796,-0.281632653,1,0,0,1.696,button_left_test,0,82,82,148,1
,,,,,,,,,,,,,,,,,60ff2a99571ffa508c4b516f,19,2022-02-12_17h46.35.482,lexical_decision_task_DD_L3,2021.2.3,iPhone,29.41176471,,,,,,,,,,2.238,0,,,,,,,,,,,,,,,,,,,,,,,0.015306122,-0.448979592,1,0,0,,,,,,,BELLY,C,m,m,./images/BELLY.png,break_done_button,,,,,,,,,,,,,,,,,,,,0,-0.326530612,-0.275510204,1,0,0,2.238,button_left_test,0,83,83,10,1
,,,,,,,,,,,,,,,,,60ff2a99571ffa508c4b516f,19,2022-02-12_17h46.35.482,lexical_decision_task_DD_L3,2021.2.3,iPhone,29.41176471,,,,,,,,,,1.997,0,,,,,,,,,,,,,,,,,,,,,,,-0.308163265,-0.341836735,1,0,0,,,,,,,PASTA,HB,m,m,./images/PASTAHB.png,,,,,,,,,,,,,,,,,,,,,0,-0.308163265,-0.341836735,1,0,0,1.997,button_left_test,0,84,84,5,1
,,,,,,,,,,,,,,,,,60ff2a99571ffa508c4b516f,19,2022-02-12_17h46.35.482,lexical_decision_task_DD_L3,2021.2.3,iPhone,29.41176471,,,,,,,,,,7.496,1,,,,,,,,,,,,,,,,,,,,,,,0.370408163,-0.321428571,1,0,0,,,,,,,WRIST,C,m,m,./images/WRIST.png,,,,,,,,,,,,,,,,,,,,,0,0.370408163,-0.321428571,1,0,0,7.496,button_right_test,0,85,85,25,1
,,,,,,,,,,,,,,,,,60ff2a99571ffa508c4b516f,19,2022-02-12_17h46.35.482,lexical_decision_task_DD_L3,2021.2.3,iPhone,29.41176471,,,,,,,,,,3.728,0,,,,,,,,,,,,,,,,,,,,,,,-0.283673469,-0.353061224,1,0,0,,,,,,,PLANK,C,m,m,./images/PLANK.png,,,,,,,,,,,,,,,,,,,,,0,-0.283673469,-0.353061224,1,0,0,3.728,button_left_test,0,86,86,1,1
,,,,,,,,,,,,,,,,,60ff2a99571ffa508c4b516f,19,2022-02-12_17h46.35.482,lexical_decision_task_DD_L3,2021.2.3,iPhone,29.41176471,,,,,,,,,,0.83,1,,,,,,,,,,,,,,,,,,,,,,,-0.28877551,-0.306122449,1,0,0,,,,,,,SHIELD,LB,z,m,./images/SHIELDLB.png,,,,,,,,,,,,,,,,,,,,,0,-0.28877551,-0.306122449,1,0,0,0.83,button_left_test,0,87,87,132,1
,,,,,,,,,,,,,,,,,60ff2a99571ffa508c4b516f,19,2022-02-12_17h46.35.482,lexical_decision_task_DD_L3,2021.2.3,iPhone,29.41176471,,,,,,,,,,1.331,1,,,,,,,,,,,,,,,,,,,,,,,-0.303061224,-0.318367347,1,0,0,,,,,,,ARTIST,C,z,m,./images/ARTIST.png,,,,,,,,,,,,,,,,,,,,,0,-0.303061224,-0.318367347,1,0,0,1.331,button_left_test,0,88,88,145,1
,,,,,,,,,,,,,,,,,60ff2a99571ffa508c4b516f,19,2022-02-12_17h46.35.482,lexical_decision_task_DD_L3,2021.2.3,iPhone,29.41176471,,,,,,,,,,0.972,1,,,,,,,,,,,,,,,,,,,,,,,-0.304081633,-0.356122449,1,0,0,,,,,,,CASINO,C,z,m,./images/CASINO.png,,,,,,,,,,,,,,,,,,,,,0,-0.304081633,-0.356122449,1,0,0,0.972,button_left_test,0,89,89,112,1
,,,,,,,,,,,,,,,,,60ff2a99571ffa508c4b516f,19,2022-02-12_17h46.35.482,lexical_decision_task_DD_L3,2021.2.3,iPhone,29.41176471,,,,,,,,,,0.929,1,,,,,,,,,,,,,,,,,,,,,,,-0.298979592,-0.321428571,1,0,0,,,,,,,RAZOR,C,z,m,./images/RAZOR.png,,,,,,,,,,,,,,,,,,,,,0,-0.298979592,-0.321428571,1,0,0,0.929,button_left_test,0,90,90,118,1
,,,,,,,,,,,,,,,,,60ff2a99571ffa508c4b516f,19,2022-02-12_17h46.35.482,lexical_decision_task_DD_L3,2021.2.3,iPhone,29.41176471,,,,,,,,,,0.795,1,,,,,,,,,,,,,,,,,,,,,,,-0.295918367,-0.365306122,1,0,0,,,,,,,STEAK,C,z,m,./images/STEAK.png,,,,,,,,,,,,,,,,,,,,,0,-0.295918367,-0.365306122,1,0,0,0.795,button_left_test,0,91,91,115,1
,,,,,,,,,,,,,,,,,60ff2a99571ffa508c4b516f,19,2022-02-12_17h46.35.482,lexical_decision_task_DD_L3,2021.2.3,iPhone,29.41176471,,,,,,,,,,1.691,0,,,,,,,,,,,,,,,,,,,,,,,-0.331632653,-0.280612245,1,0,0,,,,,,,NOOSE,LB,m,m,./images/NOOSELB.png,,,,,,,,,,,,,,,,,,,,,0,-0.331632653,-0.280612245,1,0,0,1.691,button_left_test,0,92,92,72,1
,,,,,,,,,,,,,,,,,60ff2a99571ffa508c4b516f,19,2022-02-12_17h46.35.482,lexical_decision_task_DD_L3,2021.2.3,iPhone,29.41176471,,,,,,,,,,0.865,1,,,,,,,,,,,,,,,,,,,,,,,0.356122449,-0.317346939,1,0,0,,,,,,,CRUMB,HB,m,m,./images/CRUMBHB.png,,,,,,,,,,,,,,,,,,,,,0,0.356122449,-0.317346939,1,0,0,0.865,button_right_test,0,93,93,29,1
,,,,,,,,,,,,,,,,,60ff2a99571ffa508c4b516f,19,2022-02-12_17h46.35.482,lexical_decision_task_DD_L3,2021.2.3,iPhone,29.41176471,,,,,,,,,,0.902,0,,,,,,,,,,,,,,,,,,,,,,,-0.310204082,-0.337755102,1,0,0,,,,,,,ONION,LB,m,m,./images/ONIONLB.png,,,,,,,,,,,,,,,,,,,,,0,-0.310204082,-0.337755102,1,0,0,0.902,button_left_test,0,94,94,51,1
,,,,,,,,,,,,,,,,,60ff2a99571ffa508c4b516f,19,2022-02-12_17h46.35.482,lexical_decision_task_DD_L3,2021.2.3,iPhone,29.41176471,,,,,,,,,,1.873,1,,,,,,,,,,,,,,,,,,,,,,,-0.329591837,-0.323469388,1,0,0,,,,,,,MAMMAL,HB,z,m,./images/MAMMALHB.png,,,,,,,,,,,,,,,,,,,,,0,-0.329591837,-0.323469388,1,0,0,1.873,button_left_test,0,95,95,146,1
