key_resp.keys,key_resp.rt,instr_done_touch.x,instr_done_touch.y,instr_done_touch.leftButton,instr_done_touch.midButton,instr_done_touch.rightButton,instruction_pages.thisRepN,instruction_pages.thisTrialN,instruction_pages.thisN,instruction_pages.thisIndex,instruction_pages.ran,pageN,phase,instruct_text,has_image,instruct_image,participant,age,date,expName,psychopyVersion,OS,frameRate,response.keys,response.corr,response.rt,touch_resp.x,touch_resp.y,touch_resp.leftButton,touch_resp.midButton,touch_resp.rightButton,touch_resp.time,touch_resp.clicked_name,rt,corr,practrials.thisRepN,practrials.thisTrialN,practrials.thisN,practrials.thisIndex,practrials.ran,TrialID,Target,corrAns,end_of_practice_trials_pages.thisRepN,end_of_practice_trials_pages.thisTrialN,end_of_practice_trials_pages.thisN,end_of_practice_trials_pages.thisIndex,end_of_practice_trials_pages.ran,key_resp_2.keys,key_resp_2.corr,key_resp_2.rt,targ_click.x,targ_click.y,targ_click.leftButton,targ_click.midButton,targ_click.rightButton,targ_click.time,targ_click.clicked_name,break_done_touch.x,break_done_touch.y,break_done_touch.leftButton,break_done_touch.midButton,break_done_touch.rightButton,break_done_keyboard.keys,maintrials.thisRepN,maintrials.thisTrialN,maintrials.thisN,maintrials.thisIndex,maintrials.ran,string,blur,study,lex,stim_path,break_done_keyboard.rt,mouse_2.x,mouse_2.y,mouse_2.leftButton,mouse_2.midButton,mouse_2.rightButton,mouse_2.clicked_name,slider.response,slider.rt,trials.thisRepN,trials.thisTrialN,trials.thisN,trials.thisIndex,trials.ran,test_instructions.thisRepN,test_instructions.thisTrialN,test_instructions.thisN,test_instructions.thisIndex,test_instructions.ran,instr_done_touch.clicked_name,key_resp_3.keys,key_resp_3.corr,key_resp_3.rt,test_click.x,test_click.y,test_click.leftButton,test_click.midButton,test_click.rightButton,test_click.time,test_click.clicked_name,test_phase.thisRepN,test_phase.thisTrialN,test_phase.thisN,test_phase.thisIndex,test_phase.ran
space,44.0013,0.024739583,-0.39453125,0,0,0,0,0,0,0,1,1,instructions,"INSTRUCTIONS
At the start of each trial, look at the plus sign  (+) in the center of the screen.  This tells you that a trial is about to begin and where to look. Second, the plus sign will disappear and a string of letters will appear. Your task is to determine if the string of letters is a word or not. If the item is a word press the M key (on keyboard)  or touch the word button (phone/tablet).  If the item is not a word,  press the  Z key (on keyboard)  or touch the nonword button (on phone/tablet). 
Press the space bar or touch  continue.",0,,6107272874f58769a86a21b9,50,2022-02-12_13h20.34.088,lexical_decision_task_DD_L3,2021.2.3,Win32,60.39012018,,,,,,,,,,,,,,,,,,,,,,,,,,,,,,,,,,,,,,,,,,,,,,,,,,,,,,,,,,,,,,,,,,,,,,,,,,,,,,,,,,,,,,
space,14.5573,0.024739583,-0.39453125,0,0,0,0,1,1,1,1,2,instructions,"If your device has a keyboard, press the 'Z' key for nonwords and the 'M' key for words.





Press the space bar or touch the button below to continue.",0,keyboard-example.gif,6107272874f58769a86a21b9,50,2022-02-12_13h20.34.088,lexical_decision_task_DD_L3,2021.2.3,Win32,60.39012018,,,,,,,,,,,,,,,,,,,,,,,,,,,,,,,,,,,,,,,,,,,,,,,,,,,,,,,,,,,,,,,,,,,,,,,,,,,,,,,,,,,,,,
space,5.3905,0.024739583,-0.39453125,0,0,0,0,2,2,2,1,3,instructions,"If you are using a touchscreen only device, use the buttons on the screen. Do not use the mouse.





Press the space bar or touch the button below to continue.",0,touchscreen-example.gif,6107272874f58769a86a21b9,50,2022-02-12_13h20.34.088,lexical_decision_task_DD_L3,2021.2.3,Win32,60.39012018,,,,,,,,,,,,,,,,,,,,,,,,,,,,,,,,,,,,,,,,,,,,,,,,,,,,,,,,,,,,,,,,,,,,,,,,,,,,,,,,,,,,,,
space,17.8457,0.024739583,-0.39453125,0,0,0,0,3,3,3,1,4,instructions,"It is very important that you respond as quickly and accurately as possible, as each letter string will only be on the screen for two seconds. If you do not respond within this time, the message 'Too slow!' will be displayed and the experiment will progress to the next letter string. The first 20 trials will be practice trials and you will receive feedback on your answers. 

Press the space bar or touch the button below to start the practice trials.",0,,6107272874f58769a86a21b9,50,2022-02-12_13h20.34.088,lexical_decision_task_DD_L3,2021.2.3,Win32,60.39012018,,,,,,,,,,,,,,,,,,,,,,,,,,,,,,,,,,,,,,,,,,,,,,,,,,,,,,,,,,,,,,,,,,,,,,,,,,,,,,,,,,,,,,
,,,,,,,,,,,,,,,,,6107272874f58769a86a21b9,50,2022-02-12_13h20.34.088,lexical_decision_task_DD_L3,2021.2.3,Win32,60.39012018,m,1,1.269200001,,,,,,,,1.269200001,1,0,0,0,2,1,1001,ALMOND,m,,,,,,,,,,,,,,,,,,,,,,,,,,,,,,,,,,,,,,,,,,,,,,,,,,,,,,,,,,,,,,,,,,
,,,,,,,,,,,,,,,,,6107272874f58769a86a21b9,50,2022-02-12_13h20.34.088,lexical_decision_task_DD_L3,2021.2.3,Win32,60.39012018,m,1,1.298,,,,,,,,1.298,1,0,1,1,5,1,1001,OBTAIN,m,,,,,,,,,,,,,,,,,,,,,,,,,,,,,,,,,,,,,,,,,,,,,,,,,,,,,,,,,,,,,,,,,,
,,,,,,,,,,,,,,,,,6107272874f58769a86a21b9,50,2022-02-12_13h20.34.088,lexical_decision_task_DD_L3,2021.2.3,Win32,60.39012018,m,1,1.2558,,,,,,,,1.2558,1,0,2,2,3,1,1001,MATRIX,m,,,,,,,,,,,,,,,,,,,,,,,,,,,,,,,,,,,,,,,,,,,,,,,,,,,,,,,,,,,,,,,,,,
,,,,,,,,,,,,,,,,,6107272874f58769a86a21b9,50,2022-02-12_13h20.34.088,lexical_decision_task_DD_L3,2021.2.3,Win32,60.39012018,z,1,1.2415,,,,,,,,1.2415,1,0,3,3,12,1,1001,SPRINY,z,,,,,,,,,,,,,,,,,,,,,,,,,,,,,,,,,,,,,,,,,,,,,,,,,,,,,,,,,,,,,,,,,,
,,,,,,,,,,,,,,,,,6107272874f58769a86a21b9,50,2022-02-12_13h20.34.088,lexical_decision_task_DD_L3,2021.2.3,Win32,60.39012018,z,1,1.141599999,,,,,,,,1.141599999,1,0,4,4,15,1,1001,WHAISE,z,,,,,,,,,,,,,,,,,,,,,,,,,,,,,,,,,,,,,,,,,,,,,,,,,,,,,,,,,,,,,,,,,,
,,,,,,,,,,,,,,,,,6107272874f58769a86a21b9,50,2022-02-12_13h20.34.088,lexical_decision_task_DD_L3,2021.2.3,Win32,60.39012018,z,1,1.2402,,,,,,,,1.2402,1,0,5,5,9,1,1001,FARINY,z,,,,,,,,,,,,,,,,,,,,,,,,,,,,,,,,,,,,,,,,,,,,,,,,,,,,,,,,,,,,,,,,,,
,,,,,,,,,,,,,,,,,6107272874f58769a86a21b9,50,2022-02-12_13h20.34.088,lexical_decision_task_DD_L3,2021.2.3,Win32,60.39012018,m,1,1.0423,,,,,,,,1.0423,1,0,6,6,4,1,1001,SQUEAK,m,,,,,,,,,,,,,,,,,,,,,,,,,,,,,,,,,,,,,,,,,,,,,,,,,,,,,,,,,,,,,,,,,,
,,,,,,,,,,,,,,,,,6107272874f58769a86a21b9,50,2022-02-12_13h20.34.088,lexical_decision_task_DD_L3,2021.2.3,Win32,60.39012018,m,1,0.9462,,,,,,,,0.9462,1,0,7,7,1,1,1001,ADJUST,m,,,,,,,,,,,,,,,,,,,,,,,,,,,,,,,,,,,,,,,,,,,,,,,,,,,,,,,,,,,,,,,,,,
,,,,,,,,,,,,,,,,,6107272874f58769a86a21b9,50,2022-02-12_13h20.34.088,lexical_decision_task_DD_L3,2021.2.3,Win32,60.39012018,z,1,0.9287,,,,,,,,0.9287,1,0,8,8,8,1,1001,ASLERT,z,,,,,,,,,,,,,,,,,,,,,,,,,,,,,,,,,,,,,,,,,,,,,,,,,,,,,,,,,,,,,,,,,,
,,,,,,,,,,,,,,,,,6107272874f58769a86a21b9,50,2022-02-12_13h20.34.088,lexical_decision_task_DD_L3,2021.2.3,Win32,60.39012018,m,1,0.8481,,,,,,,,0.8481,1,0,9,9,6,1,1001,ZOMBIE,m,,,,,,,,,,,,,,,,,,,,,,,,,,,,,,,,,,,,,,,,,,,,,,,,,,,,,,,,,,,,,,,,,,
,,,,,,,,,,,,,,,,,6107272874f58769a86a21b9,50,2022-02-12_13h20.34.088,lexical_decision_task_DD_L3,2021.2.3,Win32,60.39012018,z,1,1.782,,,,,,,,1.782,1,0,10,10,13,1,1001,ROUPET,z,,,,,,,,,,,,,,,,,,,,,,,,,,,,,,,,,,,,,,,,,,,,,,,,,,,,,,,,,,,,,,,,,,
,,,,,,,,,,,,,,,,,6107272874f58769a86a21b9,50,2022-02-12_13h20.34.088,lexical_decision_task_DD_L3,2021.2.3,Win32,60.39012018,z,1,1.1564,,,,,,,,1.1564,1,0,11,11,14,1,1001,THRALE,z,,,,,,,,,,,,,,,,,,,,,,,,,,,,,,,,,,,,,,,,,,,,,,,,,,,,,,,,,,,,,,,,,,
,,,,,,,,,,,,,,,,,6107272874f58769a86a21b9,50,2022-02-12_13h20.34.088,lexical_decision_task_DD_L3,2021.2.3,Win32,60.39012018,z,1,1.113,,,,,,,,1.113,1,0,12,12,11,1,1001,RASHET,z,,,,,,,,,,,,,,,,,,,,,,,,,,,,,,,,,,,,,,,,,,,,,,,,,,,,,,,,,,,,,,,,,,
,,,,,,,,,,,,,,,,,6107272874f58769a86a21b9,50,2022-02-12_13h20.34.088,lexical_decision_task_DD_L3,2021.2.3,Win32,60.39012018,m,1,0.975900001,,,,,,,,0.975900001,1,0,13,13,0,1,1001,UTOPIA,m,,,,,,,,,,,,,,,,,,,,,,,,,,,,,,,,,,,,,,,,,,,,,,,,,,,,,,,,,,,,,,,,,,
,,,,,,,,,,,,,,,,,6107272874f58769a86a21b9,50,2022-02-12_13h20.34.088,lexical_decision_task_DD_L3,2021.2.3,Win32,60.39012018,z,1,0.9583,,,,,,,,0.9583,1,0,14,14,10,1,1001,INLADE,z,,,,,,,,,,,,,,,,,,,,,,,,,,,,,,,,,,,,,,,,,,,,,,,,,,,,,,,,,,,,,,,,,,
,,,,,,,,,,,,,,,,,6107272874f58769a86a21b9,50,2022-02-12_13h20.34.088,lexical_decision_task_DD_L3,2021.2.3,Win32,60.39012018,m,1,0.8406,,,,,,,,0.8406,1,0,15,15,7,1,1001,VOLUME,m,,,,,,,,,,,,,,,,,,,,,,,,,,,,,,,,,,,,,,,,,,,,,,,,,,,,,,,,,,,,,,,,,,
space,15.863,0.024739583,-0.39453125,0,0,0,,,,,,1,end_of_practice,"You have completed the practice trials. During the experimental trials, you will not receive feedback. 
Before you begin, please ensure that you are in a comfortable and quiet location and will not be disturbed for about 15 minutes, as we cannot use your data if you do not complete all the trials. 
 When you are ready to start the experimental trials, please press space or touch the button below.",,,6107272874f58769a86a21b9,50,2022-02-12_13h20.34.088,lexical_decision_task_DD_L3,2021.2.3,Win32,60.39012018,,,,,,,,,,,,,,,,,,,,,0,0,0,0,1,,,,,,,,,,,,,,,,,,,,,,,,,,,,,,,,,,,,,,,,,,,,,,,,,,,,,,,,,,,,,
,,,,,,,,,,,,,,,,,6107272874f58769a86a21b9,50,2022-02-12_13h20.34.088,lexical_decision_task_DD_L3,2021.2.3,Win32,60.39012018,,,,,,,,,,,0.8645,1,,,,,,,,,,,,,,m,1,0.8645,,,,,,,,0.024739583,-0.39453125,0,0,0,,0,0,0,18,1,JAGUAR,LB,old,m,./images/JAGUARLB.png,,,,,,,,,,,,,,,,,,,,,,,,,,,,,,,,,,,
,,,,,,,,,,,,,,,,,6107272874f58769a86a21b9,50,2022-02-12_13h20.34.088,lexical_decision_task_DD_L3,2021.2.3,Win32,60.39012018,,,,,,,,,,,1.0219,1,,,,,,,,,,,,,,z,1,1.0219,,,,,,,,0.024739583,-0.39453125,0,0,0,,0,1,1,125,1,MOOKY,LB,old,z,./images/MOOKYLB.png,,,,,,,,,,,,,,,,,,,,,,,,,,,,,,,,,,,
,,,,,,,,,,,,,,,,,6107272874f58769a86a21b9,50,2022-02-12_13h20.34.088,lexical_decision_task_DD_L3,2021.2.3,Win32,60.39012018,,,,,,,,,,,1.1625,1,,,,,,,,,,,,,,z,1,1.1625,,,,,,,,0.024739583,-0.39453125,0,0,0,,0,2,2,127,1,NINDY,HB,old,z,./images/NINDYHB.png,,,,,,,,,,,,,,,,,,,,,,,,,,,,,,,,,,,
,,,,,,,,,,,,,,,,,6107272874f58769a86a21b9,50,2022-02-12_13h20.34.088,lexical_decision_task_DD_L3,2021.2.3,Win32,60.39012018,,,,,,,,,,,0.7551,1,,,,,,,,,,,,,,m,1,0.7551,,,,,,,,0.024739583,-0.39453125,0,0,0,,0,3,3,34,1,CANYON,C,old,m,./images/CANYON.png,,,,,,,,,,,,,,,,,,,,,,,,,,,,,,,,,,,
,,,,,,,,,,,,,,,,,6107272874f58769a86a21b9,50,2022-02-12_13h20.34.088,lexical_decision_task_DD_L3,2021.2.3,Win32,60.39012018,,,,,,,,,,,1.0364,1,,,,,,,,,,,,,,z,1,1.0364,,,,,,,,0.024739583,-0.39453125,0,0,0,,0,4,4,104,1,GITTY,LB,old,z,./images/GITTYLB.png,,,,,,,,,,,,,,,,,,,,,,,,,,,,,,,,,,,
,,,,,,,,,,,,,,,,,6107272874f58769a86a21b9,50,2022-02-12_13h20.34.088,lexical_decision_task_DD_L3,2021.2.3,Win32,60.39012018,,,,,,,,,,,0.7413,1,,,,,,,,,,,,,,m,1,0.7413,,,,,,,,0.024739583,-0.39453125,0,0,0,,0,5,5,25,1,WRIST,C,old,m,./images/WRIST.png,,,,,,,,,,,,,,,,,,,,,,,,,,,,,,,,,,,
,,,,,,,,,,,,,,,,,6107272874f58769a86a21b9,50,2022-02-12_13h20.34.088,lexical_decision_task_DD_L3,2021.2.3,Win32,60.39012018,,,,,,,,,,,0.9471,1,,,,,,,,,,,,,,m,1,0.9471,,,,,,,,0.024739583,-0.39453125,0,0,0,,0,6,6,20,1,CRADLE,HB,old,m,./images/CRADLEHB.png,,,,,,,,,,,,,,,,,,,,,,,,,,,,,,,,,,,
,,,,,,,,,,,,,,,,,6107272874f58769a86a21b9,50,2022-02-12_13h20.34.088,lexical_decision_task_DD_L3,2021.2.3,Win32,60.39012018,,,,,,,,,,,0.9082,1,,,,,,,,,,,,,,z,1,0.9082,,,,,,,,0.024739583,-0.39453125,0,0,0,,0,7,7,99,1,BACKY,C,old,z,./images/BACKY.png,,,,,,,,,,,,,,,,,,,,,,,,,,,,,,,,,,,
,,,,,,,,,,,,,,,,,6107272874f58769a86a21b9,50,2022-02-12_13h20.34.088,lexical_decision_task_DD_L3,2021.2.3,Win32,60.39012018,,,,,,,,,,,0.948200001,0,,,,,,,,,,,,,,m,0,0.948200001,,,,,,,,0.024739583,-0.39453125,0,0,0,,0,8,8,139,1,BLEAR,HB,old,z,./images/BLEARHB.png,,,,,,,,,,,,,,,,,,,,,,,,,,,,,,,,,,,
,,,,,,,,,,,,,,,,,6107272874f58769a86a21b9,50,2022-02-12_13h20.34.088,lexical_decision_task_DD_L3,2021.2.3,Win32,60.39012018,,,,,,,,,,,0.923,1,,,,,,,,,,,,,,z,1,0.923,,,,,,,,0.024739583,-0.39453125,0,0,0,,0,9,9,95,1,HANTY,LB,old,z,./images/HANTYLB.png,,,,,,,,,,,,,,,,,,,,,,,,,,,,,,,,,,,
,,,,,,,,,,,,,,,,,6107272874f58769a86a21b9,50,2022-02-12_13h20.34.088,lexical_decision_task_DD_L3,2021.2.3,Win32,60.39012018,,,,,,,,,,,0.6884,1,,,,,,,,,,,,,,m,1,0.6884,,,,,,,,0.024739583,-0.39453125,0,0,0,,0,10,10,42,1,FOLDER,LB,old,m,./images/FOLDERLB.png,,,,,,,,,,,,,,,,,,,,,,,,,,,,,,,,,,,
,,,,,,,,,,,,,,,,,6107272874f58769a86a21b9,50,2022-02-12_13h20.34.088,lexical_decision_task_DD_L3,2021.2.3,Win32,60.39012018,,,,,,,,,,,0.775299999,1,,,,,,,,,,,,,,m,1,0.775299999,,,,,,,,0.024739583,-0.39453125,0,0,0,,0,11,11,76,1,INFANT,C,old,m,./images/INFANT.png,,,,,,,,,,,,,,,,,,,,,,,,,,,,,,,,,,,
,,,,,,,,,,,,,,,,,6107272874f58769a86a21b9,50,2022-02-12_13h20.34.088,lexical_decision_task_DD_L3,2021.2.3,Win32,60.39012018,,,,,,,,,,,0.9874,1,,,,,,,,,,,,,,z,1,0.9874,,,,,,,,0.024739583,-0.39453125,0,0,0,,0,12,12,97,1,CHIDS,HB,old,z,./images/CHIDSHB.png,,,,,,,,,,,,,,,,,,,,,,,,,,,,,,,,,,,
,,,,,,,,,,,,,,,,,6107272874f58769a86a21b9,50,2022-02-12_13h20.34.088,lexical_decision_task_DD_L3,2021.2.3,Win32,60.39012018,,,,,,,,,,,1.0867,0,,,,,,,,,,,,,,z,0,1.0867,,,,,,,,0.024739583,-0.39453125,0,0,0,,0,13,13,74,1,CEMENT,HB,old,m,./images/CEMENTHB.png,,,,,,,,,,,,,,,,,,,,,,,,,,,,,,,,,,,
,,,,,,,,,,,,,,,,,6107272874f58769a86a21b9,50,2022-02-12_13h20.34.088,lexical_decision_task_DD_L3,2021.2.3,Win32,60.39012018,,,,,,,,,,,0.9858,1,,,,,,,,,,,,,,z,1,0.9858,,,,,,,,0.024739583,-0.39453125,0,0,0,,0,14,14,152,1,FRAIN,LB,old,z,./images/FRAINLB.png,,,,,,,,,,,,,,,,,,,,,,,,,,,,,,,,,,,
,,,,,,,,,,,,,,,,,6107272874f58769a86a21b9,50,2022-02-12_13h20.34.088,lexical_decision_task_DD_L3,2021.2.3,Win32,60.39012018,,,,,,,,,,,0.8432,1,,,,,,,,,,,,,,m,1,0.8432,,,,,,,,0.024739583,-0.39453125,0,0,0,,0,15,15,59,1,BURIAL,HB,old,m,./images/BURIALHB.png,,,,,,,,,,,,,,,,,,,,,,,,,,,,,,,,,,,
,,,,,,,,,,,,,,,,,6107272874f58769a86a21b9,50,2022-02-12_13h20.34.088,lexical_decision_task_DD_L3,2021.2.3,Win32,60.39012018,,,,,,,,,,,0.6799,1,,,,,,,,,,,,,,m,1,0.6799,,,,,,,,0.024739583,-0.39453125,0,0,0,,0,16,16,12,1,SHORE,LB,old,m,./images/SHORELB.png,,,,,,,,,,,,,,,,,,,,,,,,,,,,,,,,,,,
,,,,,,,,,,,,,,,,,6107272874f58769a86a21b9,50,2022-02-12_13h20.34.088,lexical_decision_task_DD_L3,2021.2.3,Win32,60.39012018,,,,,,,,,,,0.6871,1,,,,,,,,,,,,,,z,1,0.6871,,,,,,,,0.024739583,-0.39453125,0,0,0,,0,17,17,89,1,DRIEK,LB,old,z,./images/DRIEKLB.png,,,,,,,,,,,,,,,,,,,,,,,,,,,,,,,,,,,
,,,,,,,,,,,,,,,,,6107272874f58769a86a21b9,50,2022-02-12_13h20.34.088,lexical_decision_task_DD_L3,2021.2.3,Win32,60.39012018,,,,,,,,,,,0.6856,1,,,,,,,,,,,,,,m,1,0.6856,,,,,,,,0.024739583,-0.39453125,0,0,0,,0,18,18,21,1,KIDNEY,LB,old,m,./images/KIDNEYLB.png,,,,,,,,,,,,,,,,,,,,,,,,,,,,,,,,,,,
,,,,,,,,,,,,,,,,,6107272874f58769a86a21b9,50,2022-02-12_13h20.34.088,lexical_decision_task_DD_L3,2021.2.3,Win32,60.39012018,,,,,,,,,,,0.7601,1,,,,,,,,,,,,,,z,1,0.7601,,,,,,,,0.024739583,-0.39453125,0,0,0,,0,19,19,156,1,HIXES,C,old,z,./images/HIXES.png,,,,,,,,,,,,,,,,,,,,,,,,,,,,,,,,,,,
,,,,,,,,,,,,,,,,,6107272874f58769a86a21b9,50,2022-02-12_13h20.34.088,lexical_decision_task_DD_L3,2021.2.3,Win32,60.39012018,,,,,,,,,,,0.9858,1,,,,,,,,,,,,,,m,1,0.9858,,,,,,,,0.024739583,-0.39453125,0,0,0,,0,20,20,56,1,PACKET,HB,old,m,./images/PACKETHB.png,,,,,,,,,,,,,,,,,,,,,,,,,,,,,,,,,,,
,,,,,,,,,,,,,,,,,6107272874f58769a86a21b9,50,2022-02-12_13h20.34.088,lexical_decision_task_DD_L3,2021.2.3,Win32,60.39012018,,,,,,,,,,,0.8927,1,,,,,,,,,,,,,,z,1,0.8927,,,,,,,,0.024739583,-0.39453125,0,0,0,,0,21,21,121,1,CEERS,HB,old,z,./images/CEERSHB.png,,,,,,,,,,,,,,,,,,,,,,,,,,,,,,,,,,,
,,,,,,,,,,,,,,,,,6107272874f58769a86a21b9,50,2022-02-12_13h20.34.088,lexical_decision_task_DD_L3,2021.2.3,Win32,60.39012018,,,,,,,,,,,0.722099999,1,,,,,,,,,,,,,,m,1,0.722099999,,,,,,,,0.024739583,-0.39453125,0,0,0,,0,22,22,43,1,MOSQUE,C,old,m,./images/MOSQUE.png,,,,,,,,,,,,,,,,,,,,,,,,,,,,,,,,,,,
,,,,,,,,,,,,,,,,,6107272874f58769a86a21b9,50,2022-02-12_13h20.34.088,lexical_decision_task_DD_L3,2021.2.3,Win32,60.39012018,,,,,,,,,,,0.825099999,1,,,,,,,,,,,,,,m,1,0.825099999,,,,,,,,0.024739583,-0.39453125,0,0,0,,0,23,23,72,1,NOOSE,LB,old,m,./images/NOOSELB.png,,,,,,,,,,,,,,,,,,,,,,,,,,,,,,,,,,,
,,,,,,,,,,,,,,,,,6107272874f58769a86a21b9,50,2022-02-12_13h20.34.088,lexical_decision_task_DD_L3,2021.2.3,Win32,60.39012018,,,,,,,,,,,0.8262,1,,,,,,,,,,,,,,z,1,0.8262,,,,,,,,0.024739583,-0.39453125,0,0,0,,0,24,24,130,1,CRILL,HB,old,z,./images/CRILLHB.png,,,,,,,,,,,,,,,,,,,,,,,,,,,,,,,,,,,
,,,,,,,,,,,,,,,,,6107272874f58769a86a21b9,50,2022-02-12_13h20.34.088,lexical_decision_task_DD_L3,2021.2.3,Win32,60.39012018,,,,,,,,,,,0.9706,0,,,,,,,,,,,,,,m,0,0.9706,,,,,,,,0.024739583,-0.39453125,0,0,0,,0,25,25,94,1,BLANS,HB,old,z,./images/BLANSHB.png,,,,,,,,,,,,,,,,,,,,,,,,,,,,,,,,,,,
,,,,,,,,,,,,,,,,,6107272874f58769a86a21b9,50,2022-02-12_13h20.34.088,lexical_decision_task_DD_L3,2021.2.3,Win32,60.39012018,,,,,,,,,,,0.7343,1,,,,,,,,,,,,,,m,1,0.7343,,,,,,,,0.024739583,-0.39453125,0,0,0,,0,26,26,0,1,TOMATO,LB,old,m,./images/TOMATOLB.png,,,,,,,,,,,,,,,,,,,,,,,,,,,,,,,,,,,
,,,,,,,,,,,,,,,,,6107272874f58769a86a21b9,50,2022-02-12_13h20.34.088,lexical_decision_task_DD_L3,2021.2.3,Win32,60.39012018,,,,,,,,,,,0.863,1,,,,,,,,,,,,,,z,1,0.863,,,,,,,,0.024739583,-0.39453125,0,0,0,,0,27,27,87,1,TRING,C,old,z,./images/TRING.png,,,,,,,,,,,,,,,,,,,,,,,,,,,,,,,,,,,
,,,,,,,,,,,,,,,,,6107272874f58769a86a21b9,50,2022-02-12_13h20.34.088,lexical_decision_task_DD_L3,2021.2.3,Win32,60.39012018,,,,,,,,,,,1.4496,0,,,,,,,,,,,,,,z,0,1.4496,,,,,,,,0.024739583,-0.39453125,0,0,0,,0,28,28,26,1,SMOKER,HB,old,m,./images/SMOKERHB.png,,,,,,,,,,,,,,,,,,,,,,,,,,,,,,,,,,,
,,,,,,,,,,,,,,,,,6107272874f58769a86a21b9,50,2022-02-12_13h20.34.088,lexical_decision_task_DD_L3,2021.2.3,Win32,60.39012018,,,,,,,,,,,0.8977,1,,,,,,,,,,,,,,z,1,0.8977,,,,,,,,0.024739583,-0.39453125,0,0,0,,0,29,29,150,1,NOOLS,C,old,z,./images/NOOLS.png,,,,,,,,,,,,,,,,,,,,,,,,,,,,,,,,,,,
,,,,,,,,,,,,,,,,,6107272874f58769a86a21b9,50,2022-02-12_13h20.34.088,lexical_decision_task_DD_L3,2021.2.3,Win32,60.39012018,,,,,,,,,,,0.9621,0,,,,,,,,,,,,,,m,0,0.9621,,,,,,,,0.024739583,-0.39453125,0,0,0,,0,30,30,166,1,SHORY,HB,old,z,./images/SHORYHB.png,,,,,,,,,,,,,,,,,,,,,,,,,,,,,,,,,,,
,,,,,,,,,,,,,,,,,6107272874f58769a86a21b9,50,2022-02-12_13h20.34.088,lexical_decision_task_DD_L3,2021.2.3,Win32,60.39012018,,,,,,,,,,,0.9643,1,,,,,,,,,,,,,,z,1,0.9643,,,,,,,,0.024739583,-0.39453125,0,0,0,,0,31,31,118,1,BAVEL,HB,old,z,./images/BAVELHB.png,,,,,,,,,,,,,,,,,,,,,,,,,,,,,,,,,,,
,,,,,,,,,,,,,,,,,6107272874f58769a86a21b9,50,2022-02-12_13h20.34.088,lexical_decision_task_DD_L3,2021.2.3,Win32,60.39012018,,,,,,,,,,,1.140400001,0,,,,,,,,,,,,,,z,0,1.140400001,,,,,,,,0.024739583,-0.39453125,0,0,0,,0,32,32,65,1,FARMER,HB,old,m,./images/FARMERHB.png,,,,,,,,,,,,,,,,,,,,,,,,,,,,,,,,,,,
,,,,,,,,,,,,,,,,,6107272874f58769a86a21b9,50,2022-02-12_13h20.34.088,lexical_decision_task_DD_L3,2021.2.3,Win32,60.39012018,,,,,,,,,,,0.872599999,1,,,,,,,,,,,,,,z,1,0.872599999,,,,,,,,0.024739583,-0.39453125,0,0,0,,0,33,33,155,1,CANGY,LB,old,z,./images/CANGYLB.png,,,,,,,,,,,,,,,,,,,,,,,,,,,,,,,,,,,
,,,,,,,,,,,,,,,,,6107272874f58769a86a21b9,50,2022-02-12_13h20.34.088,lexical_decision_task_DD_L3,2021.2.3,Win32,60.39012018,,,,,,,,,,,1.042900001,0,,,,,,,,,,,,,,m,0,1.042900001,,,,,,,,0.024739583,-0.39453125,0,0,0,,0,34,34,110,1,CRUNK,LB,old,z,./images/CRUNKLB.png,,,,,,,,,,,,,,,,,,,,,,,,,,,,,,,,,,,
,,,,,,,,,,,,,,,,,6107272874f58769a86a21b9,50,2022-02-12_13h20.34.088,lexical_decision_task_DD_L3,2021.2.3,Win32,60.39012018,,,,,,,,,,,0.7273,1,,,,,,,,,,,,,,m,1,0.7273,,,,,,,,0.024739583,-0.39453125,0,0,0,,0,35,35,66,1,SWEAT,LB,old,m,./images/SWEATLB.png,,,,,,,,,,,,,,,,,,,,,,,,,,,,,,,,,,,
,,,,,,,,,,,,,,,,,6107272874f58769a86a21b9,50,2022-02-12_13h20.34.088,lexical_decision_task_DD_L3,2021.2.3,Win32,60.39012018,,,,,,,,,,,0.693900001,1,,,,,,,,,,,,,,m,1,0.693900001,,,,,,,,0.024739583,-0.39453125,0,0,0,,0,36,36,57,1,MOOSE,LB,old,m,./images/MOOSELB.png,,,,,,,,,,,,,,,,,,,,,,,,,,,,,,,,,,,
,,,,,,,,,,,,,,,,,6107272874f58769a86a21b9,50,2022-02-12_13h20.34.088,lexical_decision_task_DD_L3,2021.2.3,Win32,60.39012018,,,,,,,,,,,0.6277,1,,,,,,,,,,,,,,m,1,0.6277,,,,,,,,0.024739583,-0.39453125,0,0,0,,0,37,37,63,1,MIRROR,LB,old,m,./images/MIRRORLB.png,,,,,,,,,,,,,,,,,,,,,,,,,,,,,,,,,,,
,,,,,,,,,,,,,,,,,6107272874f58769a86a21b9,50,2022-02-12_13h20.34.088,lexical_decision_task_DD_L3,2021.2.3,Win32,60.39012018,,,,,,,,,,,0.6297,1,,,,,,,,,,,,,,m,1,0.6297,,,,,,,,0.024739583,-0.39453125,0,0,0,,0,38,38,4,1,MUSCLE,C,old,m,./images/MUSCLE.png,,,,,,,,,,,,,,,,,,,,,,,,,,,,,,,,,,,
,,,,,,,,,,,,,,,,,6107272874f58769a86a21b9,50,2022-02-12_13h20.34.088,lexical_decision_task_DD_L3,2021.2.3,Win32,60.39012018,,,,,,,,,,,0.7682,1,,,,,,,,,,,,,,m,1,0.7682,,,,,,,,0.024739583,-0.39453125,0,0,0,,0,39,39,33,1,MAGGOT,LB,old,m,./images/MAGGOTLB.png,,,,,,,,,,,,,,,,,,,,,,,,,,,,,,,,,,,
,,,,,,,,,,,,,,,,,6107272874f58769a86a21b9,50,2022-02-12_13h20.34.088,lexical_decision_task_DD_L3,2021.2.3,Win32,60.39012018,,,,,,,,,,,0.7685,1,,,,,,,,,,,,,,z,1,0.7685,,,,,,,,0.024739583,-0.39453125,0,0,0,,0,40,40,167,1,ZONET,LB,old,z,./images/ZONETLB.png,,,,,,,,,,,,,,,,,,,,,,,,,,,,,,,,,,,
,,,,,,,,,,,,,,,,,6107272874f58769a86a21b9,50,2022-02-12_13h20.34.088,lexical_decision_task_DD_L3,2021.2.3,Win32,60.39012018,,,,,,,,,,,1.035900001,1,,,,,,,,,,,,,,z,1,1.035900001,,,,,,,,0.024739583,-0.39453125,0,0,0,space,0,41,41,133,1,POWDY,HB,old,z,./images/POWDYHB.png,7.2803,,,,,,,,,,,,,,,,,,,,,,,,,,,,,,,,,,
,,,,,,,,,,,,,,,,,6107272874f58769a86a21b9,50,2022-02-12_13h20.34.088,lexical_decision_task_DD_L3,2021.2.3,Win32,60.39012018,,,,,,,,,,,0.8797,1,,,,,,,,,,,,,,z,1,0.8797,,,,,,,,0.024739583,-0.39453125,0,0,0,,0,42,42,88,1,GLUSH,HB,old,z,./images/GLUSHHB.png,,,,,,,,,,,,,,,,,,,,,,,,,,,,,,,,,,,
,,,,,,,,,,,,,,,,,6107272874f58769a86a21b9,50,2022-02-12_13h20.34.088,lexical_decision_task_DD_L3,2021.2.3,Win32,60.39012018,,,,,,,,,,,0.7833,1,,,,,,,,,,,,,,m,1,0.7833,,,,,,,,0.024739583,-0.39453125,0,0,0,,0,43,43,8,1,TULIP,HB,old,m,./images/TULIPHB.png,,,,,,,,,,,,,,,,,,,,,,,,,,,,,,,,,,,
,,,,,,,,,,,,,,,,,6107272874f58769a86a21b9,50,2022-02-12_13h20.34.088,lexical_decision_task_DD_L3,2021.2.3,Win32,60.39012018,,,,,,,,,,,0.9452,1,,,,,,,,,,,,,,z,1,0.9452,,,,,,,,0.024739583,-0.39453125,0,0,0,,0,44,44,109,1,BURGE,HB,old,z,./images/BURGEHB.png,,,,,,,,,,,,,,,,,,,,,,,,,,,,,,,,,,,
,,,,,,,,,,,,,,,,,6107272874f58769a86a21b9,50,2022-02-12_13h20.34.088,lexical_decision_task_DD_L3,2021.2.3,Win32,60.39012018,,,,,,,,,,,0.6305,1,,,,,,,,,,,,,,m,1,0.6305,,,,,,,,0.024739583,-0.39453125,0,0,0,,0,45,45,61,1,CANDLE,C,old,m,./images/CANDLE.png,,,,,,,,,,,,,,,,,,,,,,,,,,,,,,,,,,,
,,,,,,,,,,,,,,,,,6107272874f58769a86a21b9,50,2022-02-12_13h20.34.088,lexical_decision_task_DD_L3,2021.2.3,Win32,60.39012018,,,,,,,,,,,0.7043,1,,,,,,,,,,,,,,m,1,0.7043,,,,,,,,0.024739583,-0.39453125,0,0,0,,0,46,46,69,1,COOKER,LB,old,m,./images/COOKERLB.png,,,,,,,,,,,,,,,,,,,,,,,,,,,,,,,,,,,
,,,,,,,,,,,,,,,,,6107272874f58769a86a21b9,50,2022-02-12_13h20.34.088,lexical_decision_task_DD_L3,2021.2.3,Win32,60.39012018,,,,,,,,,,,0.7719,1,,,,,,,,,,,,,,z,1,0.7719,,,,,,,,0.024739583,-0.39453125,0,0,0,,0,47,47,98,1,BAMPS,LB,old,z,./images/BAMPSLB.png,,,,,,,,,,,,,,,,,,,,,,,,,,,,,,,,,,,
,,,,,,,,,,,,,,,,,6107272874f58769a86a21b9,50,2022-02-12_13h20.34.088,lexical_decision_task_DD_L3,2021.2.3,Win32,60.39012018,,,,,,,,,,,0.670900001,1,,,,,,,,,,,,,,m,1,0.670900001,,,,,,,,0.024739583,-0.39453125,0,0,0,,0,48,48,64,1,JELLY,C,old,m,./images/JELLY.png,,,,,,,,,,,,,,,,,,,,,,,,,,,,,,,,,,,
,,,,,,,,,,,,,,,,,6107272874f58769a86a21b9,50,2022-02-12_13h20.34.088,lexical_decision_task_DD_L3,2021.2.3,Win32,60.39012018,,,,,,,,,,,1.087599999,1,,,,,,,,,,,,,,z,1,1.087599999,,,,,,,,0.024739583,-0.39453125,0,0,0,,0,49,49,106,1,CLUMS,HB,old,z,./images/CLUMSHB.png,,,,,,,,,,,,,,,,,,,,,,,,,,,,,,,,,,,
,,,,,,,,,,,,,,,,,6107272874f58769a86a21b9,50,2022-02-12_13h20.34.088,lexical_decision_task_DD_L3,2021.2.3,Win32,60.39012018,,,,,,,,,,,0.6473,1,,,,,,,,,,,,,,m,1,0.6473,,,,,,,,0.024739583,-0.39453125,0,0,0,,0,50,50,15,1,GREASE,LB,old,m,./images/GREASELB.png,,,,,,,,,,,,,,,,,,,,,,,,,,,,,,,,,,,
,,,,,,,,,,,,,,,,,6107272874f58769a86a21b9,50,2022-02-12_13h20.34.088,lexical_decision_task_DD_L3,2021.2.3,Win32,60.39012018,,,,,,,,,,,0.725,1,,,,,,,,,,,,,,z,1,0.725,,,,,,,,0.024739583,-0.39453125,0,0,0,,0,51,51,117,1,STEEG,C,old,z,./images/STEEG.png,,,,,,,,,,,,,,,,,,,,,,,,,,,,,,,,,,,
,,,,,,,,,,,,,,,,,6107272874f58769a86a21b9,50,2022-02-12_13h20.34.088,lexical_decision_task_DD_L3,2021.2.3,Win32,60.39012018,,,,,,,,,,,0.829099999,1,,,,,,,,,,,,,,z,1,0.829099999,,,,,,,,0.024739583,-0.39453125,0,0,0,,0,52,52,119,1,PAFER,LB,old,z,./images/PAFERLB.png,,,,,,,,,,,,,,,,,,,,,,,,,,,,,,,,,,,
,,,,,,,,,,,,,,,,,6107272874f58769a86a21b9,50,2022-02-12_13h20.34.088,lexical_decision_task_DD_L3,2021.2.3,Win32,60.39012018,,,,,,,,,,,0.847099999,1,,,,,,,,,,,,,,z,1,0.847099999,,,,,,,,0.024739583,-0.39453125,0,0,0,,0,53,53,144,1,NAIRY,C,old,z,./images/NAIRY.png,,,,,,,,,,,,,,,,,,,,,,,,,,,,,,,,,,,
,,,,,,,,,,,,,,,,,6107272874f58769a86a21b9,50,2022-02-12_13h20.34.088,lexical_decision_task_DD_L3,2021.2.3,Win32,60.39012018,,,,,,,,,,,0.7428,1,,,,,,,,,,,,,,z,1,0.7428,,,,,,,,0.024739583,-0.39453125,0,0,0,,0,54,54,111,1,HOSSE,C,old,z,./images/HOSSE.png,,,,,,,,,,,,,,,,,,,,,,,,,,,,,,,,,,,
,,,,,,,,,,,,,,,,,6107272874f58769a86a21b9,50,2022-02-12_13h20.34.088,lexical_decision_task_DD_L3,2021.2.3,Win32,60.39012018,,,,,,,,,,,0.6665,1,,,,,,,,,,,,,,z,1,0.6665,,,,,,,,0.024739583,-0.39453125,0,0,0,,0,55,55,159,1,CUDDY,C,old,z,./images/CUDDY.png,,,,,,,,,,,,,,,,,,,,,,,,,,,,,,,,,,,
,,,,,,,,,,,,,,,,,6107272874f58769a86a21b9,50,2022-02-12_13h20.34.088,lexical_decision_task_DD_L3,2021.2.3,Win32,60.39012018,,,,,,,,,,,1.0767,1,,,,,,,,,,,,,,z,1,1.0767,,,,,,,,0.024739583,-0.39453125,0,0,0,,0,56,56,148,1,JOMS,HB,old,z,./images/JOMSHB.png,,,,,,,,,,,,,,,,,,,,,,,,,,,,,,,,,,,
,,,,,,,,,,,,,,,,,6107272874f58769a86a21b9,50,2022-02-12_13h20.34.088,lexical_decision_task_DD_L3,2021.2.3,Win32,60.39012018,,,,,,,,,,,0.6683,1,,,,,,,,,,,,,,m,1,0.6683,,,,,,,,0.024739583,-0.39453125,0,0,0,,0,57,57,75,1,GRAIN,LB,old,m,./images/GRAINLB.png,,,,,,,,,,,,,,,,,,,,,,,,,,,,,,,,,,,
,,,,,,,,,,,,,,,,,6107272874f58769a86a21b9,50,2022-02-12_13h20.34.088,lexical_decision_task_DD_L3,2021.2.3,Win32,60.39012018,,,,,,,,,,,1.1788,1,,,,,,,,,,,,,,m,1,1.1788,,,,,,,,0.024739583,-0.39453125,0,0,0,,0,58,58,80,1,WEASEL,HB,old,m,./images/WEASELHB.png,,,,,,,,,,,,,,,,,,,,,,,,,,,,,,,,,,,
,,,,,,,,,,,,,,,,,6107272874f58769a86a21b9,50,2022-02-12_13h20.34.088,lexical_decision_task_DD_L3,2021.2.3,Win32,60.39012018,,,,,,,,,,,0.636900001,1,,,,,,,,,,,,,,m,1,0.636900001,,,,,,,,0.024739583,-0.39453125,0,0,0,,0,59,59,36,1,THROAT,LB,old,m,./images/THROATLB.png,,,,,,,,,,,,,,,,,,,,,,,,,,,,,,,,,,,
,,,,,,,,,,,,,,,,,6107272874f58769a86a21b9,50,2022-02-12_13h20.34.088,lexical_decision_task_DD_L3,2021.2.3,Win32,60.39012018,,,,,,,,,,,0.803,1,,,,,,,,,,,,,,m,1,0.803,,,,,,,,0.024739583,-0.39453125,0,0,0,,0,60,60,53,1,CARPET,HB,old,m,./images/CARPETHB.png,,,,,,,,,,,,,,,,,,,,,,,,,,,,,,,,,,,
,,,,,,,,,,,,,,,,,6107272874f58769a86a21b9,50,2022-02-12_13h20.34.088,lexical_decision_task_DD_L3,2021.2.3,Win32,60.39012018,,,,,,,,,,,0.844,1,,,,,,,,,,,,,,z,1,0.844,,,,,,,,0.024739583,-0.39453125,0,0,0,,0,61,61,160,1,VEETS,HB,old,z,./images/VEETSHB.png,,,,,,,,,,,,,,,,,,,,,,,,,,,,,,,,,,,
,,,,,,,,,,,,,,,,,6107272874f58769a86a21b9,50,2022-02-12_13h20.34.088,lexical_decision_task_DD_L3,2021.2.3,Win32,60.39012018,,,,,,,,,,,0.7739,1,,,,,,,,,,,,,,z,1,0.7739,,,,,,,,0.024739583,-0.39453125,0,0,0,,0,62,62,138,1,PLICE,C,old,z,./images/PLICE.png,,,,,,,,,,,,,,,,,,,,,,,,,,,,,,,,,,,
,,,,,,,,,,,,,,,,,6107272874f58769a86a21b9,50,2022-02-12_13h20.34.088,lexical_decision_task_DD_L3,2021.2.3,Win32,60.39012018,,,,,,,,,,,0.819900001,0,,,,,,,,,,,,,,z,0,0.819900001,,,,,,,,0.024739583,-0.39453125,0,0,0,,0,63,63,16,1,PENCE,C,old,m,./images/PENCE.png,,,,,,,,,,,,,,,,,,,,,,,,,,,,,,,,,,,
,,,,,,,,,,,,,,,,,6107272874f58769a86a21b9,50,2022-02-12_13h20.34.088,lexical_decision_task_DD_L3,2021.2.3,Win32,60.39012018,,,,,,,,,,,0.7783,1,,,,,,,,,,,,,,z,1,0.7783,,,,,,,,0.024739583,-0.39453125,0,0,0,,0,64,64,146,1,MOOST,LB,old,z,./images/MOOSTLB.png,,,,,,,,,,,,,,,,,,,,,,,,,,,,,,,,,,,
,,,,,,,,,,,,,,,,,6107272874f58769a86a21b9,50,2022-02-12_13h20.34.088,lexical_decision_task_DD_L3,2021.2.3,Win32,60.39012018,,,,,,,,,,,0.7093,1,,,,,,,,,,,,,,z,1,0.7093,,,,,,,,0.024739583,-0.39453125,0,0,0,,0,65,65,116,1,BALGY,LB,old,z,./images/BALGYLB.png,,,,,,,,,,,,,,,,,,,,,,,,,,,,,,,,,,,
,,,,,,,,,,,,,,,,,6107272874f58769a86a21b9,50,2022-02-12_13h20.34.088,lexical_decision_task_DD_L3,2021.2.3,Win32,60.39012018,,,,,,,,,,,0.695400001,1,,,,,,,,,,,,,,z,1,0.695400001,,,,,,,,0.024739583,-0.39453125,0,0,0,,0,66,66,147,1,ZOLES,C,old,z,./images/ZOLES.png,,,,,,,,,,,,,,,,,,,,,,,,,,,,,,,,,,,
,,,,,,,,,,,,,,,,,6107272874f58769a86a21b9,50,2022-02-12_13h20.34.088,lexical_decision_task_DD_L3,2021.2.3,Win32,60.39012018,,,,,,,,,,,0.8922,1,,,,,,,,,,,,,,z,1,0.8922,,,,,,,,0.024739583,-0.39453125,0,0,0,,0,67,67,149,1,VEASE,LB,old,z,./images/VEASELB.png,,,,,,,,,,,,,,,,,,,,,,,,,,,,,,,,,,,
,,,,,,,,,,,,,,,,,6107272874f58769a86a21b9,50,2022-02-12_13h20.34.088,lexical_decision_task_DD_L3,2021.2.3,Win32,60.39012018,,,,,,,,,,,0.9878,1,,,,,,,,,,,,,,m,1,0.9878,,,,,,,,0.024739583,-0.39453125,0,0,0,,0,68,68,31,1,QUILL,C,old,m,./images/QUILL.png,,,,,,,,,,,,,,,,,,,,,,,,,,,,,,,,,,,
,,,,,,,,,,,,,,,,,6107272874f58769a86a21b9,50,2022-02-12_13h20.34.088,lexical_decision_task_DD_L3,2021.2.3,Win32,60.39012018,,,,,,,,,,,0.962200001,1,,,,,,,,,,,,,,m,1,0.962200001,,,,,,,,0.024739583,-0.39453125,0,0,0,,0,69,69,68,1,TORCH,HB,old,m,./images/TORCHHB.png,,,,,,,,,,,,,,,,,,,,,,,,,,,,,,,,,,,
,,,,,,,,,,,,,,,,,6107272874f58769a86a21b9,50,2022-02-12_13h20.34.088,lexical_decision_task_DD_L3,2021.2.3,Win32,60.39012018,,,,,,,,,,,0.8735,1,,,,,,,,,,,,,,z,1,0.8735,,,,,,,,0.024739583,-0.39453125,0,0,0,,0,70,70,107,1,FASKS,LB,old,z,./images/FASKSLB.png,,,,,,,,,,,,,,,,,,,,,,,,,,,,,,,,,,,
,,,,,,,,,,,,,,,,,6107272874f58769a86a21b9,50,2022-02-12_13h20.34.088,lexical_decision_task_DD_L3,2021.2.3,Win32,60.39012018,,,,,,,,,,,1.169,1,,,,,,,,,,,,,,m,1,1.169,,,,,,,,0.024739583,-0.39453125,0,0,0,,0,71,71,47,1,BERRY,HB,old,m,./images/BERRYHB.png,,,,,,,,,,,,,,,,,,,,,,,,,,,,,,,,,,,
,,,,,,,,,,,,,,,,,6107272874f58769a86a21b9,50,2022-02-12_13h20.34.088,lexical_decision_task_DD_L3,2021.2.3,Win32,60.39012018,,,,,,,,,,,0.688900001,1,,,,,,,,,,,,,,m,1,0.688900001,,,,,,,,0.024739583,-0.39453125,0,0,0,,0,72,72,14,1,PICKLE,HB,old,m,./images/PICKLEHB.png,,,,,,,,,,,,,,,,,,,,,,,,,,,,,,,,,,,
,,,,,,,,,,,,,,,,,6107272874f58769a86a21b9,50,2022-02-12_13h20.34.088,lexical_decision_task_DD_L3,2021.2.3,Win32,60.39012018,,,,,,,,,,,0.8646,1,,,,,,,,,,,,,,z,1,0.8646,,,,,,,,0.024739583,-0.39453125,0,0,0,,0,73,73,96,1,KEAMS,C,old,z,./images/KEAMS.png,,,,,,,,,,,,,,,,,,,,,,,,,,,,,,,,,,,
,,,,,,,,,,,,,,,,,6107272874f58769a86a21b9,50,2022-02-12_13h20.34.088,lexical_decision_task_DD_L3,2021.2.3,Win32,60.39012018,,,,,,,,,,,0.676,1,,,,,,,,,,,,,,m,1,0.676,,,,,,,,0.024739583,-0.39453125,0,0,0,,0,74,74,62,1,PURSE,HB,old,m,./images/PURSEHB.png,,,,,,,,,,,,,,,,,,,,,,,,,,,,,,,,,,,
,,,,,,,,,,,,,,,,,6107272874f58769a86a21b9,50,2022-02-12_13h20.34.088,lexical_decision_task_DD_L3,2021.2.3,Win32,60.39012018,,,,,,,,,,,0.5988,1,,,,,,,,,,,,,,m,1,0.5988,,,,,,,,0.024739583,-0.39453125,0,0,0,,0,75,75,51,1,ONION,LB,old,m,./images/ONIONLB.png,,,,,,,,,,,,,,,,,,,,,,,,,,,,,,,,,,,
,,,,,,,,,,,,,,,,,6107272874f58769a86a21b9,50,2022-02-12_13h20.34.088,lexical_decision_task_DD_L3,2021.2.3,Win32,60.39012018,,,,,,,,,,,0.7809,1,,,,,,,,,,,,,,m,1,0.7809,,,,,,,,0.024739583,-0.39453125,0,0,0,,0,76,76,79,1,CRUST,C,old,m,./images/CRUST.png,,,,,,,,,,,,,,,,,,,,,,,,,,,,,,,,,,,
,,,,,,,,,,,,,,,,,6107272874f58769a86a21b9,50,2022-02-12_13h20.34.088,lexical_decision_task_DD_L3,2021.2.3,Win32,60.39012018,,,,,,,,,,,0.643,1,,,,,,,,,,,,,,m,1,0.643,,,,,,,,0.024739583,-0.39453125,0,0,0,,0,77,77,27,1,ATTIC,LB,old,m,./images/ATTICLB.png,,,,,,,,,,,,,,,,,,,,,,,,,,,,,,,,,,,
,,,,,,,,,,,,,,,,,6107272874f58769a86a21b9,50,2022-02-12_13h20.34.088,lexical_decision_task_DD_L3,2021.2.3,Win32,60.39012018,,,,,,,,,,,0.5997,1,,,,,,,,,,,,,,m,1,0.5997,,,,,,,,0.024739583,-0.39453125,0,0,0,,0,78,78,7,1,PAINT,C,old,m,./images/PAINT.png,,,,,,,,,,,,,,,,,,,,,,,,,,,,,,,,,,,
,,,,,,,,,,,,,,,,,6107272874f58769a86a21b9,50,2022-02-12_13h20.34.088,lexical_decision_task_DD_L3,2021.2.3,Win32,60.39012018,,,,,,,,,,,0.672,1,,,,,,,,,,,,,,z,1,0.672,,,,,,,,0.024739583,-0.39453125,0,0,0,,0,79,79,101,1,GLEET,LB,old,z,./images/GLEETLB.png,,,,,,,,,,,,,,,,,,,,,,,,,,,,,,,,,,,
,,,,,,,,,,,,,,,,,6107272874f58769a86a21b9,50,2022-02-12_13h20.34.088,lexical_decision_task_DD_L3,2021.2.3,Win32,60.39012018,,,,,,,,,,,0.7422,1,,,,,,,,,,,,,,z,1,0.7422,,,,,,,,0.024739583,-0.39453125,0,0,0,,0,80,80,153,1,CLUPS,C,old,z,./images/CLUPS.png,,,,,,,,,,,,,,,,,,,,,,,,,,,,,,,,,,,
,,,,,,,,,,,,,,,,,6107272874f58769a86a21b9,50,2022-02-12_13h20.34.088,lexical_decision_task_DD_L3,2021.2.3,Win32,60.39012018,,,,,,,,,,,0.7168,0,,,,,,,,,,,,,,m,0,0.7168,,,,,,,,0.024739583,-0.39453125,0,0,0,,0,81,81,85,1,CHULK,HB,old,z,./images/CHULKHB.png,,,,,,,,,,,,,,,,,,,,,,,,,,,,,,,,,,,
,,,,,,,,,,,,,,,,,6107272874f58769a86a21b9,50,2022-02-12_13h20.34.088,lexical_decision_task_DD_L3,2021.2.3,Win32,60.39012018,,,,,,,,,,,0.722,1,,,,,,,,,,,,,,z,1,0.722,,,,,,,,0.024739583,-0.39453125,0,0,0,,0,82,82,102,1,DULLE,C,old,z,./images/DULLE.png,,,,,,,,,,,,,,,,,,,,,,,,,,,,,,,,,,,
,,,,,,,,,,,,,,,,,6107272874f58769a86a21b9,50,2022-02-12_13h20.34.088,lexical_decision_task_DD_L3,2021.2.3,Win32,60.39012018,,,,,,,,,,,0.6883,1,,,,,,,,,,,,,,m,1,0.6883,,,,,,,,0.024739583,-0.39453125,0,0,0,space,0,83,83,73,1,SNACK,C,old,m,./images/SNACK.png,4.9511,,,,,,,,,,,,,,,,,,,,,,,,,,,,,,,,,,
,,,,,,,,,,,,,,,,,6107272874f58769a86a21b9,50,2022-02-12_13h20.34.088,lexical_decision_task_DD_L3,2021.2.3,Win32,60.39012018,,,,,,,,,,,1.204,1,,,,,,,,,,,,,,z,1,1.204,,,,,,,,0.024739583,-0.39453125,0,0,0,,0,84,84,136,1,WERVE,HB,old,z,./images/WERVEHB.png,,,,,,,,,,,,,,,,,,,,,,,,,,,,,,,,,,,
,,,,,,,,,,,,,,,,,6107272874f58769a86a21b9,50,2022-02-12_13h20.34.088,lexical_decision_task_DD_L3,2021.2.3,Win32,60.39012018,,,,,,,,,,,0.8212,1,,,,,,,,,,,,,,m,1,0.8212,,,,,,,,0.024739583,-0.39453125,0,0,0,,0,85,85,71,1,PIMPLE,HB,old,m,./images/PIMPLEHB.png,,,,,,,,,,,,,,,,,,,,,,,,,,,,,,,,,,,
,,,,,,,,,,,,,,,,,6107272874f58769a86a21b9,50,2022-02-12_13h20.34.088,lexical_decision_task_DD_L3,2021.2.3,Win32,60.39012018,,,,,,,,,,,0.7478,1,,,,,,,,,,,,,,z,1,0.7478,,,,,,,,0.024739583,-0.39453125,0,0,0,,0,86,86,92,1,PAIMS,LB,old,z,./images/PAIMSLB.png,,,,,,,,,,,,,,,,,,,,,,,,,,,,,,,,,,,
,,,,,,,,,,,,,,,,,6107272874f58769a86a21b9,50,2022-02-12_13h20.34.088,lexical_decision_task_DD_L3,2021.2.3,Win32,60.39012018,,,,,,,,,,,0.7615,1,,,,,,,,,,,,,,m,1,0.7615,,,,,,,,0.024739583,-0.39453125,0,0,0,,0,87,87,41,1,STRING,HB,old,m,./images/STRINGHB.png,,,,,,,,,,,,,,,,,,,,,,,,,,,,,,,,,,,
,,,,,,,,,,,,,,,,,6107272874f58769a86a21b9,50,2022-02-12_13h20.34.088,lexical_decision_task_DD_L3,2021.2.3,Win32,60.39012018,,,,,,,,,,,0.9327,1,,,,,,,,,,,,,,z,1,0.9327,,,,,,,,0.024739583,-0.39453125,0,0,0,,0,88,88,154,1,THINT,HB,old,z,./images/THINTHB.png,,,,,,,,,,,,,,,,,,,,,,,,,,,,,,,,,,,
,,,,,,,,,,,,,,,,,6107272874f58769a86a21b9,50,2022-02-12_13h20.34.088,lexical_decision_task_DD_L3,2021.2.3,Win32,60.39012018,,,,,,,,,,,0.8351,1,,,,,,,,,,,,,,z,1,0.8351,,,,,,,,0.024739583,-0.39453125,0,0,0,,0,89,89,108,1,GRUET,C,old,z,./images/GRUET.png,,,,,,,,,,,,,,,,,,,,,,,,,,,,,,,,,,,
,,,,,,,,,,,,,,,,,6107272874f58769a86a21b9,50,2022-02-12_13h20.34.088,lexical_decision_task_DD_L3,2021.2.3,Win32,60.39012018,,,,,,,,,,,0.651,1,,,,,,,,,,,,,,z,1,0.651,,,,,,,,0.024739583,-0.39453125,0,0,0,,0,90,90,114,1,RIKES,C,old,z,./images/RIKES.png,,,,,,,,,,,,,,,,,,,,,,,,,,,,,,,,,,,
,,,,,,,,,,,,,,,,,6107272874f58769a86a21b9,50,2022-02-12_13h20.34.088,lexical_decision_task_DD_L3,2021.2.3,Win32,60.39012018,,,,,,,,,,,0.5899,1,,,,,,,,,,,,,,z,1,0.5899,,,,,,,,0.024739583,-0.39453125,0,0,0,,0,91,91,84,1,HAXES,C,old,z,./images/HAXES.png,,,,,,,,,,,,,,,,,,,,,,,,,,,,,,,,,,,
,,,,,,,,,,,,,,,,,6107272874f58769a86a21b9,50,2022-02-12_13h20.34.088,lexical_decision_task_DD_L3,2021.2.3,Win32,60.39012018,,,,,,,,,,,0.7896,1,,,,,,,,,,,,,,z,1,0.7896,,,,,,,,0.024739583,-0.39453125,0,0,0,,0,92,92,93,1,SMONE,C,old,z,./images/SMONE.png,,,,,,,,,,,,,,,,,,,,,,,,,,,,,,,,,,,
,,,,,,,,,,,,,,,,,6107272874f58769a86a21b9,50,2022-02-12_13h20.34.088,lexical_decision_task_DD_L3,2021.2.3,Win32,60.39012018,,,,,,,,,,,0.7273,1,,,,,,,,,,,,,,z,1,0.7273,,,,,,,,0.024739583,-0.39453125,0,0,0,,0,93,93,161,1,BLAPS,LB,old,z,./images/BLAPSLB.png,,,,,,,,,,,,,,,,,,,,,,,,,,,,,,,,,,,
,,,,,,,,,,,,,,,,,6107272874f58769a86a21b9,50,2022-02-12_13h20.34.088,lexical_decision_task_DD_L3,2021.2.3,Win32,60.39012018,,,,,,,,,,,0.6788,1,,,,,,,,,,,,,,z,1,0.6788,,,,,,,,0.024739583,-0.39453125,0,0,0,,0,94,94,143,1,MONGS,LB,old,z,./images/MONGSLB.png,,,,,,,,,,,,,,,,,,,,,,,,,,,,,,,,,,,
,,,,,,,,,,,,,,,,,6107272874f58769a86a21b9,50,2022-02-12_13h20.34.088,lexical_decision_task_DD_L3,2021.2.3,Win32,60.39012018,,,,,,,,,,,0.6464,1,,,,,,,,,,,,,,m,1,0.6464,,,,,,,,0.024739583,-0.39453125,0,0,0,,0,95,95,81,1,POODLE,LB,old,m,./images/POODLELB.png,,,,,,,,,,,,,,,,,,,,,,,,,,,,,,,,,,,
,,,,,,,,,,,,,,,,,6107272874f58769a86a21b9,50,2022-02-12_13h20.34.088,lexical_decision_task_DD_L3,2021.2.3,Win32,60.39012018,,,,,,,,,,,0.688700001,1,,,,,,,,,,,,,,m,1,0.688700001,,,,,,,,0.024739583,-0.39453125,0,0,0,,0,96,96,78,1,LITTER,LB,old,m,./images/LITTERLB.png,,,,,,,,,,,,,,,,,,,,,,,,,,,,,,,,,,,
,,,,,,,,,,,,,,,,,6107272874f58769a86a21b9,50,2022-02-12_13h20.34.088,lexical_decision_task_DD_L3,2021.2.3,Win32,60.39012018,,,,,,,,,,,0.655599999,1,,,,,,,,,,,,,,m,1,0.655599999,,,,,,,,0.024739583,-0.39453125,0,0,0,,0,97,97,19,1,DOUGH,C,old,m,./images/DOUGH.png,,,,,,,,,,,,,,,,,,,,,,,,,,,,,,,,,,,
,,,,,,,,,,,,,,,,,6107272874f58769a86a21b9,50,2022-02-12_13h20.34.088,lexical_decision_task_DD_L3,2021.2.3,Win32,60.39012018,,,,,,,,,,,0.726,1,,,,,,,,,,,,,,z,1,0.726,,,,,,,,0.024739583,-0.39453125,0,0,0,,0,98,98,128,1,GRIFT,LB,old,z,./images/GRIFTLB.png,,,,,,,,,,,,,,,,,,,,,,,,,,,,,,,,,,,
,,,,,,,,,,,,,,,,,6107272874f58769a86a21b9,50,2022-02-12_13h20.34.088,lexical_decision_task_DD_L3,2021.2.3,Win32,60.39012018,,,,,,,,,,,0.6502,1,,,,,,,,,,,,,,m,1,0.6502,,,,,,,,0.024739583,-0.39453125,0,0,0,,0,99,99,52,1,BANNER,C,old,m,./images/BANNER.png,,,,,,,,,,,,,,,,,,,,,,,,,,,,,,,,,,,
,,,,,,,,,,,,,,,,,6107272874f58769a86a21b9,50,2022-02-12_13h20.34.088,lexical_decision_task_DD_L3,2021.2.3,Win32,60.39012018,,,,,,,,,,,0.7111,1,,,,,,,,,,,,,,z,1,0.7111,,,,,,,,0.024739583,-0.39453125,0,0,0,,0,100,100,86,1,AIFED,LB,old,z,./images/AIFEDLB.png,,,,,,,,,,,,,,,,,,,,,,,,,,,,,,,,,,,
,,,,,,,,,,,,,,,,,6107272874f58769a86a21b9,50,2022-02-12_13h20.34.088,lexical_decision_task_DD_L3,2021.2.3,Win32,60.39012018,,,,,,,,,,,0.9417,1,,,,,,,,,,,,,,z,1,0.9417,,,,,,,,0.024739583,-0.39453125,0,0,0,,0,101,101,124,1,TUNCH,HB,old,z,./images/TUNCHHB.png,,,,,,,,,,,,,,,,,,,,,,,,,,,,,,,,,,,
,,,,,,,,,,,,,,,,,6107272874f58769a86a21b9,50,2022-02-12_13h20.34.088,lexical_decision_task_DD_L3,2021.2.3,Win32,60.39012018,,,,,,,,,,,1.020400001,1,,,,,,,,,,,,,,z,1,1.020400001,,,,,,,,0.024739583,-0.39453125,0,0,0,,0,102,102,112,1,MYING,HB,old,z,./images/MYINGHB.png,,,,,,,,,,,,,,,,,,,,,,,,,,,,,,,,,,,
,,,,,,,,,,,,,,,,,6107272874f58769a86a21b9,50,2022-02-12_13h20.34.088,lexical_decision_task_DD_L3,2021.2.3,Win32,60.39012018,,,,,,,,,,,0.9655,1,,,,,,,,,,,,,,z,1,0.9655,,,,,,,,0.024739583,-0.39453125,0,0,0,,0,103,103,157,1,INLER,HB,old,z,./images/INLERHB.png,,,,,,,,,,,,,,,,,,,,,,,,,,,,,,,,,,,
,,,,,,,,,,,,,,,,,6107272874f58769a86a21b9,50,2022-02-12_13h20.34.088,lexical_decision_task_DD_L3,2021.2.3,Win32,60.39012018,,,,,,,,,,,0.783,1,,,,,,,,,,,,,,z,1,0.783,,,,,,,,0.024739583,-0.39453125,0,0,0,,0,104,104,158,1,EGECT,LB,old,z,./images/EGECTLB.png,,,,,,,,,,,,,,,,,,,,,,,,,,,,,,,,,,,
,,,,,,,,,,,,,,,,,6107272874f58769a86a21b9,50,2022-02-12_13h20.34.088,lexical_decision_task_DD_L3,2021.2.3,Win32,60.39012018,,,,,,,,,,,0.942599999,1,,,,,,,,,,,,,,z,1,0.942599999,,,,,,,,0.024739583,-0.39453125,0,0,0,,0,105,105,142,1,PLASK,HB,old,z,./images/PLASKHB.png,,,,,,,,,,,,,,,,,,,,,,,,,,,,,,,,,,,
,,,,,,,,,,,,,,,,,6107272874f58769a86a21b9,50,2022-02-12_13h20.34.088,lexical_decision_task_DD_L3,2021.2.3,Win32,60.39012018,,,,,,,,,,,0.656799999,1,,,,,,,,,,,,,,z,1,0.656799999,,,,,,,,0.024739583,-0.39453125,0,0,0,,0,106,106,137,1,JOOST,LB,old,z,./images/JOOSTLB.png,,,,,,,,,,,,,,,,,,,,,,,,,,,,,,,,,,,
,,,,,,,,,,,,,,,,,6107272874f58769a86a21b9,50,2022-02-12_13h20.34.088,lexical_decision_task_DD_L3,2021.2.3,Win32,60.39012018,,,,,,,,,,,0.7294,1,,,,,,,,,,,,,,m,1,0.7294,,,,,,,,0.024739583,-0.39453125,0,0,0,,0,107,107,49,1,DRUMS,C,old,m,./images/DRUMS.png,,,,,,,,,,,,,,,,,,,,,,,,,,,,,,,,,,,
,,,,,,,,,,,,,,,,,6107272874f58769a86a21b9,50,2022-02-12_13h20.34.088,lexical_decision_task_DD_L3,2021.2.3,Win32,60.39012018,,,,,,,,,,,0.9393,1,,,,,,,,,,,,,,m,1,0.9393,,,,,,,,0.024739583,-0.39453125,0,0,0,,0,108,108,44,1,LIZARD,HB,old,m,./images/LIZARDHB.png,,,,,,,,,,,,,,,,,,,,,,,,,,,,,,,,,,,
,,,,,,,,,,,,,,,,,6107272874f58769a86a21b9,50,2022-02-12_13h20.34.088,lexical_decision_task_DD_L3,2021.2.3,Win32,60.39012018,,,,,,,,,,,0.7666,0,,,,,,,,,,,,,,z,0,0.7666,,,,,,,,0.024739583,-0.39453125,0,0,0,,0,109,109,2,1,BEARD,HB,old,m,./images/BEARDHB.png,,,,,,,,,,,,,,,,,,,,,,,,,,,,,,,,,,,
,,,,,,,,,,,,,,,,,6107272874f58769a86a21b9,50,2022-02-12_13h20.34.088,lexical_decision_task_DD_L3,2021.2.3,Win32,60.39012018,,,,,,,,,,,0.728,1,,,,,,,,,,,,,,m,1,0.728,,,,,,,,0.024739583,-0.39453125,0,0,0,,0,110,110,32,1,BARREL,HB,old,m,./images/BARRELHB.png,,,,,,,,,,,,,,,,,,,,,,,,,,,,,,,,,,,
,,,,,,,,,,,,,,,,,6107272874f58769a86a21b9,50,2022-02-12_13h20.34.088,lexical_decision_task_DD_L3,2021.2.3,Win32,60.39012018,,,,,,,,,,,0.700099999,1,,,,,,,,,,,,,,m,1,0.700099999,,,,,,,,0.024739583,-0.39453125,0,0,0,,0,111,111,5,1,PASTA,HB,old,m,./images/PASTAHB.png,,,,,,,,,,,,,,,,,,,,,,,,,,,,,,,,,,,
,,,,,,,,,,,,,,,,,6107272874f58769a86a21b9,50,2022-02-12_13h20.34.088,lexical_decision_task_DD_L3,2021.2.3,Win32,60.39012018,,,,,,,,,,,0.6564,0,,,,,,,,,,,,,,m,0,0.6564,,,,,,,,0.024739583,-0.39453125,0,0,0,,0,112,112,165,1,TROWN,C,old,z,./images/TROWN.png,,,,,,,,,,,,,,,,,,,,,,,,,,,,,,,,,,,
,,,,,,,,,,,,,,,,,6107272874f58769a86a21b9,50,2022-02-12_13h20.34.088,lexical_decision_task_DD_L3,2021.2.3,Win32,60.39012018,,,,,,,,,,,0.697400001,1,,,,,,,,,,,,,,m,1,0.697400001,,,,,,,,0.024739583,-0.39453125,0,0,0,,0,113,113,37,1,BIRTH,C,old,m,./images/BIRTH.png,,,,,,,,,,,,,,,,,,,,,,,,,,,,,,,,,,,
,,,,,,,,,,,,,,,,,6107272874f58769a86a21b9,50,2022-02-12_13h20.34.088,lexical_decision_task_DD_L3,2021.2.3,Win32,60.39012018,,,,,,,,,,,0.8265,1,,,,,,,,,,,,,,m,1,0.8265,,,,,,,,0.024739583,-0.39453125,0,0,0,,0,114,114,54,1,TRIPOD,LB,old,m,./images/TRIPODLB.png,,,,,,,,,,,,,,,,,,,,,,,,,,,,,,,,,,,
,,,,,,,,,,,,,,,,,6107272874f58769a86a21b9,50,2022-02-12_13h20.34.088,lexical_decision_task_DD_L3,2021.2.3,Win32,60.39012018,,,,,,,,,,,0.7949,1,,,,,,,,,,,,,,m,1,0.7949,,,,,,,,0.024739583,-0.39453125,0,0,0,,0,115,115,28,1,FALCON,C,old,m,./images/FALCON.png,,,,,,,,,,,,,,,,,,,,,,,,,,,,,,,,,,,
,,,,,,,,,,,,,,,,,6107272874f58769a86a21b9,50,2022-02-12_13h20.34.088,lexical_decision_task_DD_L3,2021.2.3,Win32,60.39012018,,,,,,,,,,,0.6865,1,,,,,,,,,,,,,,m,1,0.6865,,,,,,,,0.024739583,-0.39453125,0,0,0,,0,116,116,70,1,URINE,C,old,m,./images/URINE.png,,,,,,,,,,,,,,,,,,,,,,,,,,,,,,,,,,,
,,,,,,,,,,,,,,,,,6107272874f58769a86a21b9,50,2022-02-12_13h20.34.088,lexical_decision_task_DD_L3,2021.2.3,Win32,60.39012018,,,,,,,,,,,0.9768,0,,,,,,,,,,,,,,z,0,0.9768,,,,,,,,0.024739583,-0.39453125,0,0,0,,0,117,117,17,1,SKIING,HB,old,m,./images/SKIINGHB.png,,,,,,,,,,,,,,,,,,,,,,,,,,,,,,,,,,,
,,,,,,,,,,,,,,,,,6107272874f58769a86a21b9,50,2022-02-12_13h20.34.088,lexical_decision_task_DD_L3,2021.2.3,Win32,60.39012018,,,,,,,,,,,0.905599999,1,,,,,,,,,,,,,,z,1,0.905599999,,,,,,,,0.024739583,-0.39453125,0,0,0,,0,118,118,113,1,LINEW,LB,old,z,./images/LINEWLB.png,,,,,,,,,,,,,,,,,,,,,,,,,,,,,,,,,,,
,,,,,,,,,,,,,,,,,6107272874f58769a86a21b9,50,2022-02-12_13h20.34.088,lexical_decision_task_DD_L3,2021.2.3,Win32,60.39012018,,,,,,,,,,,0.6495,1,,,,,,,,,,,,,,m,1,0.6495,,,,,,,,0.024739583,-0.39453125,0,0,0,,0,119,119,30,1,STORM,LB,old,m,./images/STORMLB.png,,,,,,,,,,,,,,,,,,,,,,,,,,,,,,,,,,,
,,,,,,,,,,,,,,,,,6107272874f58769a86a21b9,50,2022-02-12_13h20.34.088,lexical_decision_task_DD_L3,2021.2.3,Win32,60.39012018,,,,,,,,,,,0.6181,1,,,,,,,,,,,,,,m,1,0.6181,,,,,,,,0.024739583,-0.39453125,0,0,0,,0,120,120,48,1,SPORT,LB,old,m,./images/SPORTLB.png,,,,,,,,,,,,,,,,,,,,,,,,,,,,,,,,,,,
,,,,,,,,,,,,,,,,,6107272874f58769a86a21b9,50,2022-02-12_13h20.34.088,lexical_decision_task_DD_L3,2021.2.3,Win32,60.39012018,,,,,,,,,,,0.6563,1,,,,,,,,,,,,,,m,1,0.6563,,,,,,,,0.024739583,-0.39453125,0,0,0,,0,121,121,82,1,SUNSET,C,old,m,./images/SUNSET.png,,,,,,,,,,,,,,,,,,,,,,,,,,,,,,,,,,,
,,,,,,,,,,,,,,,,,6107272874f58769a86a21b9,50,2022-02-12_13h20.34.088,lexical_decision_task_DD_L3,2021.2.3,Win32,60.39012018,,,,,,,,,,,0.695,1,,,,,,,,,,,,,,z,1,0.695,,,,,,,,0.024739583,-0.39453125,0,0,0,,0,122,122,115,1,MAWNS,HB,old,z,./images/MAWNSHB.png,,,,,,,,,,,,,,,,,,,,,,,,,,,,,,,,,,,
,,,,,,,,,,,,,,,,,6107272874f58769a86a21b9,50,2022-02-12_13h20.34.088,lexical_decision_task_DD_L3,2021.2.3,Win32,60.39012018,,,,,,,,,,,0.5835,1,,,,,,,,,,,,,,m,1,0.5835,,,,,,,,0.024739583,-0.39453125,0,0,0,,0,123,123,55,1,MUFFIN,C,old,m,./images/MUFFIN.png,,,,,,,,,,,,,,,,,,,,,,,,,,,,,,,,,,,
,,,,,,,,,,,,,,,,,6107272874f58769a86a21b9,50,2022-02-12_13h20.34.088,lexical_decision_task_DD_L3,2021.2.3,Win32,60.39012018,,,,,,,,,,,0.794599999,1,,,,,,,,,,,,,,z,1,0.794599999,,,,,,,,0.024739583,-0.39453125,0,0,0,,0,124,124,145,1,LAMEL,HB,old,z,./images/LAMELHB.png,,,,,,,,,,,,,,,,,,,,,,,,,,,,,,,,,,,
,,,,,,,,,,,,,,,,,6107272874f58769a86a21b9,50,2022-02-12_13h20.34.088,lexical_decision_task_DD_L3,2021.2.3,Win32,60.39012018,,,,,,,,,,,0.732299999,1,,,,,,,,,,,,,,z,1,0.732299999,,,,,,,,0.024739583,-0.39453125,0,0,0,space,0,125,125,90,1,NEAST,C,old,z,./images/NEAST.png,4.096599999,,,,,,,,,,,,,,,,,,,,,,,,,,,,,,,,,,
,,,,,,,,,,,,,,,,,6107272874f58769a86a21b9,50,2022-02-12_13h20.34.088,lexical_decision_task_DD_L3,2021.2.3,Win32,60.39012018,,,,,,,,,,,0.732799999,1,,,,,,,,,,,,,,z,1,0.732799999,,,,,,,,0.024739583,-0.39453125,0,0,0,,0,126,126,131,1,NACES,LB,old,z,./images/NACESLB.png,,,,,,,,,,,,,,,,,,,,,,,,,,,,,,,,,,,
,,,,,,,,,,,,,,,,,6107272874f58769a86a21b9,50,2022-02-12_13h20.34.088,lexical_decision_task_DD_L3,2021.2.3,Win32,60.39012018,,,,,,,,,,,0.6556,1,,,,,,,,,,,,,,z,1,0.6556,,,,,,,,0.024739583,-0.39453125,0,0,0,,0,127,127,164,1,SGREW,LB,old,z,./images/SGREWLB.png,,,,,,,,,,,,,,,,,,,,,,,,,,,,,,,,,,,
,,,,,,,,,,,,,,,,,6107272874f58769a86a21b9,50,2022-02-12_13h20.34.088,lexical_decision_task_DD_L3,2021.2.3,Win32,60.39012018,,,,,,,,,,,0.6188,1,,,,,,,,,,,,,,m,1,0.6188,,,,,,,,0.024739583,-0.39453125,0,0,0,,0,128,128,67,1,SAILOR,C,old,m,./images/SAILOR.png,,,,,,,,,,,,,,,,,,,,,,,,,,,,,,,,,,,
,,,,,,,,,,,,,,,,,6107272874f58769a86a21b9,50,2022-02-12_13h20.34.088,lexical_decision_task_DD_L3,2021.2.3,Win32,60.39012018,,,,,,,,,,,0.6554,1,,,,,,,,,,,,,,m,1,0.6554,,,,,,,,0.024739583,-0.39453125,0,0,0,,0,129,129,6,1,SQUARE,LB,old,m,./images/SQUARELB.png,,,,,,,,,,,,,,,,,,,,,,,,,,,,,,,,,,,
,,,,,,,,,,,,,,,,,6107272874f58769a86a21b9,50,2022-02-12_13h20.34.088,lexical_decision_task_DD_L3,2021.2.3,Win32,60.39012018,,,,,,,,,,,0.7232,1,,,,,,,,,,,,,,z,1,0.7232,,,,,,,,0.024739583,-0.39453125,0,0,0,,0,130,130,91,1,SHENS,HB,old,z,./images/SHENSHB.png,,,,,,,,,,,,,,,,,,,,,,,,,,,,,,,,,,,
,,,,,,,,,,,,,,,,,6107272874f58769a86a21b9,50,2022-02-12_13h20.34.088,lexical_decision_task_DD_L3,2021.2.3,Win32,60.39012018,,,,,,,,,,,0.7405,1,,,,,,,,,,,,,,m,1,0.7405,,,,,,,,0.024739583,-0.39453125,0,0,0,,0,131,131,35,1,PEACH,HB,old,m,./images/PEACHHB.png,,,,,,,,,,,,,,,,,,,,,,,,,,,,,,,,,,,
,,,,,,,,,,,,,,,,,6107272874f58769a86a21b9,50,2022-02-12_13h20.34.088,lexical_decision_task_DD_L3,2021.2.3,Win32,60.39012018,,,,,,,,,,,0.967900001,1,,,,,,,,,,,,,,m,1,0.967900001,,,,,,,,0.024739583,-0.39453125,0,0,0,,0,132,132,58,1,BABOON,C,old,m,./images/BABOON.png,,,,,,,,,,,,,,,,,,,,,,,,,,,,,,,,,,,
,,,,,,,,,,,,,,,,,6107272874f58769a86a21b9,50,2022-02-12_13h20.34.088,lexical_decision_task_DD_L3,2021.2.3,Win32,60.39012018,,,,,,,,,,,0.6901,1,,,,,,,,,,,,,,m,1,0.6901,,,,,,,,0.024739583,-0.39453125,0,0,0,,0,133,133,24,1,SCREW,LB,old,m,./images/SCREWLB.png,,,,,,,,,,,,,,,,,,,,,,,,,,,,,,,,,,,
,,,,,,,,,,,,,,,,,6107272874f58769a86a21b9,50,2022-02-12_13h20.34.088,lexical_decision_task_DD_L3,2021.2.3,Win32,60.39012018,,,,,,,,,,,0.7304,1,,,,,,,,,,,,,,z,1,0.7304,,,,,,,,0.024739583,-0.39453125,0,0,0,,0,134,134,120,1,RINED,C,old,z,./images/RINED.png,,,,,,,,,,,,,,,,,,,,,,,,,,,,,,,,,,,
,,,,,,,,,,,,,,,,,6107272874f58769a86a21b9,50,2022-02-12_13h20.34.088,lexical_decision_task_DD_L3,2021.2.3,Win32,60.39012018,,,,,,,,,,,0.787700001,1,,,,,,,,,,,,,,z,1,0.787700001,,,,,,,,0.024739583,-0.39453125,0,0,0,,0,135,135,123,1,SEDGE,C,old,z,./images/SEDGE.png,,,,,,,,,,,,,,,,,,,,,,,,,,,,,,,,,,,
,,,,,,,,,,,,,,,,,6107272874f58769a86a21b9,50,2022-02-12_13h20.34.088,lexical_decision_task_DD_L3,2021.2.3,Win32,60.39012018,,,,,,,,,,,0.7159,1,,,,,,,,,,,,,,m,1,0.7159,,,,,,,,0.024739583,-0.39453125,0,0,0,,0,136,136,10,1,BELLY,C,old,m,./images/BELLY.png,,,,,,,,,,,,,,,,,,,,,,,,,,,,,,,,,,,
,,,,,,,,,,,,,,,,,6107272874f58769a86a21b9,50,2022-02-12_13h20.34.088,lexical_decision_task_DD_L3,2021.2.3,Win32,60.39012018,,,,,,,,,,,0.6463,1,,,,,,,,,,,,,,m,1,0.6463,,,,,,,,0.024739583,-0.39453125,0,0,0,,0,137,137,39,1,SHELF,LB,old,m,./images/SHELFLB.png,,,,,,,,,,,,,,,,,,,,,,,,,,,,,,,,,,,
,,,,,,,,,,,,,,,,,6107272874f58769a86a21b9,50,2022-02-12_13h20.34.088,lexical_decision_task_DD_L3,2021.2.3,Win32,60.39012018,,,,,,,,,,,0.7456,1,,,,,,,,,,,,,,m,1,0.7456,,,,,,,,0.024739583,-0.39453125,0,0,0,,0,138,138,9,1,RHINO,LB,old,m,./images/RHINOLB.png,,,,,,,,,,,,,,,,,,,,,,,,,,,,,,,,,,,
,,,,,,,,,,,,,,,,,6107272874f58769a86a21b9,50,2022-02-12_13h20.34.088,lexical_decision_task_DD_L3,2021.2.3,Win32,60.39012018,,,,,,,,,,,0.9281,1,,,,,,,,,,,,,,m,1,0.9281,,,,,,,,0.024739583,-0.39453125,0,0,0,,0,139,139,38,1,LADDER,HB,old,m,./images/LADDERHB.png,,,,,,,,,,,,,,,,,,,,,,,,,,,,,,,,,,,
,,,,,,,,,,,,,,,,,6107272874f58769a86a21b9,50,2022-02-12_13h20.34.088,lexical_decision_task_DD_L3,2021.2.3,Win32,60.39012018,,,,,,,,,,,0.6539,1,,,,,,,,,,,,,,m,1,0.6539,,,,,,,,0.024739583,-0.39453125,0,0,0,,0,140,140,45,1,KITTEN,LB,old,m,./images/KITTENLB.png,,,,,,,,,,,,,,,,,,,,,,,,,,,,,,,,,,,
,,,,,,,,,,,,,,,,,6107272874f58769a86a21b9,50,2022-02-12_13h20.34.088,lexical_decision_task_DD_L3,2021.2.3,Win32,60.39012018,,,,,,,,,,,0.6231,1,,,,,,,,,,,,,,m,1,0.6231,,,,,,,,0.024739583,-0.39453125,0,0,0,,0,141,141,13,1,MOTOR,C,old,m,./images/MOTOR.png,,,,,,,,,,,,,,,,,,,,,,,,,,,,,,,,,,,
,,,,,,,,,,,,,,,,,6107272874f58769a86a21b9,50,2022-02-12_13h20.34.088,lexical_decision_task_DD_L3,2021.2.3,Win32,60.39012018,,,,,,,,,,,0.6527,1,,,,,,,,,,,,,,m,1,0.6527,,,,,,,,0.024739583,-0.39453125,0,0,0,,0,142,142,3,1,FINGER,LB,old,m,./images/FINGERLB.png,,,,,,,,,,,,,,,,,,,,,,,,,,,,,,,,,,,
,,,,,,,,,,,,,,,,,6107272874f58769a86a21b9,50,2022-02-12_13h20.34.088,lexical_decision_task_DD_L3,2021.2.3,Win32,60.39012018,,,,,,,,,,,0.6124,1,,,,,,,,,,,,,,m,1,0.6124,,,,,,,,0.024739583,-0.39453125,0,0,0,,0,143,143,60,1,TWINS,LB,old,m,./images/TWINSLB.png,,,,,,,,,,,,,,,,,,,,,,,,,,,,,,,,,,,
,,,,,,,,,,,,,,,,,6107272874f58769a86a21b9,50,2022-02-12_13h20.34.088,lexical_decision_task_DD_L3,2021.2.3,Win32,60.39012018,,,,,,,,,,,0.8488,1,,,,,,,,,,,,,,m,1,0.8488,,,,,,,,0.024739583,-0.39453125,0,0,0,,0,144,144,50,1,MALLET,HB,old,m,./images/MALLETHB.png,,,,,,,,,,,,,,,,,,,,,,,,,,,,,,,,,,,
,,,,,,,,,,,,,,,,,6107272874f58769a86a21b9,50,2022-02-12_13h20.34.088,lexical_decision_task_DD_L3,2021.2.3,Win32,60.39012018,,,,,,,,,,,0.7242,1,,,,,,,,,,,,,,z,1,0.7242,,,,,,,,0.024739583,-0.39453125,0,0,0,,0,145,145,135,1,JOODY,C,old,z,./images/JOODY.png,,,,,,,,,,,,,,,,,,,,,,,,,,,,,,,,,,,
,,,,,,,,,,,,,,,,,6107272874f58769a86a21b9,50,2022-02-12_13h20.34.088,lexical_decision_task_DD_L3,2021.2.3,Win32,60.39012018,,,,,,,,,,,0.719700001,1,,,,,,,,,,,,,,m,1,0.719700001,,,,,,,,0.024739583,-0.39453125,0,0,0,,0,146,146,83,1,JUNGLE,HB,old,m,./images/JUNGLEHB.png,,,,,,,,,,,,,,,,,,,,,,,,,,,,,,,,,,,
,,,,,,,,,,,,,,,,,6107272874f58769a86a21b9,50,2022-02-12_13h20.34.088,lexical_decision_task_DD_L3,2021.2.3,Win32,60.39012018,,,,,,,,,,,0.8332,1,,,,,,,,,,,,,,z,1,0.8332,,,,,,,,0.024739583,-0.39453125,0,0,0,,0,147,147,103,1,FLORT,HB,old,z,./images/FLORTHB.png,,,,,,,,,,,,,,,,,,,,,,,,,,,,,,,,,,,
,,,,,,,,,,,,,,,,,6107272874f58769a86a21b9,50,2022-02-12_13h20.34.088,lexical_decision_task_DD_L3,2021.2.3,Win32,60.39012018,,,,,,,,,,,0.8347,1,,,,,,,,,,,,,,z,1,0.8347,,,,,,,,0.024739583,-0.39453125,0,0,0,,0,148,148,122,1,BLOOT,LB,old,z,./images/BLOOTLB.png,,,,,,,,,,,,,,,,,,,,,,,,,,,,,,,,,,,
,,,,,,,,,,,,,,,,,6107272874f58769a86a21b9,50,2022-02-12_13h20.34.088,lexical_decision_task_DD_L3,2021.2.3,Win32,60.39012018,,,,,,,,,,,0.679,1,,,,,,,,,,,,,,m,1,0.679,,,,,,,,0.024739583,-0.39453125,0,0,0,,0,149,149,77,1,COUCH,HB,old,m,./images/COUCHHB.png,,,,,,,,,,,,,,,,,,,,,,,,,,,,,,,,,,,
,,,,,,,,,,,,,,,,,6107272874f58769a86a21b9,50,2022-02-12_13h20.34.088,lexical_decision_task_DD_L3,2021.2.3,Win32,60.39012018,,,,,,,,,,,0.8693,0,,,,,,,,,,,,,,m,0,0.8693,,,,,,,,0.024739583,-0.39453125,0,0,0,,0,150,150,100,1,DRIBS,HB,old,z,./images/DRIBSHB.png,,,,,,,,,,,,,,,,,,,,,,,,,,,,,,,,,,,
,,,,,,,,,,,,,,,,,6107272874f58769a86a21b9,50,2022-02-12_13h20.34.088,lexical_decision_task_DD_L3,2021.2.3,Win32,60.39012018,,,,,,,,,,,0.8117,1,,,,,,,,,,,,,,z,1,0.8117,,,,,,,,0.024739583,-0.39453125,0,0,0,,0,151,151,126,1,GUELS,C,old,z,./images/GUELS.png,,,,,,,,,,,,,,,,,,,,,,,,,,,,,,,,,,,
,,,,,,,,,,,,,,,,,6107272874f58769a86a21b9,50,2022-02-12_13h20.34.088,lexical_decision_task_DD_L3,2021.2.3,Win32,60.39012018,,,,,,,,,,,1.0086,1,,,,,,,,,,,,,,m,1,1.0086,,,,,,,,0.024739583,-0.39453125,0,0,0,,0,152,152,11,1,BONNET,HB,old,m,./images/BONNETHB.png,,,,,,,,,,,,,,,,,,,,,,,,,,,,,,,,,,,
,,,,,,,,,,,,,,,,,6107272874f58769a86a21b9,50,2022-02-12_13h20.34.088,lexical_decision_task_DD_L3,2021.2.3,Win32,60.39012018,,,,,,,,,,,0.6554,1,,,,,,,,,,,,,,z,1,0.6554,,,,,,,,0.024739583,-0.39453125,0,0,0,,0,153,153,132,1,SCIFF,C,old,z,./images/SCIFF.png,,,,,,,,,,,,,,,,,,,,,,,,,,,,,,,,,,,
,,,,,,,,,,,,,,,,,6107272874f58769a86a21b9,50,2022-02-12_13h20.34.088,lexical_decision_task_DD_L3,2021.2.3,Win32,60.39012018,,,,,,,,,,,0.6531,1,,,,,,,,,,,,,,m,1,0.6531,,,,,,,,0.024739583,-0.39453125,0,0,0,,0,154,154,1,1,PLANK,C,old,m,./images/PLANK.png,,,,,,,,,,,,,,,,,,,,,,,,,,,,,,,,,,,
,,,,,,,,,,,,,,,,,6107272874f58769a86a21b9,50,2022-02-12_13h20.34.088,lexical_decision_task_DD_L3,2021.2.3,Win32,60.39012018,,,,,,,,,,,0.7276,1,,,,,,,,,,,,,,z,1,0.7276,,,,,,,,0.024739583,-0.39453125,0,0,0,,0,155,155,162,1,LEICH,C,old,z,./images/LEICH.png,,,,,,,,,,,,,,,,,,,,,,,,,,,,,,,,,,,
,,,,,,,,,,,,,,,,,6107272874f58769a86a21b9,50,2022-02-12_13h20.34.088,lexical_decision_task_DD_L3,2021.2.3,Win32,60.39012018,,,,,,,,,,,0.763200001,1,,,,,,,,,,,,,,m,1,0.763200001,,,,,,,,0.024739583,-0.39453125,0,0,0,,0,156,156,29,1,CRUMB,HB,old,m,./images/CRUMBHB.png,,,,,,,,,,,,,,,,,,,,,,,,,,,,,,,,,,,
,,,,,,,,,,,,,,,,,6107272874f58769a86a21b9,50,2022-02-12_13h20.34.088,lexical_decision_task_DD_L3,2021.2.3,Win32,60.39012018,,,,,,,,,,,0.7479,1,,,,,,,,,,,,,,m,1,0.7479,,,,,,,,0.024739583,-0.39453125,0,0,0,,0,157,157,46,1,PEARL,C,old,m,./images/PEARL.png,,,,,,,,,,,,,,,,,,,,,,,,,,,,,,,,,,,
,,,,,,,,,,,,,,,,,6107272874f58769a86a21b9,50,2022-02-12_13h20.34.088,lexical_decision_task_DD_L3,2021.2.3,Win32,60.39012018,,,,,,,,,,,0.6268,1,,,,,,,,,,,,,,m,1,0.6268,,,,,,,,0.024739583,-0.39453125,0,0,0,,0,158,158,22,1,MELON,C,old,m,./images/MELON.png,,,,,,,,,,,,,,,,,,,,,,,,,,,,,,,,,,,
,,,,,,,,,,,,,,,,,6107272874f58769a86a21b9,50,2022-02-12_13h20.34.088,lexical_decision_task_DD_L3,2021.2.3,Win32,60.39012018,,,,,,,,,,,0.8073,1,,,,,,,,,,,,,,m,1,0.8073,,,,,,,,0.024739583,-0.39453125,0,0,0,,0,159,159,23,1,WALRUS,HB,old,m,./images/WALRUSHB.png,,,,,,,,,,,,,,,,,,,,,,,,,,,,,,,,,,,
,,,,,,,,,,,,,,,,,6107272874f58769a86a21b9,50,2022-02-12_13h20.34.088,lexical_decision_task_DD_L3,2021.2.3,Win32,60.39012018,,,,,,,,,,,0.726599999,1,,,,,,,,,,,,,,z,1,0.726599999,,,,,,,,0.024739583,-0.39453125,0,0,0,,0,160,160,105,1,MOKER,C,old,z,./images/MOKER.png,,,,,,,,,,,,,,,,,,,,,,,,,,,,,,,,,,,
,,,,,,,,,,,,,,,,,6107272874f58769a86a21b9,50,2022-02-12_13h20.34.088,lexical_decision_task_DD_L3,2021.2.3,Win32,60.39012018,,,,,,,,,,,0.9092,1,,,,,,,,,,,,,,z,1,0.9092,,,,,,,,0.024739583,-0.39453125,0,0,0,,0,161,161,151,1,TINKY,HB,old,z,./images/TINKYHB.png,,,,,,,,,,,,,,,,,,,,,,,,,,,,,,,,,,,
,,,,,,,,,,,,,,,,,6107272874f58769a86a21b9,50,2022-02-12_13h20.34.088,lexical_decision_task_DD_L3,2021.2.3,Win32,60.39012018,,,,,,,,,,,0.863400001,1,,,,,,,,,,,,,,z,1,0.863400001,,,,,,,,0.024739583,-0.39453125,0,0,0,,0,162,162,134,1,TROSS,LB,old,z,./images/TROSSLB.png,,,,,,,,,,,,,,,,,,,,,,,,,,,,,,,,,,,
,,,,,,,,,,,,,,,,,6107272874f58769a86a21b9,50,2022-02-12_13h20.34.088,lexical_decision_task_DD_L3,2021.2.3,Win32,60.39012018,,,,,,,,,,,0.6543,1,,,,,,,,,,,,,,m,1,0.6543,,,,,,,,0.024739583,-0.39453125,0,0,0,,0,163,163,40,1,SWING,C,old,m,./images/SWING.png,,,,,,,,,,,,,,,,,,,,,,,,,,,,,,,,,,,
,,,,,,,,,,,,,,,,,6107272874f58769a86a21b9,50,2022-02-12_13h20.34.088,lexical_decision_task_DD_L3,2021.2.3,Win32,60.39012018,,,,,,,,,,,0.7198,1,,,,,,,,,,,,,,z,1,0.7198,,,,,,,,0.024739583,-0.39453125,0,0,0,,0,164,164,141,1,PLEET,C,old,z,./images/PLEET.png,,,,,,,,,,,,,,,,,,,,,,,,,,,,,,,,,,,
,,,,,,,,,,,,,,,,,6107272874f58769a86a21b9,50,2022-02-12_13h20.34.088,lexical_decision_task_DD_L3,2021.2.3,Win32,60.39012018,,,,,,,,,,,0.7722,1,,,,,,,,,,,,,,z,1,0.7722,,,,,,,,0.024739583,-0.39453125,0,0,0,,0,165,165,129,1,PRANS,C,old,z,./images/PRANS.png,,,,,,,,,,,,,,,,,,,,,,,,,,,,,,,,,,,
,,,,,,,,,,,,,,,,,6107272874f58769a86a21b9,50,2022-02-12_13h20.34.088,lexical_decision_task_DD_L3,2021.2.3,Win32,60.39012018,,,,,,,,,,,0.9422,0,,,,,,,,,,,,,,m,0,0.9422,,,,,,,,0.024739583,-0.39453125,0,0,0,,0,166,166,163,1,GAMBA,HB,old,z,./images/GAMBAHB.png,,,,,,,,,,,,,,,,,,,,,,,,,,,,,,,,,,,
,,,,,,,,,,,,,,,,,6107272874f58769a86a21b9,50,2022-02-12_13h20.34.088,lexical_decision_task_DD_L3,2021.2.3,Win32,60.39012018,,,,,,,,,,,1.330099999,1,,,,,,,,,,,,,,z,1,1.330099999,,,,,,,,0.024739583,-0.39453125,0,0,0,,0,167,167,140,1,DOVET,LB,old,z,./images/DOVETLB.png,,,,,,,,,,,,,,,,,,,,,,,,,,,,,,,,,,,
,,,,,,,,,,,,,,,,,6107272874f58769a86a21b9,50,2022-02-12_13h20.34.088,lexical_decision_task_DD_L3,2021.2.3,Win32,60.39012018,,,,,,,,,,,,,,,,,,,,,,,,,,,,,,,,,,,,,,,,,,,,,,,,How likely will it be that you will recognize the words presented slighly blurred on a scale of 0 (not likely) to 100 (most likely)?,,,,,0.014322917,-0.432291667,1,0,0,jol_adv,4,17.6317,0,0,0,1,1,,,,,,,,,,,,,,,,,,,,,
,,,,,,,,,,,,,,,,,6107272874f58769a86a21b9,50,2022-02-12_13h20.34.088,lexical_decision_task_DD_L3,2021.2.3,Win32,60.39012018,,,,,,,,,,,,,,,,,,,,,,,,,,,,,,,,,,,,,,,,,,,,,,,,How likely will it be that you will recognize the words presented very blurred on a scale of 0 (not likely) to 100 (most likely)?,,,,,,,,,,,2,6.9638,0,1,1,2,1,,,,,,,,,,,,,,,,,,,,,
,,,,,,,,,,,,,,,,,6107272874f58769a86a21b9,50,2022-02-12_13h20.34.088,lexical_decision_task_DD_L3,2021.2.3,Win32,60.39012018,,,,,,,,,,,,,,,,,,,,,,,,,,,,,,,,,,,,,,,,,,,,,,,,How likely will it be that you will recognize the words presented clearly on a scale of 0 (not likely) to 100 (most likely)?,,,,,,,,,,,6,7.3105,0,2,2,0,1,,,,,,,,,,,,,,,,,,,,,
space,25.1912,0.498697917,-0.205729167,0,0,0,,,,,,1,test,"In the next phase you will be presented with the words from the the first phase. Your job is to decide whether you remember seeing the word or not. If you remember seeing the word press ""old"" or type ""m"". If you do not remember seeing the word press ""new"" or type ""z"". Please press the space bar or click on continue to begin. ",,,6107272874f58769a86a21b9,50,2022-02-12_13h20.34.088,lexical_decision_task_DD_L3,2021.2.3,Win32,60.39012018,,,,,,,,,,,,,,,,,,,,,,,,,,,,,,,,,,,,,,,,,,,,,,,,,,,,,,,,,,,,,,,,,,0,0,0,0,1,,,,,,,,,,,,,,,,
,,0.055989583,-0.411458333,1,0,0,,,,,,1,test,"In the next phase you will be presented with the words from the the first phase. Your job is to decide whether you remember seeing the word or not. If you remember seeing the word press ""old"" or type ""m"". If you do not remember seeing the word press ""new"" or type ""z"". Please press the space bar or click on continue to begin. ",,,6107272874f58769a86a21b9,50,2022-02-12_13h20.34.088,lexical_decision_task_DD_L3,2021.2.3,Win32,60.39012018,,,,,,,,,,,,,,,,,,,,,,,,,,,,,,,,,,,,,,,,,,,,,,,,,,,,,,,,,,,,,,,,,,1,0,1,0,1,instr_done_button,,,,,,,,,,,,,,,
space,3.3173,0.055989583,-0.411458333,0,0,0,,,,,,1,test,"In the next phase you will be presented with the words from the the first phase. Your job is to decide whether you remember seeing the word or not. If you remember seeing the word press ""old"" or type ""m"". If you do not remember seeing the word press ""new"" or type ""z"". Please press the space bar or click on continue to begin. ",,,6107272874f58769a86a21b9,50,2022-02-12_13h20.34.088,lexical_decision_task_DD_L3,2021.2.3,Win32,60.39012018,,,,,,,,,,,,,,,,,,,,,,,,,,,,,,,,,,,,,,,,,,,,,,,,,,,,,,,,,,,,,,,,,,2,0,2,0,1,,,,,,,,,,,,,,,,
,,-0.00390625,-0.40625,1,0,0,,,,,,1,test,"In the next phase you will be presented with the words from the the first phase. Your job is to decide whether you remember seeing the word or not. If you remember seeing the word press ""old"" or type ""m"". If you do not remember seeing the word press ""new"" or type ""z"". Please press the space bar or click on continue to begin. ",,,6107272874f58769a86a21b9,50,2022-02-12_13h20.34.088,lexical_decision_task_DD_L3,2021.2.3,Win32,60.39012018,,,,,,,,,,,,,,,,,,,,,,,,,,,,,,,,,,,,,,,,,,,,,,,,,,,,,,,,,,,,,,,,,,3,0,3,0,1,instr_done_button,,,,,,,,,,,,,,,
space,0.9516,-0.00390625,-0.40625,0,0,0,,,,,,1,test,"In the next phase you will be presented with the words from the the first phase. Your job is to decide whether you remember seeing the word or not. If you remember seeing the word press ""old"" or type ""m"". If you do not remember seeing the word press ""new"" or type ""z"". Please press the space bar or click on continue to begin. ",,,6107272874f58769a86a21b9,50,2022-02-12_13h20.34.088,lexical_decision_task_DD_L3,2021.2.3,Win32,60.39012018,,,,,,,,,,,,,,,,,,,,,,,,,,,,,,,,,,,,,,,,,,,,,,,,,,,,,,,,,,,,,,,,,,4,0,4,0,1,,,,,,,,,,,,,,,,
,,,,,,,,,,,,,,,,,6107272874f58769a86a21b9,50,2022-02-12_13h20.34.088,lexical_decision_task_DD_L3,2021.2.3,Win32,60.39012018,,,,,,,,,,,0.9927,1,,,,,,,,,,,,,,,,,,,,,,,,-0.00390625,-0.40625,0,0,0,,,,,,,SCREW,LB,m,m,./images/SCREWLB.png,,,,,,,,,,,,,,,,,,,,,m,1,0.9927,,,,,,,,0,0,0,24,1
,,,,,,,,,,,,,,,,,6107272874f58769a86a21b9,50,2022-02-12_13h20.34.088,lexical_decision_task_DD_L3,2021.2.3,Win32,60.39012018,,,,,,,,,,,1.1773,0,,,,,,,,,,,,,,,,,,,,,,,,-0.00390625,-0.40625,0,0,0,,,,,,,PLANET,HB,z,m,./images/PLANETHB.png,,,,,,,,,,,,,,,,,,,,,m,0,1.1773,,,,,,,,0,1,1,164,1
,,,,,,,,,,,,,,,,,6107272874f58769a86a21b9,50,2022-02-12_13h20.34.088,lexical_decision_task_DD_L3,2021.2.3,Win32,60.39012018,,,,,,,,,,,0.6557,0,,,,,,,,,,,,,,,,,,,,,,,,-0.00390625,-0.40625,0,0,0,,,,,,,CHALK,C,z,m,./images/CHALK.png,,,,,,,,,,,,,,,,,,,,,m,0,0.6557,,,,,,,,0,2,2,109,1
,,,,,,,,,,,,,,,,,6107272874f58769a86a21b9,50,2022-02-12_13h20.34.088,lexical_decision_task_DD_L3,2021.2.3,Win32,60.39012018,,,,,,,,,,,0.6797,1,,,,,,,,,,,,,,,,,,,,,,,,-0.00390625,-0.40625,0,0,0,,,,,,,FARMER,HB,m,m,./images/FARMERHB.png,,,,,,,,,,,,,,,,,,,,,m,1,0.6797,,,,,,,,0,3,3,65,1
,,,,,,,,,,,,,,,,,6107272874f58769a86a21b9,50,2022-02-12_13h20.34.088,lexical_decision_task_DD_L3,2021.2.3,Win32,60.39012018,,,,,,,,,,,0.8559,0,,,,,,,,,,,,,,,,,,,,,,,,-0.00390625,-0.40625,0,0,0,,,,,,,FLESH,LB,z,m,./images/FLESHLB.png,,,,,,,,,,,,,,,,,,,,,m,0,0.8559,,,,,,,,0,4,4,108,1
,,,,,,,,,,,,,,,,,6107272874f58769a86a21b9,50,2022-02-12_13h20.34.088,lexical_decision_task_DD_L3,2021.2.3,Win32,60.39012018,,,,,,,,,,,0.6599,0,,,,,,,,,,,,,,,,,,,,,,,,-0.00390625,-0.40625,0,0,0,,,,,,,GARDEN,C,z,m,./images/GARDEN.png,,,,,,,,,,,,,,,,,,,,,m,0,0.6599,,,,,,,,0,5,5,94,1
,,,,,,,,,,,,,,,,,6107272874f58769a86a21b9,50,2022-02-12_13h20.34.088,lexical_decision_task_DD_L3,2021.2.3,Win32,60.39012018,,,,,,,,,,,0.7551,1,,,,,,,,,,,,,,,,,,,,,,,,-0.00390625,-0.40625,0,0,0,,,,,,,SWING,C,m,m,./images/SWING.png,,,,,,,,,,,,,,,,,,,,,m,1,0.7551,,,,,,,,0,6,6,40,1
,,,,,,,,,,,,,,,,,6107272874f58769a86a21b9,50,2022-02-12_13h20.34.088,lexical_decision_task_DD_L3,2021.2.3,Win32,60.39012018,,,,,,,,,,,0.629,1,,,,,,,,,,,,,,,,,,,,,,,,-0.00390625,-0.40625,0,0,0,,,,,,,LADDER,HB,m,m,./images/LADDERHB.png,,,,,,,,,,,,,,,,,,,,,m,1,0.629,,,,,,,,0,7,7,38,1
,,,,,,,,,,,,,,,,,6107272874f58769a86a21b9,50,2022-02-12_13h20.34.088,lexical_decision_task_DD_L3,2021.2.3,Win32,60.39012018,,,,,,,,,,,1.1692,1,,,,,,,,,,,,,,,,,,,,,,,,-0.00390625,-0.40625,0,0,0,,,,,,,HEATER,HB,z,m,./images/HEATERHB.png,,,,,,,,,,,,,,,,,,,,,z,1,1.1692,,,,,,,,0,8,8,140,1
,,,,,,,,,,,,,,,,,6107272874f58769a86a21b9,50,2022-02-12_13h20.34.088,lexical_decision_task_DD_L3,2021.2.3,Win32,60.39012018,,,,,,,,,,,0.795599999,0,,,,,,,,,,,,,,,,,,,,,,,,-0.00390625,-0.40625,0,0,0,,,,,,,BASKET,HB,z,m,./images/BASKETHB.png,,,,,,,,,,,,,,,,,,,,,m,0,0.795599999,,,,,,,,0,9,9,128,1
,,,,,,,,,,,,,,,,,6107272874f58769a86a21b9,50,2022-02-12_13h20.34.088,lexical_decision_task_DD_L3,2021.2.3,Win32,60.39012018,,,,,,,,,,,1.091799999,0,,,,,,,,,,,,,,,,,,,,,,,,-0.00390625,-0.40625,0,0,0,,,,,,,CANYON,C,m,m,./images/CANYON.png,,,,,,,,,,,,,,,,,,,,,z,0,1.091799999,,,,,,,,0,10,10,34,1
,,,,,,,,,,,,,,,,,6107272874f58769a86a21b9,50,2022-02-12_13h20.34.088,lexical_decision_task_DD_L3,2021.2.3,Win32,60.39012018,,,,,,,,,,,1.1952,0,,,,,,,,,,,,,,,,,,,,,,,,-0.00390625,-0.40625,0,0,0,,,,,,,BEARD,HB,m,m,./images/BEARDHB.png,,,,,,,,,,,,,,,,,,,,,z,0,1.1952,,,,,,,,0,11,11,2,1
,,,,,,,,,,,,,,,,,6107272874f58769a86a21b9,50,2022-02-12_13h20.34.088,lexical_decision_task_DD_L3,2021.2.3,Win32,60.39012018,,,,,,,,,,,1.240299999,0,,,,,,,,,,,,,,,,,,,,,,,,-0.00390625,-0.40625,0,0,0,,,,,,,CEMENT,HB,m,m,./images/CEMENTHB.png,,,,,,,,,,,,,,,,,,,,,z,0,1.240299999,,,,,,,,0,12,12,74,1
,,,,,,,,,,,,,,,,,6107272874f58769a86a21b9,50,2022-02-12_13h20.34.088,lexical_decision_task_DD_L3,2021.2.3,Win32,60.39012018,,,,,,,,,,,0.9156,1,,,,,,,,,,,,,,,,,,,,,,,,-0.00390625,-0.40625,0,0,0,,,,,,,CHAIN,LB,z,m,./images/CHAINLB.png,,,,,,,,,,,,,,,,,,,,,z,1,0.9156,,,,,,,,0,13,13,126,1
,,,,,,,,,,,,,,,,,6107272874f58769a86a21b9,50,2022-02-12_13h20.34.088,lexical_decision_task_DD_L3,2021.2.3,Win32,60.39012018,,,,,,,,,,,0.7868,1,,,,,,,,,,,,,,,,,,,,,,,,-0.00390625,-0.40625,0,0,0,,,,,,,LIZARD,HB,m,m,./images/LIZARDHB.png,,,,,,,,,,,,,,,,,,,,,m,1,0.7868,,,,,,,,0,14,14,44,1
,,,,,,,,,,,,,,,,,6107272874f58769a86a21b9,50,2022-02-12_13h20.34.088,lexical_decision_task_DD_L3,2021.2.3,Win32,60.39012018,,,,,,,,,,,1.115099999,1,,,,,,,,,,,,,,,,,,,,,,,,-0.00390625,-0.40625,0,0,0,,,,,,,FENCE,HB,z,m,./images/FENCEHB.png,,,,,,,,,,,,,,,,,,,,,z,1,1.115099999,,,,,,,,0,15,15,98,1
,,,,,,,,,,,,,,,,,6107272874f58769a86a21b9,50,2022-02-12_13h20.34.088,lexical_decision_task_DD_L3,2021.2.3,Win32,60.39012018,,,,,,,,,,,0.8095,1,,,,,,,,,,,,,,,,,,,,,,,,-0.00390625,-0.40625,0,0,0,,,,,,,BARREL,HB,m,m,./images/BARRELHB.png,,,,,,,,,,,,,,,,,,,,,m,1,0.8095,,,,,,,,0,16,16,32,1
,,,,,,,,,,,,,,,,,6107272874f58769a86a21b9,50,2022-02-12_13h20.34.088,lexical_decision_task_DD_L3,2021.2.3,Win32,60.39012018,,,,,,,,,,,1.310700001,1,,,,,,,,,,,,,,,,,,,,,,,,-0.00390625,-0.40625,0,0,0,,,,,,,JELLY,C,m,m,./images/JELLY.png,,,,,,,,,,,,,,,,,,,,,m,1,1.310700001,,,,,,,,0,17,17,64,1
,,,,,,,,,,,,,,,,,6107272874f58769a86a21b9,50,2022-02-12_13h20.34.088,lexical_decision_task_DD_L3,2021.2.3,Win32,60.39012018,,,,,,,,,,,0.9007,0,,,,,,,,,,,,,,,,,,,,,,,,-0.00390625,-0.40625,0,0,0,,,,,,,BOXER,C,z,m,./images/BOXER.png,,,,,,,,,,,,,,,,,,,,,m,0,0.9007,,,,,,,,0,18,18,88,1
,,,,,,,,,,,,,,,,,6107272874f58769a86a21b9,50,2022-02-12_13h20.34.088,lexical_decision_task_DD_L3,2021.2.3,Win32,60.39012018,,,,,,,,,,,0.787900001,1,,,,,,,,,,,,,,,,,,,,,,,,-0.00390625,-0.40625,0,0,0,,,,,,,JAGUAR,LB,m,m,./images/JAGUARLB.png,,,,,,,,,,,,,,,,,,,,,m,1,0.787900001,,,,,,,,0,19,19,18,1
,,,,,,,,,,,,,,,,,6107272874f58769a86a21b9,50,2022-02-12_13h20.34.088,lexical_decision_task_DD_L3,2021.2.3,Win32,60.39012018,,,,,,,,,,,1.0843,1,,,,,,,,,,,,,,,,,,,,,,,,-0.00390625,-0.40625,0,0,0,,,,,,,BANANA,C,z,m,./images/BANANA.png,,,,,,,,,,,,,,,,,,,,,z,1,1.0843,,,,,,,,0,20,20,154,1
,,,,,,,,,,,,,,,,,6107272874f58769a86a21b9,50,2022-02-12_13h20.34.088,lexical_decision_task_DD_L3,2021.2.3,Win32,60.39012018,,,,,,,,,,,0.9749,1,,,,,,,,,,,,,,,,,,,,,,,,-0.00390625,-0.40625,0,0,0,,,,,,,BRUSH,HB,z,m,./images/BRUSHHB.png,,,,,,,,,,,,,,,,,,,,,z,1,0.9749,,,,,,,,0,21,21,143,1
,,,,,,,,,,,,,,,,,6107272874f58769a86a21b9,50,2022-02-12_13h20.34.088,lexical_decision_task_DD_L3,2021.2.3,Win32,60.39012018,,,,,,,,,,,0.8553,1,,,,,,,,,,,,,,,,,,,,,,,,-0.00390625,-0.40625,0,0,0,,,,,,,BLOKE,LB,z,m,./images/BLOKELB.png,,,,,,,,,,,,,,,,,,,,,z,1,0.8553,,,,,,,,0,22,22,96,1
,,,,,,,,,,,,,,,,,6107272874f58769a86a21b9,50,2022-02-12_13h20.34.088,lexical_decision_task_DD_L3,2021.2.3,Win32,60.39012018,,,,,,,,,,,1.3495,0,,,,,,,,,,,,,,,,,,,,,,,,-0.00390625,-0.40625,0,0,0,,,,,,,STOOL,C,z,m,./images/STOOL.png,,,,,,,,,,,,,,,,,,,,,m,0,1.3495,,,,,,,,0,23,23,127,1
,,,,,,,,,,,,,,,,,6107272874f58769a86a21b9,50,2022-02-12_13h20.34.088,lexical_decision_task_DD_L3,2021.2.3,Win32,60.39012018,,,,,,,,,,,0.6247,1,,,,,,,,,,,,,,,,,,,,,,,,-0.00390625,-0.40625,0,0,0,,,,,,,PEACH,HB,m,m,./images/PEACHHB.png,,,,,,,,,,,,,,,,,,,,,m,1,0.6247,,,,,,,,0,24,24,35,1
,,,,,,,,,,,,,,,,,6107272874f58769a86a21b9,50,2022-02-12_13h20.34.088,lexical_decision_task_DD_L3,2021.2.3,Win32,60.39012018,,,,,,,,,,,1.016099999,1,,,,,,,,,,,,,,,,,,,,,,,,-0.00390625,-0.40625,0,0,0,,,,,,,SHIELD,LB,z,m,./images/SHIELDLB.png,,,,,,,,,,,,,,,,,,,,,z,1,1.016099999,,,,,,,,0,25,25,132,1
,,,,,,,,,,,,,,,,,6107272874f58769a86a21b9,50,2022-02-12_13h20.34.088,lexical_decision_task_DD_L3,2021.2.3,Win32,60.39012018,,,,,,,,,,,0.866,1,,,,,,,,,,,,,,,,,,,,,,,,-0.00390625,-0.40625,0,0,0,,,,,,,JUMPER,HB,z,m,./images/JUMPERHB.png,,,,,,,,,,,,,,,,,,,,,z,1,0.866,,,,,,,,0,26,26,158,1
,,,,,,,,,,,,,,,,,6107272874f58769a86a21b9,50,2022-02-12_13h20.34.088,lexical_decision_task_DD_L3,2021.2.3,Win32,60.39012018,,,,,,,,,,,0.938099999,0,,,,,,,,,,,,,,,,,,,,,,,,-0.00390625,-0.40625,0,0,0,,,,,,,PURSE,HB,m,m,./images/PURSEHB.png,,,,,,,,,,,,,,,,,,,,,z,0,0.938099999,,,,,,,,0,27,27,62,1
,,,,,,,,,,,,,,,,,6107272874f58769a86a21b9,50,2022-02-12_13h20.34.088,lexical_decision_task_DD_L3,2021.2.3,Win32,60.39012018,,,,,,,,,,,0.8739,1,,,,,,,,,,,,,,,,,,,,,,,,-0.00390625,-0.40625,0,0,0,,,,,,,STOVE,HB,z,m,./images/STOVEHB.png,,,,,,,,,,,,,,,,,,,,,z,1,0.8739,,,,,,,,0,28,28,86,1
,,,,,,,,,,,,,,,,,6107272874f58769a86a21b9,50,2022-02-12_13h20.34.088,lexical_decision_task_DD_L3,2021.2.3,Win32,60.39012018,,,,,,,,,,,1.1242,1,,,,,,,,,,,,,,,,,,,,,,,,-0.00390625,-0.40625,0,0,0,,,,,,,WALNUT,LB,z,m,./images/WALNUTLB.png,,,,,,,,,,,,,,,,,,,,,z,1,1.1242,,,,,,,,0,29,29,84,1
,,,,,,,,,,,,,,,,,6107272874f58769a86a21b9,50,2022-02-12_13h20.34.088,lexical_decision_task_DD_L3,2021.2.3,Win32,60.39012018,,,,,,,,,,,0.932099999,1,,,,,,,,,,,,,,,,,,,,,,,,-0.00390625,-0.40625,0,0,0,,,,,,,CRUMB,HB,m,m,./images/CRUMBHB.png,,,,,,,,,,,,,,,,,,,,,m,1,0.932099999,,,,,,,,0,30,30,29,1
,,,,,,,,,,,,,,,,,6107272874f58769a86a21b9,50,2022-02-12_13h20.34.088,lexical_decision_task_DD_L3,2021.2.3,Win32,60.39012018,,,,,,,,,,,1.332900001,1,,,,,,,,,,,,,,,,,,,,,,,,-0.00390625,-0.40625,0,0,0,,,,,,,JUNGLE,HB,m,m,./images/JUNGLEHB.png,,,,,,,,,,,,,,,,,,,,,m,1,1.332900001,,,,,,,,0,31,31,83,1
,,,,,,,,,,,,,,,,,6107272874f58769a86a21b9,50,2022-02-12_13h20.34.088,lexical_decision_task_DD_L3,2021.2.3,Win32,60.39012018,,,,,,,,,,,0.9118,0,,,,,,,,,,,,,,,,,,,,,,,,-0.00390625,-0.40625,0,0,0,,,,,,,SQUARE,LB,m,m,./images/SQUARELB.png,,,,,,,,,,,,,,,,,,,,,z,0,0.9118,,,,,,,,0,32,32,6,1
,,,,,,,,,,,,,,,,,6107272874f58769a86a21b9,50,2022-02-12_13h20.34.088,lexical_decision_task_DD_L3,2021.2.3,Win32,60.39012018,,,,,,,,,,,0.7776,0,,,,,,,,,,,,,,,,,,,,,,,,-0.00390625,-0.40625,0,0,0,,,,,,,LAGOON,HB,z,m,./images/LAGOONHB.png,,,,,,,,,,,,,,,,,,,,,m,0,0.7776,,,,,,,,0,33,33,131,1
,,,,,,,,,,,,,,,,,6107272874f58769a86a21b9,50,2022-02-12_13h20.34.088,lexical_decision_task_DD_L3,2021.2.3,Win32,60.39012018,,,,,,,,,,,1.0733,1,,,,,,,,,,,,,,,,,,,,,,,,-0.00390625,-0.40625,0,0,0,,,,,,,PEBBLE,C,z,m,./images/PEBBLE.png,,,,,,,,,,,,,,,,,,,,,z,1,1.0733,,,,,,,,0,34,34,166,1
,,,,,,,,,,,,,,,,,6107272874f58769a86a21b9,50,2022-02-12_13h20.34.088,lexical_decision_task_DD_L3,2021.2.3,Win32,60.39012018,,,,,,,,,,,1.1189,1,,,,,,,,,,,,,,,,,,,,,,,,-0.00390625,-0.40625,0,0,0,,,,,,,KIDNEY,LB,m,m,./images/KIDNEYLB.png,,,,,,,,,,,,,,,,,,,,,m,1,1.1189,,,,,,,,0,35,35,21,1
,,,,,,,,,,,,,,,,,6107272874f58769a86a21b9,50,2022-02-12_13h20.34.088,lexical_decision_task_DD_L3,2021.2.3,Win32,60.39012018,,,,,,,,,,,0.810400001,1,,,,,,,,,,,,,,,,,,,,,,,,-0.00390625,-0.40625,0,0,0,,,,,,,PEARL,C,m,m,./images/PEARL.png,,,,,,,,,,,,,,,,,,,,,m,1,0.810400001,,,,,,,,0,36,36,46,1
,,,,,,,,,,,,,,,,,6107272874f58769a86a21b9,50,2022-02-12_13h20.34.088,lexical_decision_task_DD_L3,2021.2.3,Win32,60.39012018,,,,,,,,,,,0.6423,1,,,,,,,,,,,,,,,,,,,,,,,,-0.00390625,-0.40625,0,0,0,,,,,,,MAGGOT,LB,m,m,./images/MAGGOTLB.png,,,,,,,,,,,,,,,,,,,,,m,1,0.6423,,,,,,,,0,37,37,33,1
,,,,,,,,,,,,,,,,,6107272874f58769a86a21b9,50,2022-02-12_13h20.34.088,lexical_decision_task_DD_L3,2021.2.3,Win32,60.39012018,,,,,,,,,,,0.9612,1,,,,,,,,,,,,,,,,,,,,,,,,-0.00390625,-0.40625,0,0,0,,,,,,,COUCH,HB,m,m,./images/COUCHHB.png,,,,,,,,,,,,,,,,,,,,,m,1,0.9612,,,,,,,,0,38,38,77,1
,,,,,,,,,,,,,,,,,6107272874f58769a86a21b9,50,2022-02-12_13h20.34.088,lexical_decision_task_DD_L3,2021.2.3,Win32,60.39012018,,,,,,,,,,,0.7954,1,,,,,,,,,,,,,,,,,,,,,,,,-0.00390625,-0.40625,0,0,0,,,,,,,BELLY,C,m,m,./images/BELLY.png,,,,,,,,,,,,,,,,,,,,,m,1,0.7954,,,,,,,,0,39,39,10,1
,,,,,,,,,,,,,,,,,6107272874f58769a86a21b9,50,2022-02-12_13h20.34.088,lexical_decision_task_DD_L3,2021.2.3,Win32,60.39012018,,,,,,,,,,,0.8572,1,,,,,,,,,,,,,,,,,,,,,,,,-0.00390625,-0.40625,0,0,0,,,,,,,INFANT,C,m,m,./images/INFANT.png,,,,,,,,,,,,,,,,,,,,,m,1,0.8572,,,,,,,,0,40,40,76,1
,,,,,,,,,,,,,,,,,6107272874f58769a86a21b9,50,2022-02-12_13h20.34.088,lexical_decision_task_DD_L3,2021.2.3,Win32,60.39012018,,,,,,,,,,,0.856,1,,,,,,,,,,,,,,,,,,,,,,,,-0.00390625,-0.40625,0,0,0,space,,,,,,SPORT,LB,m,m,./images/SPORTLB.png,2.1768,,,,,,,,,,,,,,,,,,,,m,1,0.856,,,,,,,,0,41,41,48,1
,,,,,,,,,,,,,,,,,6107272874f58769a86a21b9,50,2022-02-12_13h20.34.088,lexical_decision_task_DD_L3,2021.2.3,Win32,60.39012018,,,,,,,,,,,0.8818,1,,,,,,,,,,,,,,,,,,,,,,,,-0.00390625,-0.40625,0,0,0,,,,,,,PAINT,C,m,m,./images/PAINT.png,,,,,,,,,,,,,,,,,,,,,m,1,0.8818,,,,,,,,0,42,42,7,1
,,,,,,,,,,,,,,,,,6107272874f58769a86a21b9,50,2022-02-12_13h20.34.088,lexical_decision_task_DD_L3,2021.2.3,Win32,60.39012018,,,,,,,,,,,1.036700001,1,,,,,,,,,,,,,,,,,,,,,,,,-0.00390625,-0.40625,0,0,0,,,,,,,QUILL,C,m,m,./images/QUILL.png,,,,,,,,,,,,,,,,,,,,,m,1,1.036700001,,,,,,,,0,43,43,31,1
,,,,,,,,,,,,,,,,,6107272874f58769a86a21b9,50,2022-02-12_13h20.34.088,lexical_decision_task_DD_L3,2021.2.3,Win32,60.39012018,,,,,,,,,,,0.930599999,1,,,,,,,,,,,,,,,,,,,,,,,,-0.00390625,-0.40625,0,0,0,,,,,,,MEDAL,HB,z,m,./images/MEDALHB.png,,,,,,,,,,,,,,,,,,,,,z,1,0.930599999,,,,,,,,0,44,44,95,1
,,,,,,,,,,,,,,,,,6107272874f58769a86a21b9,50,2022-02-12_13h20.34.088,lexical_decision_task_DD_L3,2021.2.3,Win32,60.39012018,,,,,,,,,,,1.1454,1,,,,,,,,,,,,,,,,,,,,,,,,-0.00390625,-0.40625,0,0,0,,,,,,,DANCER,LB,z,m,./images/DANCERLB.png,,,,,,,,,,,,,,,,,,,,,z,1,1.1454,,,,,,,,0,45,45,105,1
,,,,,,,,,,,,,,,,,6107272874f58769a86a21b9,50,2022-02-12_13h20.34.088,lexical_decision_task_DD_L3,2021.2.3,Win32,60.39012018,,,,,,,,,,,1.0699,1,,,,,,,,,,,,,,,,,,,,,,,,-0.00390625,-0.40625,0,0,0,,,,,,,TWINS,LB,m,m,./images/TWINSLB.png,,,,,,,,,,,,,,,,,,,,,m,1,1.0699,,,,,,,,0,46,46,60,1
,,,,,,,,,,,,,,,,,6107272874f58769a86a21b9,50,2022-02-12_13h20.34.088,lexical_decision_task_DD_L3,2021.2.3,Win32,60.39012018,,,,,,,,,,,0.8417,1,,,,,,,,,,,,,,,,,,,,,,,,-0.00390625,-0.40625,0,0,0,,,,,,,CRUST,C,m,m,./images/CRUST.png,,,,,,,,,,,,,,,,,,,,,m,1,0.8417,,,,,,,,0,47,47,79,1
,,,,,,,,,,,,,,,,,6107272874f58769a86a21b9,50,2022-02-12_13h20.34.088,lexical_decision_task_DD_L3,2021.2.3,Win32,60.39012018,,,,,,,,,,,0.949,0,,,,,,,,,,,,,,,,,,,,,,,,-0.00390625,-0.40625,0,0,0,,,,,,,BUBBLE,HB,z,m,./images/BUBBLEHB.png,,,,,,,,,,,,,,,,,,,,,m,0,0.949,,,,,,,,0,48,48,155,1
,,,,,,,,,,,,,,,,,6107272874f58769a86a21b9,50,2022-02-12_13h20.34.088,lexical_decision_task_DD_L3,2021.2.3,Win32,60.39012018,,,,,,,,,,,0.775,0,,,,,,,,,,,,,,,,,,,,,,,,-0.00390625,-0.40625,0,0,0,,,,,,,CANDY,LB,z,m,./images/CANDYLB.png,,,,,,,,,,,,,,,,,,,,,m,0,0.775,,,,,,,,0,49,49,123,1
,,,,,,,,,,,,,,,,,6107272874f58769a86a21b9,50,2022-02-12_13h20.34.088,lexical_decision_task_DD_L3,2021.2.3,Win32,60.39012018,,,,,,,,,,,0.7504,1,,,,,,,,,,,,,,,,,,,,,,,,-0.00390625,-0.40625,0,0,0,,,,,,,RHINO,LB,m,m,./images/RHINOLB.png,,,,,,,,,,,,,,,,,,,,,m,1,0.7504,,,,,,,,0,50,50,9,1
,,,,,,,,,,,,,,,,,6107272874f58769a86a21b9,50,2022-02-12_13h20.34.088,lexical_decision_task_DD_L3,2021.2.3,Win32,60.39012018,,,,,,,,,,,0.9607,1,,,,,,,,,,,,,,,,,,,,,,,,-0.00390625,-0.40625,0,0,0,,,,,,,WEASEL,HB,m,m,./images/WEASELHB.png,,,,,,,,,,,,,,,,,,,,,m,1,0.9607,,,,,,,,0,51,51,80,1
,,,,,,,,,,,,,,,,,6107272874f58769a86a21b9,50,2022-02-12_13h20.34.088,lexical_decision_task_DD_L3,2021.2.3,Win32,60.39012018,,,,,,,,,,,0.923700001,0,,,,,,,,,,,,,,,,,,,,,,,,-0.00390625,-0.40625,0,0,0,,,,,,,WAGON,C,z,m,./images/WAGON.png,,,,,,,,,,,,,,,,,,,,,m,0,0.923700001,,,,,,,,0,52,52,91,1
,,,,,,,,,,,,,,,,,6107272874f58769a86a21b9,50,2022-02-12_13h20.34.088,lexical_decision_task_DD_L3,2021.2.3,Win32,60.39012018,,,,,,,,,,,1.1519,1,,,,,,,,,,,,,,,,,,,,,,,,-0.00390625,-0.40625,0,0,0,,,,,,,CLOTH,HB,z,m,./images/CLOTHHB.png,,,,,,,,,,,,,,,,,,,,,z,1,1.1519,,,,,,,,0,53,53,107,1
,,,,,,,,,,,,,,,,,6107272874f58769a86a21b9,50,2022-02-12_13h20.34.088,lexical_decision_task_DD_L3,2021.2.3,Win32,60.39012018,,,,,,,,,,,0.812,0,,,,,,,,,,,,,,,,,,,,,,,,-0.00390625,-0.40625,0,0,0,,,,,,,BAKER,LB,z,m,./images/BAKERLB.png,,,,,,,,,,,,,,,,,,,,,m,0,0.812,,,,,,,,0,54,54,147,1
,,,,,,,,,,,,,,,,,6107272874f58769a86a21b9,50,2022-02-12_13h20.34.088,lexical_decision_task_DD_L3,2021.2.3,Win32,60.39012018,,,,,,,,,,,0.9023,0,,,,,,,,,,,,,,,,,,,,,,,,-0.00390625,-0.40625,0,0,0,,,,,,,SKIING,HB,m,m,./images/SKIINGHB.png,,,,,,,,,,,,,,,,,,,,,z,0,0.9023,,,,,,,,0,55,55,17,1
,,,,,,,,,,,,,,,,,6107272874f58769a86a21b9,50,2022-02-12_13h20.34.088,lexical_decision_task_DD_L3,2021.2.3,Win32,60.39012018,,,,,,,,,,,0.9899,1,,,,,,,,,,,,,,,,,,,,,,,,-0.00390625,-0.40625,0,0,0,,,,,,,PENCE,C,m,m,./images/PENCE.png,,,,,,,,,,,,,,,,,,,,,m,1,0.9899,,,,,,,,0,56,56,16,1
,,,,,,,,,,,,,,,,,6107272874f58769a86a21b9,50,2022-02-12_13h20.34.088,lexical_decision_task_DD_L3,2021.2.3,Win32,60.39012018,,,,,,,,,,,0.874799999,1,,,,,,,,,,,,,,,,,,,,,,,,-0.00390625,-0.40625,0,0,0,,,,,,,DOUGH,C,m,m,./images/DOUGH.png,,,,,,,,,,,,,,,,,,,,,m,1,0.874799999,,,,,,,,0,57,57,19,1
,,,,,,,,,,,,,,,,,6107272874f58769a86a21b9,50,2022-02-12_13h20.34.088,lexical_decision_task_DD_L3,2021.2.3,Win32,60.39012018,,,,,,,,,,,1.0851,1,,,,,,,,,,,,,,,,,,,,,,,,-0.00390625,-0.40625,0,0,0,,,,,,,GLOVE,C,z,m,./images/GLOVE.png,,,,,,,,,,,,,,,,,,,,,z,1,1.0851,,,,,,,,0,58,58,157,1
,,,,,,,,,,,,,,,,,6107272874f58769a86a21b9,50,2022-02-12_13h20.34.088,lexical_decision_task_DD_L3,2021.2.3,Win32,60.39012018,,,,,,,,,,,0.783799999,1,,,,,,,,,,,,,,,,,,,,,,,,-0.00390625,-0.40625,0,0,0,,,,,,,TULIP,HB,m,m,./images/TULIPHB.png,,,,,,,,,,,,,,,,,,,,,m,1,0.783799999,,,,,,,,0,59,59,8,1
,,,,,,,,,,,,,,,,,6107272874f58769a86a21b9,50,2022-02-12_13h20.34.088,lexical_decision_task_DD_L3,2021.2.3,Win32,60.39012018,,,,,,,,,,,1.013599999,1,,,,,,,,,,,,,,,,,,,,,,,,-0.00390625,-0.40625,0,0,0,,,,,,,RAZOR,C,z,m,./images/RAZOR.png,,,,,,,,,,,,,,,,,,,,,z,1,1.013599999,,,,,,,,0,60,60,118,1
,,,,,,,,,,,,,,,,,6107272874f58769a86a21b9,50,2022-02-12_13h20.34.088,lexical_decision_task_DD_L3,2021.2.3,Win32,60.39012018,,,,,,,,,,,1.0485,1,,,,,,,,,,,,,,,,,,,,,,,,-0.00390625,-0.40625,0,0,0,,,,,,,STORM,LB,m,m,./images/STORMLB.png,,,,,,,,,,,,,,,,,,,,,m,1,1.0485,,,,,,,,0,61,61,30,1
,,,,,,,,,,,,,,,,,6107272874f58769a86a21b9,50,2022-02-12_13h20.34.088,lexical_decision_task_DD_L3,2021.2.3,Win32,60.39012018,,,,,,,,,,,0.7326,1,,,,,,,,,,,,,,,,,,,,,,,,-0.00390625,-0.40625,0,0,0,,,,,,,KITTEN,LB,m,m,./images/KITTENLB.png,,,,,,,,,,,,,,,,,,,,,m,1,0.7326,,,,,,,,0,62,62,45,1
,,,,,,,,,,,,,,,,,6107272874f58769a86a21b9,50,2022-02-12_13h20.34.088,lexical_decision_task_DD_L3,2021.2.3,Win32,60.39012018,,,,,,,,,,,0.984599999,0,,,,,,,,,,,,,,,,,,,,,,,,-0.00390625,-0.40625,0,0,0,,,,,,,BERRY,HB,m,m,./images/BERRYHB.png,,,,,,,,,,,,,,,,,,,,,z,0,0.984599999,,,,,,,,0,63,63,47,1
,,,,,,,,,,,,,,,,,6107272874f58769a86a21b9,50,2022-02-12_13h20.34.088,lexical_decision_task_DD_L3,2021.2.3,Win32,60.39012018,,,,,,,,,,,0.9104,0,,,,,,,,,,,,,,,,,,,,,,,,-0.00390625,-0.40625,0,0,0,,,,,,,BIRTH,C,m,m,./images/BIRTH.png,,,,,,,,,,,,,,,,,,,,,z,0,0.9104,,,,,,,,0,64,64,37,1
,,,,,,,,,,,,,,,,,6107272874f58769a86a21b9,50,2022-02-12_13h20.34.088,lexical_decision_task_DD_L3,2021.2.3,Win32,60.39012018,,,,,,,,,,,1.141099999,0,,,,,,,,,,,,,,,,,,,,,,,,-0.00390625,-0.40625,0,0,0,,,,,,,CARPET,HB,m,m,./images/CARPETHB.png,,,,,,,,,,,,,,,,,,,,,z,0,1.141099999,,,,,,,,0,65,65,53,1
,,,,,,,,,,,,,,,,,6107272874f58769a86a21b9,50,2022-02-12_13h20.34.088,lexical_decision_task_DD_L3,2021.2.3,Win32,60.39012018,,,,,,,,,,,0.8132,1,,,,,,,,,,,,,,,,,,,,,,,,-0.00390625,-0.40625,0,0,0,,,,,,,WALRUS,HB,m,m,./images/WALRUSHB.png,,,,,,,,,,,,,,,,,,,,,m,1,0.8132,,,,,,,,0,66,66,23,1
,,,,,,,,,,,,,,,,,6107272874f58769a86a21b9,50,2022-02-12_13h20.34.088,lexical_decision_task_DD_L3,2021.2.3,Win32,60.39012018,,,,,,,,,,,1.1157,0,,,,,,,,,,,,,,,,,,,,,,,,-0.00390625,-0.40625,0,0,0,,,,,,,THROAT,LB,m,m,./images/THROATLB.png,,,,,,,,,,,,,,,,,,,,,z,0,1.1157,,,,,,,,0,67,67,36,1
,,,,,,,,,,,,,,,,,6107272874f58769a86a21b9,50,2022-02-12_13h20.34.088,lexical_decision_task_DD_L3,2021.2.3,Win32,60.39012018,,,,,,,,,,,0.7826,1,,,,,,,,,,,,,,,,,,,,,,,,-0.00390625,-0.40625,0,0,0,,,,,,,PASTA,HB,m,m,./images/PASTAHB.png,,,,,,,,,,,,,,,,,,,,,m,1,0.7826,,,,,,,,0,68,68,5,1
,,,,,,,,,,,,,,,,,6107272874f58769a86a21b9,50,2022-02-12_13h20.34.088,lexical_decision_task_DD_L3,2021.2.3,Win32,60.39012018,,,,,,,,,,,1.1116,1,,,,,,,,,,,,,,,,,,,,,,,,-0.00390625,-0.40625,0,0,0,,,,,,,DIVER,LB,z,m,./images/DIVERLB.png,,,,,,,,,,,,,,,,,,,,,z,1,1.1116,,,,,,,,0,69,69,93,1
,,,,,,,,,,,,,,,,,6107272874f58769a86a21b9,50,2022-02-12_13h20.34.088,lexical_decision_task_DD_L3,2021.2.3,Win32,60.39012018,,,,,,,,,,,1.1001,1,,,,,,,,,,,,,,,,,,,,,,,,-0.00390625,-0.40625,0,0,0,,,,,,,ENGINE,HB,z,m,./images/ENGINEHB.png,,,,,,,,,,,,,,,,,,,,,z,1,1.1001,,,,,,,,0,70,70,122,1
,,,,,,,,,,,,,,,,,6107272874f58769a86a21b9,50,2022-02-12_13h20.34.088,lexical_decision_task_DD_L3,2021.2.3,Win32,60.39012018,,,,,,,,,,,1.0952,0,,,,,,,,,,,,,,,,,,,,,,,,-0.00390625,-0.40625,0,0,0,,,,,,,PACKET,HB,m,m,./images/PACKETHB.png,,,,,,,,,,,,,,,,,,,,,z,0,1.0952,,,,,,,,0,71,71,56,1
,,,,,,,,,,,,,,,,,6107272874f58769a86a21b9,50,2022-02-12_13h20.34.088,lexical_decision_task_DD_L3,2021.2.3,Win32,60.39012018,,,,,,,,,,,1.1568,0,,,,,,,,,,,,,,,,,,,,,,,,-0.00390625,-0.40625,0,0,0,,,,,,,MOTOR,C,m,m,./images/MOTOR.png,,,,,,,,,,,,,,,,,,,,,z,0,1.1568,,,,,,,,0,72,72,13,1
,,,,,,,,,,,,,,,,,6107272874f58769a86a21b9,50,2022-02-12_13h20.34.088,lexical_decision_task_DD_L3,2021.2.3,Win32,60.39012018,,,,,,,,,,,1.225799999,1,,,,,,,,,,,,,,,,,,,,,,,,-0.00390625,-0.40625,0,0,0,,,,,,,NOOSE,LB,m,m,./images/NOOSELB.png,,,,,,,,,,,,,,,,,,,,,m,1,1.225799999,,,,,,,,0,73,73,72,1
,,,,,,,,,,,,,,,,,6107272874f58769a86a21b9,50,2022-02-12_13h20.34.088,lexical_decision_task_DD_L3,2021.2.3,Win32,60.39012018,,,,,,,,,,,0.998,1,,,,,,,,,,,,,,,,,,,,,,,,-0.00390625,-0.40625,0,0,0,,,,,,,CRATER,LB,z,m,./images/CRATERLB.png,,,,,,,,,,,,,,,,,,,,,z,1,0.998,,,,,,,,0,74,74,87,1
,,,,,,,,,,,,,,,,,6107272874f58769a86a21b9,50,2022-02-12_13h20.34.088,lexical_decision_task_DD_L3,2021.2.3,Win32,60.39012018,,,,,,,,,,,0.720799999,1,,,,,,,,,,,,,,,,,,,,,,,,-0.00390625,-0.40625,0,0,0,,,,,,,MALLET,HB,m,m,./images/MALLETHB.png,,,,,,,,,,,,,,,,,,,,,m,1,0.720799999,,,,,,,,0,75,75,50,1
,,,,,,,,,,,,,,,,,6107272874f58769a86a21b9,50,2022-02-12_13h20.34.088,lexical_decision_task_DD_L3,2021.2.3,Win32,60.39012018,,,,,,,,,,,1.003200001,1,,,,,,,,,,,,,,,,,,,,,,,,-0.00390625,-0.40625,0,0,0,,,,,,,TORCH,HB,m,m,./images/TORCHHB.png,,,,,,,,,,,,,,,,,,,,,m,1,1.003200001,,,,,,,,0,76,76,68,1
,,,,,,,,,,,,,,,,,6107272874f58769a86a21b9,50,2022-02-12_13h20.34.088,lexical_decision_task_DD_L3,2021.2.3,Win32,60.39012018,,,,,,,,,,,1.0322,1,,,,,,,,,,,,,,,,,,,,,,,,-0.00390625,-0.40625,0,0,0,,,,,,,PISTOL,HB,z,m,./images/PISTOLHB.png,,,,,,,,,,,,,,,,,,,,,z,1,1.0322,,,,,,,,0,77,77,113,1
,,,,,,,,,,,,,,,,,6107272874f58769a86a21b9,50,2022-02-12_13h20.34.088,lexical_decision_task_DD_L3,2021.2.3,Win32,60.39012018,,,,,,,,,,,0.842299999,1,,,,,,,,,,,,,,,,,,,,,,,,-0.00390625,-0.40625,0,0,0,,,,,,,SPINE,HB,z,m,./images/SPINEHB.png,,,,,,,,,,,,,,,,,,,,,z,1,0.842299999,,,,,,,,0,78,78,149,1
,,,,,,,,,,,,,,,,,6107272874f58769a86a21b9,50,2022-02-12_13h20.34.088,lexical_decision_task_DD_L3,2021.2.3,Win32,60.39012018,,,,,,,,,,,0.7252,0,,,,,,,,,,,,,,,,,,,,,,,,-0.00390625,-0.40625,0,0,0,,,,,,,MONKEY,LB,z,m,./images/MONKEYLB.png,,,,,,,,,,,,,,,,,,,,,m,0,0.7252,,,,,,,,0,79,79,129,1
,,,,,,,,,,,,,,,,,6107272874f58769a86a21b9,50,2022-02-12_13h20.34.088,lexical_decision_task_DD_L3,2021.2.3,Win32,60.39012018,,,,,,,,,,,0.8049,1,,,,,,,,,,,,,,,,,,,,,,,,-0.00390625,-0.40625,0,0,0,,,,,,,VALLEY,HB,z,m,./images/VALLEYHB.png,,,,,,,,,,,,,,,,,,,,,z,1,0.8049,,,,,,,,0,80,80,152,1
,,,,,,,,,,,,,,,,,6107272874f58769a86a21b9,50,2022-02-12_13h20.34.088,lexical_decision_task_DD_L3,2021.2.3,Win32,60.39012018,,,,,,,,,,,0.6759,1,,,,,,,,,,,,,,,,,,,,,,,,-0.00390625,-0.40625,0,0,0,,,,,,,BABOON,C,m,m,./images/BABOON.png,,,,,,,,,,,,,,,,,,,,,m,1,0.6759,,,,,,,,0,81,81,58,1
,,,,,,,,,,,,,,,,,6107272874f58769a86a21b9,50,2022-02-12_13h20.34.088,lexical_decision_task_DD_L3,2021.2.3,Win32,60.39012018,,,,,,,,,,,1.092599999,1,,,,,,,,,,,,,,,,,,,,,,,,-0.00390625,-0.40625,0,0,0,,,,,,,BUTTER,LB,z,m,./images/BUTTERLB.png,,,,,,,,,,,,,,,,,,,,,z,1,1.092599999,,,,,,,,0,82,82,111,1
,,,,,,,,,,,,,,,,,6107272874f58769a86a21b9,50,2022-02-12_13h20.34.088,lexical_decision_task_DD_L3,2021.2.3,Win32,60.39012018,,,,,,,,,,,0.8055,1,,,,,,,,,,,,,,,,,,,,,,,,-0.00390625,-0.40625,0,0,0,space,,,,,,HOCKEY,HB,z,m,./images/HOCKEYHB.png,1.3087,,,,,,,,,,,,,,,,,,,,z,1,0.8055,,,,,,,,0,83,83,116,1
,,,,,,,,,,,,,,,,,6107272874f58769a86a21b9,50,2022-02-12_13h20.34.088,lexical_decision_task_DD_L3,2021.2.3,Win32,60.39012018,,,,,,,,,,,0.8781,1,,,,,,,,,,,,,,,,,,,,,,,,-0.00390625,-0.40625,0,0,0,,,,,,,CLOUD,HB,z,m,./images/CLOUDHB.png,,,,,,,,,,,,,,,,,,,,,z,1,0.8781,,,,,,,,0,84,84,110,1
,,,,,,,,,,,,,,,,,6107272874f58769a86a21b9,50,2022-02-12_13h20.34.088,lexical_decision_task_DD_L3,2021.2.3,Win32,60.39012018,,,,,,,,,,,1.155299999,1,,,,,,,,,,,,,,,,,,,,,,,,-0.00390625,-0.40625,0,0,0,,,,,,,DESERT,C,z,m,./images/DESERT.png,,,,,,,,,,,,,,,,,,,,,z,1,1.155299999,,,,,,,,0,85,85,136,1
,,,,,,,,,,,,,,,,,6107272874f58769a86a21b9,50,2022-02-12_13h20.34.088,lexical_decision_task_DD_L3,2021.2.3,Win32,60.39012018,,,,,,,,,,,0.7922,1,,,,,,,,,,,,,,,,,,,,,,,,-0.00390625,-0.40625,0,0,0,,,,,,,WHEEL,HB,z,m,./images/WHEELHB.png,,,,,,,,,,,,,,,,,,,,,z,1,0.7922,,,,,,,,0,86,86,161,1
,,,,,,,,,,,,,,,,,6107272874f58769a86a21b9,50,2022-02-12_13h20.34.088,lexical_decision_task_DD_L3,2021.2.3,Win32,60.39012018,,,,,,,,,,,1.088,1,,,,,,,,,,,,,,,,,,,,,,,,-0.00390625,-0.40625,0,0,0,,,,,,,MOSQUE,C,m,m,./images/MOSQUE.png,,,,,,,,,,,,,,,,,,,,,m,1,1.088,,,,,,,,0,87,87,43,1
,,,,,,,,,,,,,,,,,6107272874f58769a86a21b9,50,2022-02-12_13h20.34.088,lexical_decision_task_DD_L3,2021.2.3,Win32,60.39012018,,,,,,,,,,,0.8913,1,,,,,,,,,,,,,,,,,,,,,,,,-0.00390625,-0.40625,0,0,0,,,,,,,SWEAT,LB,m,m,./images/SWEATLB.png,,,,,,,,,,,,,,,,,,,,,m,1,0.8913,,,,,,,,0,88,88,66,1
,,,,,,,,,,,,,,,,,6107272874f58769a86a21b9,50,2022-02-12_13h20.34.088,lexical_decision_task_DD_L3,2021.2.3,Win32,60.39012018,,,,,,,,,,,0.9579,0,,,,,,,,,,,,,,,,,,,,,,,,-0.00390625,-0.40625,0,0,0,,,,,,,GREASE,LB,m,m,./images/GREASELB.png,,,,,,,,,,,,,,,,,,,,,z,0,0.9579,,,,,,,,0,89,89,15,1
,,,,,,,,,,,,,,,,,6107272874f58769a86a21b9,50,2022-02-12_13h20.34.088,lexical_decision_task_DD_L3,2021.2.3,Win32,60.39012018,,,,,,,,,,,1.3358,0,,,,,,,,,,,,,,,,,,,,,,,,-0.00390625,-0.40625,0,0,0,,,,,,,MAMMAL,HB,z,m,./images/MAMMALHB.png,,,,,,,,,,,,,,,,,,,,,m,0,1.3358,,,,,,,,0,90,90,146,1
,,,,,,,,,,,,,,,,,6107272874f58769a86a21b9,50,2022-02-12_13h20.34.088,lexical_decision_task_DD_L3,2021.2.3,Win32,60.39012018,,,,,,,,,,,1.388700001,1,,,,,,,,,,,,,,,,,,,,,,,,-0.00390625,-0.40625,0,0,0,,,,,,,TRIPOD,LB,m,m,./images/TRIPODLB.png,,,,,,,,,,,,,,,,,,,,,m,1,1.388700001,,,,,,,,0,91,91,54,1
,,,,,,,,,,,,,,,,,6107272874f58769a86a21b9,50,2022-02-12_13h20.34.088,lexical_decision_task_DD_L3,2021.2.3,Win32,60.39012018,,,,,,,,,,,1.060599999,0,,,,,,,,,,,,,,,,,,,,,,,,-0.00390625,-0.40625,0,0,0,,,,,,,BURIAL,HB,m,m,./images/BURIALHB.png,,,,,,,,,,,,,,,,,,,,,z,0,1.060599999,,,,,,,,0,92,92,59,1
,,,,,,,,,,,,,,,,,6107272874f58769a86a21b9,50,2022-02-12_13h20.34.088,lexical_decision_task_DD_L3,2021.2.3,Win32,60.39012018,,,,,,,,,,,0.7126,1,,,,,,,,,,,,,,,,,,,,,,,,-0.00390625,-0.40625,0,0,0,,,,,,,BONNET,HB,m,m,./images/BONNETHB.png,,,,,,,,,,,,,,,,,,,,,m,1,0.7126,,,,,,,,0,93,93,11,1
,,,,,,,,,,,,,,,,,6107272874f58769a86a21b9,50,2022-02-12_13h20.34.088,lexical_decision_task_DD_L3,2021.2.3,Win32,60.39012018,,,,,,,,,,,0.9608,0,,,,,,,,,,,,,,,,,,,,,,,,-0.00390625,-0.40625,0,0,0,,,,,,,SHELF,LB,m,m,./images/SHELFLB.png,,,,,,,,,,,,,,,,,,,,,z,0,0.9608,,,,,,,,0,94,94,39,1
,,,,,,,,,,,,,,,,,6107272874f58769a86a21b9,50,2022-02-12_13h20.34.088,lexical_decision_task_DD_L3,2021.2.3,Win32,60.39012018,,,,,,,,,,,1.0935,0,,,,,,,,,,,,,,,,,,,,,,,,-0.00390625,-0.40625,0,0,0,,,,,,,PILOT,HB,z,m,./images/PILOTHB.png,,,,,,,,,,,,,,,,,,,,,m,0,1.0935,,,,,,,,0,95,95,134,1
,,,,,,,,,,,,,,,,,6107272874f58769a86a21b9,50,2022-02-12_13h20.34.088,lexical_decision_task_DD_L3,2021.2.3,Win32,60.39012018,,,,,,,,,,,0.8928,0,,,,,,,,,,,,,,,,,,,,,,,,-0.00390625,-0.40625,0,0,0,,,,,,,WRIST,C,m,m,./images/WRIST.png,,,,,,,,,,,,,,,,,,,,,z,0,0.8928,,,,,,,,0,96,96,25,1
,,,,,,,,,,,,,,,,,6107272874f58769a86a21b9,50,2022-02-12_13h20.34.088,lexical_decision_task_DD_L3,2021.2.3,Win32,60.39012018,,,,,,,,,,,0.976,1,,,,,,,,,,,,,,,,,,,,,,,,-0.00390625,-0.40625,0,0,0,,,,,,,COOKER,LB,m,m,./images/COOKERLB.png,,,,,,,,,,,,,,,,,,,,,m,1,0.976,,,,,,,,0,97,97,69,1
,,,,,,,,,,,,,,,,,6107272874f58769a86a21b9,50,2022-02-12_13h20.34.088,lexical_decision_task_DD_L3,2021.2.3,Win32,60.39012018,,,,,,,,,,,1.1025,0,,,,,,,,,,,,,,,,,,,,,,,,-0.00390625,-0.40625,0,0,0,,,,,,,CURRY,LB,z,m,./images/CURRYLB.png,,,,,,,,,,,,,,,,,,,,,m,0,1.1025,,,,,,,,0,98,98,144,1
,,,,,,,,,,,,,,,,,6107272874f58769a86a21b9,50,2022-02-12_13h20.34.088,lexical_decision_task_DD_L3,2021.2.3,Win32,60.39012018,,,,,,,,,,,0.8112,1,,,,,,,,,,,,,,,,,,,,,,,,-0.00390625,-0.40625,0,0,0,,,,,,,PICKLE,HB,m,m,./images/PICKLEHB.png,,,,,,,,,,,,,,,,,,,,,m,1,0.8112,,,,,,,,0,99,99,14,1
,,,,,,,,,,,,,,,,,6107272874f58769a86a21b9,50,2022-02-12_13h20.34.088,lexical_decision_task_DD_L3,2021.2.3,Win32,60.39012018,,,,,,,,,,,1.1477,1,,,,,,,,,,,,,,,,,,,,,,,,-0.00390625,-0.40625,0,0,0,,,,,,,TIGER,C,z,m,./images/TIGER.png,,,,,,,,,,,,,,,,,,,,,z,1,1.1477,,,,,,,,0,100,100,121,1
,,,,,,,,,,,,,,,,,6107272874f58769a86a21b9,50,2022-02-12_13h20.34.088,lexical_decision_task_DD_L3,2021.2.3,Win32,60.39012018,,,,,,,,,,,1.0215,1,,,,,,,,,,,,,,,,,,,,,,,,-0.00390625,-0.40625,0,0,0,,,,,,,MOOSE,LB,m,m,./images/MOOSELB.png,,,,,,,,,,,,,,,,,,,,,m,1,1.0215,,,,,,,,0,101,101,57,1
,,,,,,,,,,,,,,,,,6107272874f58769a86a21b9,50,2022-02-12_13h20.34.088,lexical_decision_task_DD_L3,2021.2.3,Win32,60.39012018,,,,,,,,,,,3.010400001,1,,,,,,,,,,,,,,,,,,,,,,,,-0.00390625,-0.40625,0,0,0,,,,,,,CASINO,C,z,m,./images/CASINO.png,,,,,,,,,,,,,,,,,,,,,z,1,3.010400001,,,,,,,,0,102,102,112,1
,,,,,,,,,,,,,,,,,6107272874f58769a86a21b9,50,2022-02-12_13h20.34.088,lexical_decision_task_DD_L3,2021.2.3,Win32,60.39012018,,,,,,,,,,,0.9115,1,,,,,,,,,,,,,,,,,,,,,,,,-0.00390625,-0.40625,0,0,0,,,,,,,GRAPE,C,z,m,./images/GRAPE.png,,,,,,,,,,,,,,,,,,,,,z,1,0.9115,,,,,,,,0,103,103,100,1
,,,,,,,,,,,,,,,,,6107272874f58769a86a21b9,50,2022-02-12_13h20.34.088,lexical_decision_task_DD_L3,2021.2.3,Win32,60.39012018,,,,,,,,,,,1.217900001,1,,,,,,,,,,,,,,,,,,,,,,,,-0.00390625,-0.40625,0,0,0,,,,,,,CANDLE,C,m,m,./images/CANDLE.png,,,,,,,,,,,,,,,,,,,,,m,1,1.217900001,,,,,,,,0,104,104,61,1
,,,,,,,,,,,,,,,,,6107272874f58769a86a21b9,50,2022-02-12_13h20.34.088,lexical_decision_task_DD_L3,2021.2.3,Win32,60.39012018,,,,,,,,,,,0.7999,0,,,,,,,,,,,,,,,,,,,,,,,,-0.00390625,-0.40625,0,0,0,,,,,,,ONION,LB,m,m,./images/ONIONLB.png,,,,,,,,,,,,,,,,,,,,,z,0,0.7999,,,,,,,,0,105,105,51,1
,,,,,,,,,,,,,,,,,6107272874f58769a86a21b9,50,2022-02-12_13h20.34.088,lexical_decision_task_DD_L3,2021.2.3,Win32,60.39012018,,,,,,,,,,,1.3281,1,,,,,,,,,,,,,,,,,,,,,,,,-0.00390625,-0.40625,0,0,0,,,,,,,BUNNY,C,z,m,./images/BUNNY.png,,,,,,,,,,,,,,,,,,,,,z,1,1.3281,,,,,,,,0,106,106,97,1
,,,,,,,,,,,,,,,,,6107272874f58769a86a21b9,50,2022-02-12_13h20.34.088,lexical_decision_task_DD_L3,2021.2.3,Win32,60.39012018,,,,,,,,,,,0.7938,1,,,,,,,,,,,,,,,,,,,,,,,,-0.00390625,-0.40625,0,0,0,,,,,,,BISHOP,C,z,m,./images/BISHOP.png,,,,,,,,,,,,,,,,,,,,,z,1,0.7938,,,,,,,,0,107,107,133,1
,,,,,,,,,,,,,,,,,6107272874f58769a86a21b9,50,2022-02-12_13h20.34.088,lexical_decision_task_DD_L3,2021.2.3,Win32,60.39012018,,,,,,,,,,,1.0716,1,,,,,,,,,,,,,,,,,,,,,,,,-0.00390625,-0.40625,0,0,0,,,,,,,MUSCLE,C,m,m,./images/MUSCLE.png,,,,,,,,,,,,,,,,,,,,,m,1,1.0716,,,,,,,,0,108,108,4,1
,,,,,,,,,,,,,,,,,6107272874f58769a86a21b9,50,2022-02-12_13h20.34.088,lexical_decision_task_DD_L3,2021.2.3,Win32,60.39012018,,,,,,,,,,,0.667,0,,,,,,,,,,,,,,,,,,,,,,,,-0.00390625,-0.40625,0,0,0,,,,,,,BAMBOO,HB,z,m,./images/BAMBOOHB.png,,,,,,,,,,,,,,,,,,,,,m,0,0.667,,,,,,,,0,109,109,89,1
,,,,,,,,,,,,,,,,,6107272874f58769a86a21b9,50,2022-02-12_13h20.34.088,lexical_decision_task_DD_L3,2021.2.3,Win32,60.39012018,,,,,,,,,,,0.748799999,1,,,,,,,,,,,,,,,,,,,,,,,,-0.00390625,-0.40625,0,0,0,,,,,,,ARROW,LB,z,m,./images/ARROWLB.png,,,,,,,,,,,,,,,,,,,,,z,1,0.748799999,,,,,,,,0,110,110,153,1
,,,,,,,,,,,,,,,,,6107272874f58769a86a21b9,50,2022-02-12_13h20.34.088,lexical_decision_task_DD_L3,2021.2.3,Win32,60.39012018,,,,,,,,,,,0.7552,1,,,,,,,,,,,,,,,,,,,,,,,,-0.00390625,-0.40625,0,0,0,,,,,,,SMOKER,HB,m,m,./images/SMOKERHB.png,,,,,,,,,,,,,,,,,,,,,m,1,0.7552,,,,,,,,0,111,111,26,1
,,,,,,,,,,,,,,,,,6107272874f58769a86a21b9,50,2022-02-12_13h20.34.088,lexical_decision_task_DD_L3,2021.2.3,Win32,60.39012018,,,,,,,,,,,1.2049,0,,,,,,,,,,,,,,,,,,,,,,,,-0.00390625,-0.40625,0,0,0,,,,,,,SAILOR,C,m,m,./images/SAILOR.png,,,,,,,,,,,,,,,,,,,,,z,0,1.2049,,,,,,,,0,112,112,67,1
,,,,,,,,,,,,,,,,,6107272874f58769a86a21b9,50,2022-02-12_13h20.34.088,lexical_decision_task_DD_L3,2021.2.3,Win32,60.39012018,,,,,,,,,,,0.9053,0,,,,,,,,,,,,,,,,,,,,,,,,-0.00390625,-0.40625,0,0,0,,,,,,,CRADLE,HB,m,m,./images/CRADLEHB.png,,,,,,,,,,,,,,,,,,,,,z,0,0.9053,,,,,,,,0,113,113,20,1
,,,,,,,,,,,,,,,,,6107272874f58769a86a21b9,50,2022-02-12_13h20.34.088,lexical_decision_task_DD_L3,2021.2.3,Win32,60.39012018,,,,,,,,,,,0.669,1,,,,,,,,,,,,,,,,,,,,,,,,-0.00390625,-0.40625,0,0,0,,,,,,,ALLEY,C,z,m,./images/ALLEY.png,,,,,,,,,,,,,,,,,,,,,z,1,0.669,,,,,,,,0,114,114,139,1
,,,,,,,,,,,,,,,,,6107272874f58769a86a21b9,50,2022-02-12_13h20.34.088,lexical_decision_task_DD_L3,2021.2.3,Win32,60.39012018,,,,,,,,,,,0.946099999,1,,,,,,,,,,,,,,,,,,,,,,,,-0.00390625,-0.40625,0,0,0,,,,,,,FALCON,C,m,m,./images/FALCON.png,,,,,,,,,,,,,,,,,,,,,m,1,0.946099999,,,,,,,,0,115,115,28,1
,,,,,,,,,,,,,,,,,6107272874f58769a86a21b9,50,2022-02-12_13h20.34.088,lexical_decision_task_DD_L3,2021.2.3,Win32,60.39012018,,,,,,,,,,,0.7101,1,,,,,,,,,,,,,,,,,,,,,,,,-0.00390625,-0.40625,0,0,0,,,,,,,LLAMA,HB,z,m,./images/LLAMAHB.png,,,,,,,,,,,,,,,,,,,,,z,1,0.7101,,,,,,,,0,116,116,119,1
,,,,,,,,,,,,,,,,,6107272874f58769a86a21b9,50,2022-02-12_13h20.34.088,lexical_decision_task_DD_L3,2021.2.3,Win32,60.39012018,,,,,,,,,,,0.8163,1,,,,,,,,,,,,,,,,,,,,,,,,-0.00390625,-0.40625,0,0,0,,,,,,,PARCEL,LB,z,m,./images/PARCELLB.png,,,,,,,,,,,,,,,,,,,,,z,1,0.8163,,,,,,,,0,117,117,102,1
,,,,,,,,,,,,,,,,,6107272874f58769a86a21b9,50,2022-02-12_13h20.34.088,lexical_decision_task_DD_L3,2021.2.3,Win32,60.39012018,,,,,,,,,,,0.966400001,0,,,,,,,,,,,,,,,,,,,,,,,,-0.00390625,-0.40625,0,0,0,,,,,,,ATTIC,LB,m,m,./images/ATTICLB.png,,,,,,,,,,,,,,,,,,,,,z,0,0.966400001,,,,,,,,0,118,118,27,1
,,,,,,,,,,,,,,,,,6107272874f58769a86a21b9,50,2022-02-12_13h20.34.088,lexical_decision_task_DD_L3,2021.2.3,Win32,60.39012018,,,,,,,,,,,0.8425,1,,,,,,,,,,,,,,,,,,,,,,,,-0.00390625,-0.40625,0,0,0,,,,,,,RULER,C,z,m,./images/RULER.png,,,,,,,,,,,,,,,,,,,,,z,1,0.8425,,,,,,,,0,119,119,163,1
,,,,,,,,,,,,,,,,,6107272874f58769a86a21b9,50,2022-02-12_13h20.34.088,lexical_decision_task_DD_L3,2021.2.3,Win32,60.39012018,,,,,,,,,,,1.2447,1,,,,,,,,,,,,,,,,,,,,,,,,-0.00390625,-0.40625,0,0,0,,,,,,,FOLDER,LB,m,m,./images/FOLDERLB.png,,,,,,,,,,,,,,,,,,,,,m,1,1.2447,,,,,,,,0,120,120,42,1
,,,,,,,,,,,,,,,,,6107272874f58769a86a21b9,50,2022-02-12_13h20.34.088,lexical_decision_task_DD_L3,2021.2.3,Win32,60.39012018,,,,,,,,,,,0.8593,0,,,,,,,,,,,,,,,,,,,,,,,,-0.00390625,-0.40625,0,0,0,,,,,,,HAMMER,LB,z,m,./images/HAMMERLB.png,,,,,,,,,,,,,,,,,,,,,m,0,0.8593,,,,,,,,0,121,121,159,1
,,,,,,,,,,,,,,,,,6107272874f58769a86a21b9,50,2022-02-12_13h20.34.088,lexical_decision_task_DD_L3,2021.2.3,Win32,60.39012018,,,,,,,,,,,0.7793,1,,,,,,,,,,,,,,,,,,,,,,,,-0.00390625,-0.40625,0,0,0,,,,,,,STREAM,HB,z,m,./images/STREAMHB.png,,,,,,,,,,,,,,,,,,,,,z,1,0.7793,,,,,,,,0,122,122,125,1
,,,,,,,,,,,,,,,,,6107272874f58769a86a21b9,50,2022-02-12_13h20.34.088,lexical_decision_task_DD_L3,2021.2.3,Win32,60.39012018,,,,,,,,,,,0.964,1,,,,,,,,,,,,,,,,,,,,,,,,-0.00390625,-0.40625,0,0,0,,,,,,,DRUMS,C,m,m,./images/DRUMS.png,,,,,,,,,,,,,,,,,,,,,m,1,0.964,,,,,,,,0,123,123,49,1
,,,,,,,,,,,,,,,,,6107272874f58769a86a21b9,50,2022-02-12_13h20.34.088,lexical_decision_task_DD_L3,2021.2.3,Win32,60.39012018,,,,,,,,,,,0.9838,0,,,,,,,,,,,,,,,,,,,,,,,,-0.00390625,-0.40625,0,0,0,,,,,,,POSTER,HB,z,m,./images/POSTERHB.png,,,,,,,,,,,,,,,,,,,,,m,0,0.9838,,,,,,,,0,124,124,137,1
,,,,,,,,,,,,,,,,,6107272874f58769a86a21b9,50,2022-02-12_13h20.34.088,lexical_decision_task_DD_L3,2021.2.3,Win32,60.39012018,,,,,,,,,,,0.8139,1,,,,,,,,,,,,,,,,,,,,,,,,-0.00390625,-0.40625,0,0,0,space,,,,,,BRIDE,C,z,m,./images/BRIDE.png,1.2827,,,,,,,,,,,,,,,,,,,,z,1,0.8139,,,,,,,,0,125,125,148,1
,,,,,,,,,,,,,,,,,6107272874f58769a86a21b9,50,2022-02-12_13h20.34.088,lexical_decision_task_DD_L3,2021.2.3,Win32,60.39012018,,,,,,,,,,,1.0767,0,,,,,,,,,,,,,,,,,,,,,,,,-0.00390625,-0.40625,0,0,0,,,,,,,TOMATO,LB,m,m,./images/TOMATOLB.png,,,,,,,,,,,,,,,,,,,,,z,0,1.0767,,,,,,,,0,126,126,0,1
,,,,,,,,,,,,,,,,,6107272874f58769a86a21b9,50,2022-02-12_13h20.34.088,lexical_decision_task_DD_L3,2021.2.3,Win32,60.39012018,,,,,,,,,,,0.9483,0,,,,,,,,,,,,,,,,,,,,,,,,-0.00390625,-0.40625,0,0,0,,,,,,,BROOM,LB,z,m,./images/BROOMLB.png,,,,,,,,,,,,,,,,,,,,,m,0,0.9483,,,,,,,,0,127,127,162,1
,,,,,,,,,,,,,,,,,6107272874f58769a86a21b9,50,2022-02-12_13h20.34.088,lexical_decision_task_DD_L3,2021.2.3,Win32,60.39012018,,,,,,,,,,,0.734299999,1,,,,,,,,,,,,,,,,,,,,,,,,-0.00390625,-0.40625,0,0,0,,,,,,,SAUCE,LB,z,m,./images/SAUCELB.png,,,,,,,,,,,,,,,,,,,,,z,1,0.734299999,,,,,,,,0,128,128,135,1
,,,,,,,,,,,,,,,,,6107272874f58769a86a21b9,50,2022-02-12_13h20.34.088,lexical_decision_task_DD_L3,2021.2.3,Win32,60.39012018,,,,,,,,,,,0.880400001,1,,,,,,,,,,,,,,,,,,,,,,,,-0.00390625,-0.40625,0,0,0,,,,,,,TOWEL,C,z,m,./images/TOWEL.png,,,,,,,,,,,,,,,,,,,,,z,1,0.880400001,,,,,,,,0,129,129,85,1
,,,,,,,,,,,,,,,,,6107272874f58769a86a21b9,50,2022-02-12_13h20.34.088,lexical_decision_task_DD_L3,2021.2.3,Win32,60.39012018,,,,,,,,,,,0.926700001,1,,,,,,,,,,,,,,,,,,,,,,,,-0.00390625,-0.40625,0,0,0,,,,,,,MELON,C,m,m,./images/MELON.png,,,,,,,,,,,,,,,,,,,,,m,1,0.926700001,,,,,,,,0,130,130,22,1
,,,,,,,,,,,,,,,,,6107272874f58769a86a21b9,50,2022-02-12_13h20.34.088,lexical_decision_task_DD_L3,2021.2.3,Win32,60.39012018,,,,,,,,,,,0.7952,1,,,,,,,,,,,,,,,,,,,,,,,,-0.00390625,-0.40625,0,0,0,,,,,,,GRANNY,HB,z,m,./images/GRANNYHB.png,,,,,,,,,,,,,,,,,,,,,z,1,0.7952,,,,,,,,0,131,131,104,1
