key_resp.keys,instr_done_touch.x,instr_done_touch.y,instr_done_touch.leftButton,instr_done_touch.midButton,instr_done_touch.rightButton,instr_done_touch.clicked_name,instruction_pages.thisRepN,instruction_pages.thisTrialN,instruction_pages.thisN,instruction_pages.thisIndex,instruction_pages.ran,pageN,phase,instruct_text,has_image,instruct_image,participant,age,date,expName,psychopyVersion,OS,frameRate,response.keys,response.corr,response.rt,touch_resp.x,touch_resp.y,touch_resp.leftButton,touch_resp.midButton,touch_resp.rightButton,touch_resp.time,touch_resp.clicked_name,rt,corr,practrials.thisRepN,practrials.thisTrialN,practrials.thisN,practrials.thisIndex,practrials.ran,TrialID,Target,corrAns,end_of_practice_trials_pages.thisRepN,end_of_practice_trials_pages.thisTrialN,end_of_practice_trials_pages.thisN,end_of_practice_trials_pages.thisIndex,end_of_practice_trials_pages.ran,key_resp_2.keys,key_resp_2.corr,key_resp_2.rt,targ_click.x,targ_click.y,targ_click.leftButton,targ_click.midButton,targ_click.rightButton,targ_click.time,targ_click.clicked_name,break_done_touch.x,break_done_touch.y,break_done_touch.leftButton,break_done_touch.midButton,break_done_touch.rightButton,break_done_keyboard.keys,maintrials.thisRepN,maintrials.thisTrialN,maintrials.thisN,maintrials.thisIndex,maintrials.ran,string,blur,study,lex,stim_path,break_done_touch.clicked_name,break_done_keyboard.rt,mouse_2.x,mouse_2.y,mouse_2.leftButton,mouse_2.midButton,mouse_2.rightButton,mouse_2.clicked_name,slider.response,slider.rt,trials.thisRepN,trials.thisTrialN,trials.thisN,trials.thisIndex,trials.ran,test_instructions.thisRepN,test_instructions.thisTrialN,test_instructions.thisN,test_instructions.thisIndex,test_instructions.ran,key_resp.rt,key_resp_3.keys,key_resp_3.corr,key_resp_3.rt,test_click.x,test_click.y,test_click.leftButton,test_click.midButton,test_click.rightButton,test_click.time,test_click.clicked_name,test_phase.thisRepN,test_phase.thisTrialN,test_phase.thisN,test_phase.thisIndex,test_phase.ran
,-0.036111111,-0.425925954,1,0,0,instr_done_button,0,0,0,0,1,1,instructions,"INSTRUCTIONS
At the start of each trial, look at the plus sign  (+) in the center of the screen.  This tells you that a trial is about to begin and where to look. Second, the plus sign will disappear and a string of letters will appear. Your task is to determine if the string of letters is a word or not. If the item is a word press the M key (on keyboard)  or touch the word button (phone/tablet).  If the item is not a word,  press the  Z key (on keyboard)  or touch the nonword button (on phone/tablet). 
Press the space bar or touch  continue.",0,,6108696dc9d16e886749e495,20,2022-02-12_13h49.52.708,lexical_decision_task_DD_L3,2021.2.3,Win32,59.74072525,,,,,,,,,,,,,,,,,,,,,,,,,,,,,,,,,,,,,,,,,,,,,,,,,,,,,,,,,,,,,,,,,,,,,,,,,,,,,,,,,,,,,,,
,-0.136111111,-0.390740797,1,0,0,instr_done_button,0,1,1,1,1,2,instructions,"If your device has a keyboard, press the 'Z' key for nonwords and the 'M' key for words.





Press the space bar or touch the button below to continue.",0,keyboard-example.gif,6108696dc9d16e886749e495,20,2022-02-12_13h49.52.708,lexical_decision_task_DD_L3,2021.2.3,Win32,59.74072525,,,,,,,,,,,,,,,,,,,,,,,,,,,,,,,,,,,,,,,,,,,,,,,,,,,,,,,,,,,,,,,,,,,,,,,,,,,,,,,,,,,,,,,
,-0.167592536,-0.387963019,1,0,0,instr_done_button,0,2,2,2,1,3,instructions,"If you are using a touchscreen only device, use the buttons on the screen. Do not use the mouse.





Press the space bar or touch the button below to continue.",0,touchscreen-example.gif,6108696dc9d16e886749e495,20,2022-02-12_13h49.52.708,lexical_decision_task_DD_L3,2021.2.3,Win32,59.74072525,,,,,,,,,,,,,,,,,,,,,,,,,,,,,,,,,,,,,,,,,,,,,,,,,,,,,,,,,,,,,,,,,,,,,,,,,,,,,,,,,,,,,,,
,-0.159259203,-0.38148151,1,0,0,instr_done_button,0,3,3,3,1,4,instructions,"It is very important that you respond as quickly and accurately as possible, as each letter string will only be on the screen for two seconds. If you do not respond within this time, the message 'Too slow!' will be displayed and the experiment will progress to the next letter string. The first 20 trials will be practice trials and you will receive feedback on your answers. 

Press the space bar or touch the button below to start the practice trials.",0,,6108696dc9d16e886749e495,20,2022-02-12_13h49.52.708,lexical_decision_task_DD_L3,2021.2.3,Win32,59.74072525,,,,,,,,,,,,,,,,,,,,,,,,,,,,,,,,,,,,,,,,,,,,,,,,,,,,,,,,,,,,,,,,,,,,,,,,,,,,,,,,,,,,,,,
,,,,,,,,,,,,,,,,,6108696dc9d16e886749e495,20,2022-02-12_13h49.52.708,lexical_decision_task_DD_L3,2021.2.3,Win32,59.74072525,m,1,2.7331,,,,,,,,2.7331,1,0,0,0,4,1,1001,SQUEAK,m,,,,,,,,,,,,,,,,,,,,,,,,,,,,,,,,,,,,,,,,,,,,,,,,,,,,,,,,,,,,,,,,,,,
,,,,,,,,,,,,,,,,,6108696dc9d16e886749e495,20,2022-02-12_13h49.52.708,lexical_decision_task_DD_L3,2021.2.3,Win32,59.74072525,z,1,1.1376,,,,,,,,1.1376,1,0,1,1,8,1,1001,ASLERT,z,,,,,,,,,,,,,,,,,,,,,,,,,,,,,,,,,,,,,,,,,,,,,,,,,,,,,,,,,,,,,,,,,,,
,,,,,,,,,,,,,,,,,6108696dc9d16e886749e495,20,2022-02-12_13h49.52.708,lexical_decision_task_DD_L3,2021.2.3,Win32,59.74072525,m,1,3.6126,,,,,,,,3.6126,1,0,2,2,2,1,1001,ALMOND,m,,,,,,,,,,,,,,,,,,,,,,,,,,,,,,,,,,,,,,,,,,,,,,,,,,,,,,,,,,,,,,,,,,,
,,,,,,,,,,,,,,,,,6108696dc9d16e886749e495,20,2022-02-12_13h49.52.708,lexical_decision_task_DD_L3,2021.2.3,Win32,59.74072525,m,1,1.2459,,,,,,,,1.2459,1,0,3,3,5,1,1001,OBTAIN,m,,,,,,,,,,,,,,,,,,,,,,,,,,,,,,,,,,,,,,,,,,,,,,,,,,,,,,,,,,,,,,,,,,,
,,,,,,,,,,,,,,,,,6108696dc9d16e886749e495,20,2022-02-12_13h49.52.708,lexical_decision_task_DD_L3,2021.2.3,Win32,59.74072525,z,1,0.7593,,,,,,,,0.7593,1,0,4,4,11,1,1001,RASHET,z,,,,,,,,,,,,,,,,,,,,,,,,,,,,,,,,,,,,,,,,,,,,,,,,,,,,,,,,,,,,,,,,,,,
,,,,,,,,,,,,,,,,,6108696dc9d16e886749e495,20,2022-02-12_13h49.52.708,lexical_decision_task_DD_L3,2021.2.3,Win32,59.74072525,m,1,0.8302,,,,,,,,0.8302,1,0,5,5,0,1,1001,UTOPIA,m,,,,,,,,,,,,,,,,,,,,,,,,,,,,,,,,,,,,,,,,,,,,,,,,,,,,,,,,,,,,,,,,,,,
,,,,,,,,,,,,,,,,,6108696dc9d16e886749e495,20,2022-02-12_13h49.52.708,lexical_decision_task_DD_L3,2021.2.3,Win32,59.74072525,z,1,1.1862,,,,,,,,1.1862,1,0,6,6,15,1,1001,WHAISE,z,,,,,,,,,,,,,,,,,,,,,,,,,,,,,,,,,,,,,,,,,,,,,,,,,,,,,,,,,,,,,,,,,,,
,,,,,,,,,,,,,,,,,6108696dc9d16e886749e495,20,2022-02-12_13h49.52.708,lexical_decision_task_DD_L3,2021.2.3,Win32,59.74072525,z,1,5.5143,,,,,,,,5.5143,1,0,7,7,10,1,1001,INLADE,z,,,,,,,,,,,,,,,,,,,,,,,,,,,,,,,,,,,,,,,,,,,,,,,,,,,,,,,,,,,,,,,,,,,
,,,,,,,,,,,,,,,,,6108696dc9d16e886749e495,20,2022-02-12_13h49.52.708,lexical_decision_task_DD_L3,2021.2.3,Win32,59.74072525,z,1,2.8863,,,,,,,,2.8863,1,0,8,8,13,1,1001,ROUPET,z,,,,,,,,,,,,,,,,,,,,,,,,,,,,,,,,,,,,,,,,,,,,,,,,,,,,,,,,,,,,,,,,,,,
,,,,,,,,,,,,,,,,,6108696dc9d16e886749e495,20,2022-02-12_13h49.52.708,lexical_decision_task_DD_L3,2021.2.3,Win32,59.74072525,z,1,1.1002,,,,,,,,1.1002,1,0,9,9,9,1,1001,FARINY,z,,,,,,,,,,,,,,,,,,,,,,,,,,,,,,,,,,,,,,,,,,,,,,,,,,,,,,,,,,,,,,,,,,,
,,,,,,,,,,,,,,,,,6108696dc9d16e886749e495,20,2022-02-12_13h49.52.708,lexical_decision_task_DD_L3,2021.2.3,Win32,59.74072525,z,0,1.4098,,,,,,,,1.4098,0,0,10,10,6,1,1001,ZOMBIE,m,,,,,,,,,,,,,,,,,,,,,,,,,,,,,,,,,,,,,,,,,,,,,,,,,,,,,,,,,,,,,,,,,,,
,,,,,,,,,,,,,,,,,6108696dc9d16e886749e495,20,2022-02-12_13h49.52.708,lexical_decision_task_DD_L3,2021.2.3,Win32,59.74072525,z,1,0.7437,,,,,,,,0.7437,1,0,11,11,12,1,1001,SPRINY,z,,,,,,,,,,,,,,,,,,,,,,,,,,,,,,,,,,,,,,,,,,,,,,,,,,,,,,,,,,,,,,,,,,,
,,,,,,,,,,,,,,,,,6108696dc9d16e886749e495,20,2022-02-12_13h49.52.708,lexical_decision_task_DD_L3,2021.2.3,Win32,59.74072525,z,1,1.118,,,,,,,,1.118,1,0,12,12,14,1,1001,THRALE,z,,,,,,,,,,,,,,,,,,,,,,,,,,,,,,,,,,,,,,,,,,,,,,,,,,,,,,,,,,,,,,,,,,,
,,,,,,,,,,,,,,,,,6108696dc9d16e886749e495,20,2022-02-12_13h49.52.708,lexical_decision_task_DD_L3,2021.2.3,Win32,59.74072525,m,1,0.7983,,,,,,,,0.7983,1,0,13,13,3,1,1001,MATRIX,m,,,,,,,,,,,,,,,,,,,,,,,,,,,,,,,,,,,,,,,,,,,,,,,,,,,,,,,,,,,,,,,,,,,
,,,,,,,,,,,,,,,,,6108696dc9d16e886749e495,20,2022-02-12_13h49.52.708,lexical_decision_task_DD_L3,2021.2.3,Win32,59.74072525,m,1,0.5093,,,,,,,,0.5093,1,0,14,14,7,1,1001,VOLUME,m,,,,,,,,,,,,,,,,,,,,,,,,,,,,,,,,,,,,,,,,,,,,,,,,,,,,,,,,,,,,,,,,,,,
,,,,,,,,,,,,,,,,,6108696dc9d16e886749e495,20,2022-02-12_13h49.52.708,lexical_decision_task_DD_L3,2021.2.3,Win32,59.74072525,m,1,0.697,,,,,,,,0.697,1,0,15,15,1,1,1001,ADJUST,m,,,,,,,,,,,,,,,,,,,,,,,,,,,,,,,,,,,,,,,,,,,,,,,,,,,,,,,,,,,,,,,,,,,
,-0.012036981,-0.365740797,1,0,0,instr_done_button,,,,,,1,end_of_practice,"You have completed the practice trials. During the experimental trials, you will not receive feedback. 
Before you begin, please ensure that you are in a comfortable and quiet location and will not be disturbed for about 15 minutes, as we cannot use your data if you do not complete all the trials. 
 When you are ready to start the experimental trials, please press space or touch the button below.",,,6108696dc9d16e886749e495,20,2022-02-12_13h49.52.708,lexical_decision_task_DD_L3,2021.2.3,Win32,59.74072525,,,,,,,,,,,,,,,,,,,,,0,0,0,0,1,,,,,,,,,,,,,,,,,,,,,,,,,,,,,,,,,,,,,,,,,,,,,,,,,,,,,,,,,,,,,,
,,,,,,,,,,,,,,,,,6108696dc9d16e886749e495,20,2022-02-12_13h49.52.708,lexical_decision_task_DD_L3,2021.2.3,Win32,59.74072525,,,,,,,,,,,2.2823,1,,,,,,,,,,,,,,z,1,2.2823,,,,,,,,-0.014814758,-0.364814843,0,0,0,,0,0,0,101,1,GLEET,LB,old,z,./images/GLEETLB.png,,,,,,,,,,,,,,,,,,,,,,,,,,,,,,,,,,,,
,,,,,,,,,,,,,,,,,6108696dc9d16e886749e495,20,2022-02-12_13h49.52.708,lexical_decision_task_DD_L3,2021.2.3,Win32,59.74072525,,,,,,,,,,,2.36,1,,,,,,,,,,,,,,z,1,2.36,,,,,,,,-0.014814758,-0.364814843,0,0,0,,0,1,1,112,1,MYING,HB,old,z,./images/MYINGHB.png,,,,,,,,,,,,,,,,,,,,,,,,,,,,,,,,,,,,
,,,,,,,,,,,,,,,,,6108696dc9d16e886749e495,20,2022-02-12_13h49.52.708,lexical_decision_task_DD_L3,2021.2.3,Win32,59.74072525,,,,,,,,,,,0.5857,1,,,,,,,,,,,,,,m,1,0.5857,,,,,,,,-0.014814758,-0.364814843,0,0,0,,0,2,2,25,1,WRIST,C,old,m,./images/WRIST.png,,,,,,,,,,,,,,,,,,,,,,,,,,,,,,,,,,,,
,,,,,,,,,,,,,,,,,6108696dc9d16e886749e495,20,2022-02-12_13h49.52.708,lexical_decision_task_DD_L3,2021.2.3,Win32,59.74072525,,,,,,,,,,,0.6364,1,,,,,,,,,,,,,,m,1,0.6364,,,,,,,,-0.014814758,-0.364814843,0,0,0,,0,3,3,77,1,COUCH,HB,old,m,./images/COUCHHB.png,,,,,,,,,,,,,,,,,,,,,,,,,,,,,,,,,,,,
,,,,,,,,,,,,,,,,,6108696dc9d16e886749e495,20,2022-02-12_13h49.52.708,lexical_decision_task_DD_L3,2021.2.3,Win32,59.74072525,,,,,,,,,,,0.7,1,,,,,,,,,,,,,,z,1,0.7,,,,,,,,-0.014814758,-0.364814843,0,0,0,,0,4,4,119,1,PAFER,LB,old,z,./images/PAFERLB.png,,,,,,,,,,,,,,,,,,,,,,,,,,,,,,,,,,,,
,,,,,,,,,,,,,,,,,6108696dc9d16e886749e495,20,2022-02-12_13h49.52.708,lexical_decision_task_DD_L3,2021.2.3,Win32,59.74072525,,,,,,,,,,,0.6903,1,,,,,,,,,,,,,,m,1,0.6903,,,,,,,,-0.014814758,-0.364814843,0,0,0,,0,5,5,68,1,TORCH,HB,old,m,./images/TORCHHB.png,,,,,,,,,,,,,,,,,,,,,,,,,,,,,,,,,,,,
,,,,,,,,,,,,,,,,,6108696dc9d16e886749e495,20,2022-02-12_13h49.52.708,lexical_decision_task_DD_L3,2021.2.3,Win32,59.74072525,,,,,,,,,,,0.8259,1,,,,,,,,,,,,,,m,1,0.8259,,,,,,,,-0.014814758,-0.364814843,0,0,0,,0,6,6,59,1,BURIAL,HB,old,m,./images/BURIALHB.png,,,,,,,,,,,,,,,,,,,,,,,,,,,,,,,,,,,,
,,,,,,,,,,,,,,,,,6108696dc9d16e886749e495,20,2022-02-12_13h49.52.708,lexical_decision_task_DD_L3,2021.2.3,Win32,59.74072525,,,,,,,,,,,0.5435,1,,,,,,,,,,,,,,m,1,0.5435,,,,,,,,-0.014814758,-0.364814843,0,0,0,,0,7,7,82,1,SUNSET,C,old,m,./images/SUNSET.png,,,,,,,,,,,,,,,,,,,,,,,,,,,,,,,,,,,,
,,,,,,,,,,,,,,,,,6108696dc9d16e886749e495,20,2022-02-12_13h49.52.708,lexical_decision_task_DD_L3,2021.2.3,Win32,59.74072525,,,,,,,,,,,0.8072,1,,,,,,,,,,,,,,z,1,0.8072,,,,,,,,-0.014814758,-0.364814843,0,0,0,,0,8,8,108,1,GRUET,C,old,z,./images/GRUET.png,,,,,,,,,,,,,,,,,,,,,,,,,,,,,,,,,,,,
,,,,,,,,,,,,,,,,,6108696dc9d16e886749e495,20,2022-02-12_13h49.52.708,lexical_decision_task_DD_L3,2021.2.3,Win32,59.74072525,,,,,,,,,,,0.629,1,,,,,,,,,,,,,,m,1,0.629,,,,,,,,-0.014814758,-0.364814843,0,0,0,,0,9,9,19,1,DOUGH,C,old,m,./images/DOUGH.png,,,,,,,,,,,,,,,,,,,,,,,,,,,,,,,,,,,,
,,,,,,,,,,,,,,,,,6108696dc9d16e886749e495,20,2022-02-12_13h49.52.708,lexical_decision_task_DD_L3,2021.2.3,Win32,59.74072525,,,,,,,,,,,0.9008,1,,,,,,,,,,,,,,m,1,0.9008,,,,,,,,-0.014814758,-0.364814843,0,0,0,,0,10,10,40,1,SWING,C,old,m,./images/SWING.png,,,,,,,,,,,,,,,,,,,,,,,,,,,,,,,,,,,,
,,,,,,,,,,,,,,,,,6108696dc9d16e886749e495,20,2022-02-12_13h49.52.708,lexical_decision_task_DD_L3,2021.2.3,Win32,59.74072525,,,,,,,,,,,0.7179,1,,,,,,,,,,,,,,z,1,0.7179,,,,,,,,-0.014814758,-0.364814843,0,0,0,,0,11,11,98,1,BAMPS,LB,old,z,./images/BAMPSLB.png,,,,,,,,,,,,,,,,,,,,,,,,,,,,,,,,,,,,
,,,,,,,,,,,,,,,,,6108696dc9d16e886749e495,20,2022-02-12_13h49.52.708,lexical_decision_task_DD_L3,2021.2.3,Win32,59.74072525,,,,,,,,,,,0.5909,1,,,,,,,,,,,,,,z,1,0.5909,,,,,,,,-0.014814758,-0.364814843,0,0,0,,0,12,12,158,1,EGECT,LB,old,z,./images/EGECTLB.png,,,,,,,,,,,,,,,,,,,,,,,,,,,,,,,,,,,,
,,,,,,,,,,,,,,,,,6108696dc9d16e886749e495,20,2022-02-12_13h49.52.708,lexical_decision_task_DD_L3,2021.2.3,Win32,59.74072525,,,,,,,,,,,0.8437,1,,,,,,,,,,,,,,z,1,0.8437,,,,,,,,-0.014814758,-0.364814843,0,0,0,,0,13,13,92,1,PAIMS,LB,old,z,./images/PAIMSLB.png,,,,,,,,,,,,,,,,,,,,,,,,,,,,,,,,,,,,
,,,,,,,,,,,,,,,,,6108696dc9d16e886749e495,20,2022-02-12_13h49.52.708,lexical_decision_task_DD_L3,2021.2.3,Win32,59.74072525,,,,,,,,,,,0.8434,1,,,,,,,,,,,,,,m,1,0.8434,,,,,,,,-0.014814758,-0.364814843,0,0,0,,0,14,14,53,1,CARPET,HB,old,m,./images/CARPETHB.png,,,,,,,,,,,,,,,,,,,,,,,,,,,,,,,,,,,,
,,,,,,,,,,,,,,,,,6108696dc9d16e886749e495,20,2022-02-12_13h49.52.708,lexical_decision_task_DD_L3,2021.2.3,Win32,59.74072525,,,,,,,,,,,1.0315,0,,,,,,,,,,,,,,m,0,1.0315,,,,,,,,-0.014814758,-0.364814843,0,0,0,,0,15,15,140,1,DOVET,LB,old,z,./images/DOVETLB.png,,,,,,,,,,,,,,,,,,,,,,,,,,,,,,,,,,,,
,,,,,,,,,,,,,,,,,6108696dc9d16e886749e495,20,2022-02-12_13h49.52.708,lexical_decision_task_DD_L3,2021.2.3,Win32,59.74072525,,,,,,,,,,,0.6744,1,,,,,,,,,,,,,,z,1,0.6744,,,,,,,,-0.014814758,-0.364814843,0,0,0,,0,16,16,105,1,MOKER,C,old,z,./images/MOKER.png,,,,,,,,,,,,,,,,,,,,,,,,,,,,,,,,,,,,
,,,,,,,,,,,,,,,,,6108696dc9d16e886749e495,20,2022-02-12_13h49.52.708,lexical_decision_task_DD_L3,2021.2.3,Win32,59.74072525,,,,,,,,,,,0.7775,1,,,,,,,,,,,,,,m,1,0.7775,,,,,,,,-0.014814758,-0.364814843,0,0,0,,0,17,17,64,1,JELLY,C,old,m,./images/JELLY.png,,,,,,,,,,,,,,,,,,,,,,,,,,,,,,,,,,,,
,,,,,,,,,,,,,,,,,6108696dc9d16e886749e495,20,2022-02-12_13h49.52.708,lexical_decision_task_DD_L3,2021.2.3,Win32,59.74072525,,,,,,,,,,,0.6545,1,,,,,,,,,,,,,,m,1,0.6545,,,,,,,,-0.014814758,-0.364814843,0,0,0,,0,18,18,37,1,BIRTH,C,old,m,./images/BIRTH.png,,,,,,,,,,,,,,,,,,,,,,,,,,,,,,,,,,,,
,,,,,,,,,,,,,,,,,6108696dc9d16e886749e495,20,2022-02-12_13h49.52.708,lexical_decision_task_DD_L3,2021.2.3,Win32,59.74072525,,,,,,,,,,,0.6295,1,,,,,,,,,,,,,,m,1,0.6295,,,,,,,,-0.014814758,-0.364814843,0,0,0,,0,19,19,66,1,SWEAT,LB,old,m,./images/SWEATLB.png,,,,,,,,,,,,,,,,,,,,,,,,,,,,,,,,,,,,
,,,,,,,,,,,,,,,,,6108696dc9d16e886749e495,20,2022-02-12_13h49.52.708,lexical_decision_task_DD_L3,2021.2.3,Win32,59.74072525,,,,,,,,,,,0.805,1,,,,,,,,,,,,,,m,1,0.805,,,,,,,,-0.014814758,-0.364814843,0,0,0,,0,20,20,81,1,POODLE,LB,old,m,./images/POODLELB.png,,,,,,,,,,,,,,,,,,,,,,,,,,,,,,,,,,,,
,,,,,,,,,,,,,,,,,6108696dc9d16e886749e495,20,2022-02-12_13h49.52.708,lexical_decision_task_DD_L3,2021.2.3,Win32,59.74072525,,,,,,,,,,,0.8178,1,,,,,,,,,,,,,,z,1,0.8178,,,,,,,,-0.014814758,-0.364814843,0,0,0,,0,21,21,165,1,TROWN,C,old,z,./images/TROWN.png,,,,,,,,,,,,,,,,,,,,,,,,,,,,,,,,,,,,
,,,,,,,,,,,,,,,,,6108696dc9d16e886749e495,20,2022-02-12_13h49.52.708,lexical_decision_task_DD_L3,2021.2.3,Win32,59.74072525,,,,,,,,,,,1.1002,1,,,,,,,,,,,,,,m,1,1.1002,,,,,,,,-0.014814758,-0.364814843,0,0,0,,0,22,22,13,1,MOTOR,C,old,m,./images/MOTOR.png,,,,,,,,,,,,,,,,,,,,,,,,,,,,,,,,,,,,
,,,,,,,,,,,,,,,,,6108696dc9d16e886749e495,20,2022-02-12_13h49.52.708,lexical_decision_task_DD_L3,2021.2.3,Win32,59.74072525,,,,,,,,,,,1.0608,1,,,,,,,,,,,,,,z,1,1.0608,,,,,,,,-0.014814758,-0.364814843,0,0,0,,0,23,23,124,1,TUNCH,HB,old,z,./images/TUNCHHB.png,,,,,,,,,,,,,,,,,,,,,,,,,,,,,,,,,,,,
,,,,,,,,,,,,,,,,,6108696dc9d16e886749e495,20,2022-02-12_13h49.52.708,lexical_decision_task_DD_L3,2021.2.3,Win32,59.74072525,,,,,,,,,,,0.7363,1,,,,,,,,,,,,,,z,1,0.7363,,,,,,,,-0.014814758,-0.364814843,0,0,0,,0,24,24,143,1,MONGS,LB,old,z,./images/MONGSLB.png,,,,,,,,,,,,,,,,,,,,,,,,,,,,,,,,,,,,
,,,,,,,,,,,,,,,,,6108696dc9d16e886749e495,20,2022-02-12_13h49.52.708,lexical_decision_task_DD_L3,2021.2.3,Win32,59.74072525,,,,,,,,,,,1.0782,0,,,,,,,,,,,,,,m,0,1.0782,,,,,,,,-0.014814758,-0.364814843,0,0,0,,0,25,25,128,1,GRIFT,LB,old,z,./images/GRIFTLB.png,,,,,,,,,,,,,,,,,,,,,,,,,,,,,,,,,,,,
,,,,,,,,,,,,,,,,,6108696dc9d16e886749e495,20,2022-02-12_13h49.52.708,lexical_decision_task_DD_L3,2021.2.3,Win32,59.74072525,,,,,,,,,,,2.0172,1,,,,,,,,,,,,,,m,1,2.0172,,,,,,,,-0.014814758,-0.364814843,0,0,0,,0,26,26,43,1,MOSQUE,C,old,m,./images/MOSQUE.png,,,,,,,,,,,,,,,,,,,,,,,,,,,,,,,,,,,,
,,,,,,,,,,,,,,,,,6108696dc9d16e886749e495,20,2022-02-12_13h49.52.708,lexical_decision_task_DD_L3,2021.2.3,Win32,59.74072525,,,,,,,,,,,1.9482,1,,,,,,,,,,,,,,m,1,1.9482,,,,,,,,-0.014814758,-0.364814843,0,0,0,,0,27,27,67,1,SAILOR,C,old,m,./images/SAILOR.png,,,,,,,,,,,,,,,,,,,,,,,,,,,,,,,,,,,,
,,,,,,,,,,,,,,,,,6108696dc9d16e886749e495,20,2022-02-12_13h49.52.708,lexical_decision_task_DD_L3,2021.2.3,Win32,59.74072525,,,,,,,,,,,0.9007,1,,,,,,,,,,,,,,m,1,0.9007,,,,,,,,-0.014814758,-0.364814843,0,0,0,,0,28,28,31,1,QUILL,C,old,m,./images/QUILL.png,,,,,,,,,,,,,,,,,,,,,,,,,,,,,,,,,,,,
,,,,,,,,,,,,,,,,,6108696dc9d16e886749e495,20,2022-02-12_13h49.52.708,lexical_decision_task_DD_L3,2021.2.3,Win32,59.74072525,,,,,,,,,,,0.6141,1,,,,,,,,,,,,,,m,1,0.6141,,,,,,,,-0.014814758,-0.364814843,0,0,0,,0,29,29,61,1,CANDLE,C,old,m,./images/CANDLE.png,,,,,,,,,,,,,,,,,,,,,,,,,,,,,,,,,,,,
,,,,,,,,,,,,,,,,,6108696dc9d16e886749e495,20,2022-02-12_13h49.52.708,lexical_decision_task_DD_L3,2021.2.3,Win32,59.74072525,,,,,,,,,,,0.8482,1,,,,,,,,,,,,,,z,1,0.8482,,,,,,,,-0.014814758,-0.364814843,0,0,0,,0,30,30,117,1,STEEG,C,old,z,./images/STEEG.png,,,,,,,,,,,,,,,,,,,,,,,,,,,,,,,,,,,,
,,,,,,,,,,,,,,,,,6108696dc9d16e886749e495,20,2022-02-12_13h49.52.708,lexical_decision_task_DD_L3,2021.2.3,Win32,59.74072525,,,,,,,,,,,0.7807,1,,,,,,,,,,,,,,m,1,0.7807,,,,,,,,-0.014814758,-0.364814843,0,0,0,,0,31,31,10,1,BELLY,C,old,m,./images/BELLY.png,,,,,,,,,,,,,,,,,,,,,,,,,,,,,,,,,,,,
,,,,,,,,,,,,,,,,,6108696dc9d16e886749e495,20,2022-02-12_13h49.52.708,lexical_decision_task_DD_L3,2021.2.3,Win32,59.74072525,,,,,,,,,,,0.7873,1,,,,,,,,,,,,,,m,1,0.7873,,,,,,,,-0.014814758,-0.364814843,0,0,0,,0,32,32,26,1,SMOKER,HB,old,m,./images/SMOKERHB.png,,,,,,,,,,,,,,,,,,,,,,,,,,,,,,,,,,,,
,,,,,,,,,,,,,,,,,6108696dc9d16e886749e495,20,2022-02-12_13h49.52.708,lexical_decision_task_DD_L3,2021.2.3,Win32,59.74072525,,,,,,,,,,,0.7768,1,,,,,,,,,,,,,,z,1,0.7768,,,,,,,,-0.014814758,-0.364814843,0,0,0,,0,33,33,153,1,CLUPS,C,old,z,./images/CLUPS.png,,,,,,,,,,,,,,,,,,,,,,,,,,,,,,,,,,,,
,,,,,,,,,,,,,,,,,6108696dc9d16e886749e495,20,2022-02-12_13h49.52.708,lexical_decision_task_DD_L3,2021.2.3,Win32,59.74072525,,,,,,,,,,,6.4282,1,,,,,,,,,,,,,,m,1,6.4282,,,,,,,,-0.014814758,-0.364814843,0,0,0,,0,34,34,45,1,KITTEN,LB,old,m,./images/KITTENLB.png,,,,,,,,,,,,,,,,,,,,,,,,,,,,,,,,,,,,
,,,,,,,,,,,,,,,,,6108696dc9d16e886749e495,20,2022-02-12_13h49.52.708,lexical_decision_task_DD_L3,2021.2.3,Win32,59.74072525,,,,,,,,,,,1.3569,1,,,,,,,,,,,,,,m,1,1.3569,,,,,,,,-0.014814758,-0.364814843,0,0,0,,0,35,35,48,1,SPORT,LB,old,m,./images/SPORTLB.png,,,,,,,,,,,,,,,,,,,,,,,,,,,,,,,,,,,,
,,,,,,,,,,,,,,,,,6108696dc9d16e886749e495,20,2022-02-12_13h49.52.708,lexical_decision_task_DD_L3,2021.2.3,Win32,59.74072525,,,,,,,,,,,0.7187,1,,,,,,,,,,,,,,z,1,0.7187,,,,,,,,-0.014814758,-0.364814843,0,0,0,,0,36,36,126,1,GUELS,C,old,z,./images/GUELS.png,,,,,,,,,,,,,,,,,,,,,,,,,,,,,,,,,,,,
,,,,,,,,,,,,,,,,,6108696dc9d16e886749e495,20,2022-02-12_13h49.52.708,lexical_decision_task_DD_L3,2021.2.3,Win32,59.74072525,,,,,,,,,,,0.6467,1,,,,,,,,,,,,,,z,1,0.6467,,,,,,,,-0.014814758,-0.364814843,0,0,0,,0,37,37,145,1,LAMEL,HB,old,z,./images/LAMELHB.png,,,,,,,,,,,,,,,,,,,,,,,,,,,,,,,,,,,,
,,,,,,,,,,,,,,,,,6108696dc9d16e886749e495,20,2022-02-12_13h49.52.708,lexical_decision_task_DD_L3,2021.2.3,Win32,59.74072525,,,,,,,,,,,0.7792,1,,,,,,,,,,,,,,z,1,0.7792,,,,,,,,-0.014814758,-0.364814843,0,0,0,,0,38,38,156,1,HIXES,C,old,z,./images/HIXES.png,,,,,,,,,,,,,,,,,,,,,,,,,,,,,,,,,,,,
,,,,,,,,,,,,,,,,,6108696dc9d16e886749e495,20,2022-02-12_13h49.52.708,lexical_decision_task_DD_L3,2021.2.3,Win32,59.74072525,,,,,,,,,,,0.8811,0,,,,,,,,,,,,,,z,0,0.8811,,,,,,,,-0.014814758,-0.364814843,0,0,0,,0,39,39,17,1,SKIING,HB,old,m,./images/SKIINGHB.png,,,,,,,,,,,,,,,,,,,,,,,,,,,,,,,,,,,,
,,,,,,,,,,,,,,,,,6108696dc9d16e886749e495,20,2022-02-12_13h49.52.708,lexical_decision_task_DD_L3,2021.2.3,Win32,59.74072525,,,,,,,,,,,0.803,1,,,,,,,,,,,,,,m,1,0.803,,,,,,,,-0.014814758,-0.364814843,0,0,0,,0,40,40,34,1,CANYON,C,old,m,./images/CANYON.png,,,,,,,,,,,,,,,,,,,,,,,,,,,,,,,,,,,,
,,,,,,,,,,,,,,,,,6108696dc9d16e886749e495,20,2022-02-12_13h49.52.708,lexical_decision_task_DD_L3,2021.2.3,Win32,59.74072525,,,,,,,,,,,0.7337,1,,,,,,,,,,,,,,z,1,0.7337,,,,,,,,0.031481509,-0.387963046,1,0,0,,0,41,41,102,1,DULLE,C,old,z,./images/DULLE.png,break_done_button,,,,,,,,,,,,,,,,,,,,,,,,,,,,,,,,,,,
,,,,,,,,,,,,,,,,,6108696dc9d16e886749e495,20,2022-02-12_13h49.52.708,lexical_decision_task_DD_L3,2021.2.3,Win32,59.74072525,,,,,,,,,,,1.7292,1,,,,,,,,,,,,,,m,1,1.7292,,,,,,,,0.031481509,-0.387963046,0,0,0,,0,42,42,78,1,LITTER,LB,old,m,./images/LITTERLB.png,,,,,,,,,,,,,,,,,,,,,,,,,,,,,,,,,,,,
,,,,,,,,,,,,,,,,,6108696dc9d16e886749e495,20,2022-02-12_13h49.52.708,lexical_decision_task_DD_L3,2021.2.3,Win32,59.74072525,,,,,,,,,,,1.5524,1,,,,,,,,,,,,,,z,1,1.5524,,,,,,,,0.031481509,-0.387963046,0,0,0,,0,43,43,154,1,THINT,HB,old,z,./images/THINTHB.png,,,,,,,,,,,,,,,,,,,,,,,,,,,,,,,,,,,,
,,,,,,,,,,,,,,,,,6108696dc9d16e886749e495,20,2022-02-12_13h49.52.708,lexical_decision_task_DD_L3,2021.2.3,Win32,59.74072525,,,,,,,,,,,0.8092,1,,,,,,,,,,,,,,m,1,0.8092,,,,,,,,0.031481509,-0.387963046,0,0,0,,0,44,44,29,1,CRUMB,HB,old,m,./images/CRUMBHB.png,,,,,,,,,,,,,,,,,,,,,,,,,,,,,,,,,,,,
,,,,,,,,,,,,,,,,,6108696dc9d16e886749e495,20,2022-02-12_13h49.52.708,lexical_decision_task_DD_L3,2021.2.3,Win32,59.74072525,,,,,,,,,,,0.7412,1,,,,,,,,,,,,,,m,1,0.7412,,,,,,,,0.031481509,-0.387963046,0,0,0,,0,45,45,3,1,FINGER,LB,old,m,./images/FINGERLB.png,,,,,,,,,,,,,,,,,,,,,,,,,,,,,,,,,,,,
,,,,,,,,,,,,,,,,,6108696dc9d16e886749e495,20,2022-02-12_13h49.52.708,lexical_decision_task_DD_L3,2021.2.3,Win32,59.74072525,,,,,,,,,,,1.7631,1,,,,,,,,,,,,,,z,1,1.7631,,,,,,,,0.031481509,-0.387963046,0,0,0,,0,46,46,87,1,TRING,C,old,z,./images/TRING.png,,,,,,,,,,,,,,,,,,,,,,,,,,,,,,,,,,,,
,,,,,,,,,,,,,,,,,6108696dc9d16e886749e495,20,2022-02-12_13h49.52.708,lexical_decision_task_DD_L3,2021.2.3,Win32,59.74072525,,,,,,,,,,,1.507,1,,,,,,,,,,,,,,z,1,1.507,,,,,,,,0.031481509,-0.387963046,0,0,0,,0,47,47,118,1,BAVEL,HB,old,z,./images/BAVELHB.png,,,,,,,,,,,,,,,,,,,,,,,,,,,,,,,,,,,,
,,,,,,,,,,,,,,,,,6108696dc9d16e886749e495,20,2022-02-12_13h49.52.708,lexical_decision_task_DD_L3,2021.2.3,Win32,59.74072525,,,,,,,,,,,0.4775,1,,,,,,,,,,,,,,z,1,0.4775,,,,,,,,0.031481509,-0.387963046,0,0,0,,0,48,48,135,1,JOODY,C,old,z,./images/JOODY.png,,,,,,,,,,,,,,,,,,,,,,,,,,,,,,,,,,,,
,,,,,,,,,,,,,,,,,6108696dc9d16e886749e495,20,2022-02-12_13h49.52.708,lexical_decision_task_DD_L3,2021.2.3,Win32,59.74072525,,,,,,,,,,,0.9357,1,,,,,,,,,,,,,,z,1,0.9357,,,,,,,,0.031481509,-0.387963046,0,0,0,,0,49,49,100,1,DRIBS,HB,old,z,./images/DRIBSHB.png,,,,,,,,,,,,,,,,,,,,,,,,,,,,,,,,,,,,
,,,,,,,,,,,,,,,,,6108696dc9d16e886749e495,20,2022-02-12_13h49.52.708,lexical_decision_task_DD_L3,2021.2.3,Win32,59.74072525,,,,,,,,,,,0.9061,0,,,,,,,,,,,,,,z,0,0.9061,,,,,,,,0.031481509,-0.387963046,0,0,0,,0,50,50,20,1,CRADLE,HB,old,m,./images/CRADLEHB.png,,,,,,,,,,,,,,,,,,,,,,,,,,,,,,,,,,,,
,,,,,,,,,,,,,,,,,6108696dc9d16e886749e495,20,2022-02-12_13h49.52.708,lexical_decision_task_DD_L3,2021.2.3,Win32,59.74072525,,,,,,,,,,,0.7188,1,,,,,,,,,,,,,,z,1,0.7188,,,,,,,,0.031481509,-0.387963046,0,0,0,,0,51,51,162,1,LEICH,C,old,z,./images/LEICH.png,,,,,,,,,,,,,,,,,,,,,,,,,,,,,,,,,,,,
,,,,,,,,,,,,,,,,,6108696dc9d16e886749e495,20,2022-02-12_13h49.52.708,lexical_decision_task_DD_L3,2021.2.3,Win32,59.74072525,,,,,,,,,,,0.73,1,,,,,,,,,,,,,,z,1,0.73,,,,,,,,0.031481509,-0.387963046,0,0,0,,0,52,52,129,1,PRANS,C,old,z,./images/PRANS.png,,,,,,,,,,,,,,,,,,,,,,,,,,,,,,,,,,,,
,,,,,,,,,,,,,,,,,6108696dc9d16e886749e495,20,2022-02-12_13h49.52.708,lexical_decision_task_DD_L3,2021.2.3,Win32,59.74072525,,,,,,,,,,,0.3772,1,,,,,,,,,,,,,,z,1,0.3772,,,,,,,,0.031481509,-0.387963046,0,0,0,,0,53,53,91,1,SHENS,HB,old,z,./images/SHENSHB.png,,,,,,,,,,,,,,,,,,,,,,,,,,,,,,,,,,,,
,,,,,,,,,,,,,,,,,6108696dc9d16e886749e495,20,2022-02-12_13h49.52.708,lexical_decision_task_DD_L3,2021.2.3,Win32,59.74072525,,,,,,,,,,,1.4589,1,,,,,,,,,,,,,,z,1,1.4589,,,,,,,,0.031481509,-0.387963046,0,0,0,,0,54,54,89,1,DRIEK,LB,old,z,./images/DRIEKLB.png,,,,,,,,,,,,,,,,,,,,,,,,,,,,,,,,,,,,
,,,,,,,,,,,,,,,,,6108696dc9d16e886749e495,20,2022-02-12_13h49.52.708,lexical_decision_task_DD_L3,2021.2.3,Win32,59.74072525,,,,,,,,,,,0.9026,1,,,,,,,,,,,,,,z,1,0.9026,,,,,,,,0.031481509,-0.387963046,0,0,0,,0,55,55,142,1,PLASK,HB,old,z,./images/PLASKHB.png,,,,,,,,,,,,,,,,,,,,,,,,,,,,,,,,,,,,
,,,,,,,,,,,,,,,,,6108696dc9d16e886749e495,20,2022-02-12_13h49.52.708,lexical_decision_task_DD_L3,2021.2.3,Win32,59.74072525,,,,,,,,,,,0.7471,1,,,,,,,,,,,,,,z,1,0.7471,,,,,,,,0.031481509,-0.387963046,0,0,0,,0,56,56,146,1,MOOST,LB,old,z,./images/MOOSTLB.png,,,,,,,,,,,,,,,,,,,,,,,,,,,,,,,,,,,,
,,,,,,,,,,,,,,,,,6108696dc9d16e886749e495,20,2022-02-12_13h49.52.708,lexical_decision_task_DD_L3,2021.2.3,Win32,59.74072525,,,,,,,,,,,1.9084,1,,,,,,,,,,,,,,z,1,1.9084,,,,,,,,0.031481509,-0.387963046,0,0,0,,0,57,57,163,1,GAMBA,HB,old,z,./images/GAMBAHB.png,,,,,,,,,,,,,,,,,,,,,,,,,,,,,,,,,,,,
,,,,,,,,,,,,,,,,,6108696dc9d16e886749e495,20,2022-02-12_13h49.52.708,lexical_decision_task_DD_L3,2021.2.3,Win32,59.74072525,,,,,,,,,,,0.7591,1,,,,,,,,,,,,,,m,1,0.7591,,,,,,,,0.031481509,-0.387963046,0,0,0,,0,58,58,5,1,PASTA,HB,old,m,./images/PASTAHB.png,,,,,,,,,,,,,,,,,,,,,,,,,,,,,,,,,,,,
,,,,,,,,,,,,,,,,,6108696dc9d16e886749e495,20,2022-02-12_13h49.52.708,lexical_decision_task_DD_L3,2021.2.3,Win32,59.74072525,,,,,,,,,,,0.8457,1,,,,,,,,,,,,,,z,1,0.8457,,,,,,,,0.031481509,-0.387963046,0,0,0,,0,59,59,144,1,NAIRY,C,old,z,./images/NAIRY.png,,,,,,,,,,,,,,,,,,,,,,,,,,,,,,,,,,,,
,,,,,,,,,,,,,,,,,6108696dc9d16e886749e495,20,2022-02-12_13h49.52.708,lexical_decision_task_DD_L3,2021.2.3,Win32,59.74072525,,,,,,,,,,,6.2792,1,,,,,,,,,,,,,,m,1,6.2792,,,,,,,,0.031481509,-0.387963046,0,0,0,,0,60,60,63,1,MIRROR,LB,old,m,./images/MIRRORLB.png,,,,,,,,,,,,,,,,,,,,,,,,,,,,,,,,,,,,
,,,,,,,,,,,,,,,,,6108696dc9d16e886749e495,20,2022-02-12_13h49.52.708,lexical_decision_task_DD_L3,2021.2.3,Win32,59.74072525,,,,,,,,,,,3.5918,1,,,,,,,,,,,,,,z,1,3.5918,,,,,,,,0.031481509,-0.387963046,0,0,0,,0,61,61,93,1,SMONE,C,old,z,./images/SMONE.png,,,,,,,,,,,,,,,,,,,,,,,,,,,,,,,,,,,,
,,,,,,,,,,,,,,,,,6108696dc9d16e886749e495,20,2022-02-12_13h49.52.708,lexical_decision_task_DD_L3,2021.2.3,Win32,59.74072525,,,,,,,,,,,1.8992,1,,,,,,,,,,,,,,z,1,1.8992,,,,,,,,0.031481509,-0.387963046,0,0,0,,0,62,62,121,1,CEERS,HB,old,z,./images/CEERSHB.png,,,,,,,,,,,,,,,,,,,,,,,,,,,,,,,,,,,,
,,,,,,,,,,,,,,,,,6108696dc9d16e886749e495,20,2022-02-12_13h49.52.708,lexical_decision_task_DD_L3,2021.2.3,Win32,59.74072525,,,,,,,,,,,2.7161,1,,,,,,,,,,,,,,z,1,2.7161,,,,,,,,0.031481509,-0.387963046,0,0,0,,0,63,63,150,1,NOOLS,C,old,z,./images/NOOLS.png,,,,,,,,,,,,,,,,,,,,,,,,,,,,,,,,,,,,
,,,,,,,,,,,,,,,,,6108696dc9d16e886749e495,20,2022-02-12_13h49.52.708,lexical_decision_task_DD_L3,2021.2.3,Win32,59.74072525,,,,,,,,,,,1.0854,1,,,,,,,,,,,,,,m,1,1.0854,,,,,,,,0.031481509,-0.387963046,0,0,0,,0,64,64,42,1,FOLDER,LB,old,m,./images/FOLDERLB.png,,,,,,,,,,,,,,,,,,,,,,,,,,,,,,,,,,,,
,,,,,,,,,,,,,,,,,6108696dc9d16e886749e495,20,2022-02-12_13h49.52.708,lexical_decision_task_DD_L3,2021.2.3,Win32,59.74072525,,,,,,,,,,,0.6067,1,,,,,,,,,,,,,,m,1,0.6067,,,,,,,,0.031481509,-0.387963046,0,0,0,,0,65,65,30,1,STORM,LB,old,m,./images/STORMLB.png,,,,,,,,,,,,,,,,,,,,,,,,,,,,,,,,,,,,
,,,,,,,,,,,,,,,,,6108696dc9d16e886749e495,20,2022-02-12_13h49.52.708,lexical_decision_task_DD_L3,2021.2.3,Win32,59.74072525,,,,,,,,,,,1.1788,1,,,,,,,,,,,,,,z,1,1.1788,,,,,,,,0.031481509,-0.387963046,0,0,0,,0,66,66,139,1,BLEAR,HB,old,z,./images/BLEARHB.png,,,,,,,,,,,,,,,,,,,,,,,,,,,,,,,,,,,,
,,,,,,,,,,,,,,,,,6108696dc9d16e886749e495,20,2022-02-12_13h49.52.708,lexical_decision_task_DD_L3,2021.2.3,Win32,59.74072525,,,,,,,,,,,1.3483,1,,,,,,,,,,,,,,z,1,1.3483,,,,,,,,0.031481509,-0.387963046,0,0,0,,0,67,67,131,1,NACES,LB,old,z,./images/NACESLB.png,,,,,,,,,,,,,,,,,,,,,,,,,,,,,,,,,,,,
,,,,,,,,,,,,,,,,,6108696dc9d16e886749e495,20,2022-02-12_13h49.52.708,lexical_decision_task_DD_L3,2021.2.3,Win32,59.74072525,,,,,,,,,,,1.1661,0,,,,,,,,,,,,,,m,0,1.1661,,,,,,,,0.031481509,-0.387963046,0,0,0,,0,68,68,99,1,BACKY,C,old,z,./images/BACKY.png,,,,,,,,,,,,,,,,,,,,,,,,,,,,,,,,,,,,
,,,,,,,,,,,,,,,,,6108696dc9d16e886749e495,20,2022-02-12_13h49.52.708,lexical_decision_task_DD_L3,2021.2.3,Win32,59.74072525,,,,,,,,,,,0.8095,1,,,,,,,,,,,,,,m,1,0.8095,,,,,,,,0.031481509,-0.387963046,0,0,0,,0,69,69,54,1,TRIPOD,LB,old,m,./images/TRIPODLB.png,,,,,,,,,,,,,,,,,,,,,,,,,,,,,,,,,,,,
,,,,,,,,,,,,,,,,,6108696dc9d16e886749e495,20,2022-02-12_13h49.52.708,lexical_decision_task_DD_L3,2021.2.3,Win32,59.74072525,,,,,,,,,,,1.9324,1,,,,,,,,,,,,,,z,1,1.9324,,,,,,,,0.031481509,-0.387963046,0,0,0,,0,70,70,166,1,SHORY,HB,old,z,./images/SHORYHB.png,,,,,,,,,,,,,,,,,,,,,,,,,,,,,,,,,,,,
,,,,,,,,,,,,,,,,,6108696dc9d16e886749e495,20,2022-02-12_13h49.52.708,lexical_decision_task_DD_L3,2021.2.3,Win32,59.74072525,,,,,,,,,,,0.9614,1,,,,,,,,,,,,,,z,1,0.9614,,,,,,,,0.031481509,-0.387963046,0,0,0,,0,71,71,84,1,HAXES,C,old,z,./images/HAXES.png,,,,,,,,,,,,,,,,,,,,,,,,,,,,,,,,,,,,
,,,,,,,,,,,,,,,,,6108696dc9d16e886749e495,20,2022-02-12_13h49.52.708,lexical_decision_task_DD_L3,2021.2.3,Win32,59.74072525,,,,,,,,,,,1.0083,1,,,,,,,,,,,,,,m,1,1.0083,,,,,,,,0.031481509,-0.387963046,0,0,0,,0,72,72,60,1,TWINS,LB,old,m,./images/TWINSLB.png,,,,,,,,,,,,,,,,,,,,,,,,,,,,,,,,,,,,
,,,,,,,,,,,,,,,,,6108696dc9d16e886749e495,20,2022-02-12_13h49.52.708,lexical_decision_task_DD_L3,2021.2.3,Win32,59.74072525,,,,,,,,,,,0.7569,1,,,,,,,,,,,,,,m,1,0.7569,,,,,,,,0.031481509,-0.387963046,0,0,0,,0,73,73,62,1,PURSE,HB,old,m,./images/PURSEHB.png,,,,,,,,,,,,,,,,,,,,,,,,,,,,,,,,,,,,
,,,,,,,,,,,,,,,,,6108696dc9d16e886749e495,20,2022-02-12_13h49.52.708,lexical_decision_task_DD_L3,2021.2.3,Win32,59.74072525,,,,,,,,,,,2.1205,1,,,,,,,,,,,,,,m,1,2.1205,,,,,,,,0.031481509,-0.387963046,0,0,0,,0,74,74,9,1,RHINO,LB,old,m,./images/RHINOLB.png,,,,,,,,,,,,,,,,,,,,,,,,,,,,,,,,,,,,
,,,,,,,,,,,,,,,,,6108696dc9d16e886749e495,20,2022-02-12_13h49.52.708,lexical_decision_task_DD_L3,2021.2.3,Win32,59.74072525,,,,,,,,,,,1.5222,1,,,,,,,,,,,,,,z,1,1.5222,,,,,,,,0.031481509,-0.387963046,0,0,0,,0,75,75,85,1,CHULK,HB,old,z,./images/CHULKHB.png,,,,,,,,,,,,,,,,,,,,,,,,,,,,,,,,,,,,
,,,,,,,,,,,,,,,,,6108696dc9d16e886749e495,20,2022-02-12_13h49.52.708,lexical_decision_task_DD_L3,2021.2.3,Win32,59.74072525,,,,,,,,,,,1.8556,1,,,,,,,,,,,,,,m,1,1.8556,,,,,,,,0.031481509,-0.387963046,0,0,0,,0,76,76,6,1,SQUARE,LB,old,m,./images/SQUARELB.png,,,,,,,,,,,,,,,,,,,,,,,,,,,,,,,,,,,,
,,,,,,,,,,,,,,,,,6108696dc9d16e886749e495,20,2022-02-12_13h49.52.708,lexical_decision_task_DD_L3,2021.2.3,Win32,59.74072525,,,,,,,,,,,0.8053,1,,,,,,,,,,,,,,m,1,0.8053,,,,,,,,0.031481509,-0.387963046,0,0,0,,0,77,77,28,1,FALCON,C,old,m,./images/FALCON.png,,,,,,,,,,,,,,,,,,,,,,,,,,,,,,,,,,,,
,,,,,,,,,,,,,,,,,6108696dc9d16e886749e495,20,2022-02-12_13h49.52.708,lexical_decision_task_DD_L3,2021.2.3,Win32,59.74072525,,,,,,,,,,,0.7639,1,,,,,,,,,,,,,,z,1,0.7639,,,,,,,,0.031481509,-0.387963046,0,0,0,,0,78,78,122,1,BLOOT,LB,old,z,./images/BLOOTLB.png,,,,,,,,,,,,,,,,,,,,,,,,,,,,,,,,,,,,
,,,,,,,,,,,,,,,,,6108696dc9d16e886749e495,20,2022-02-12_13h49.52.708,lexical_decision_task_DD_L3,2021.2.3,Win32,59.74072525,,,,,,,,,,,1.9927,1,,,,,,,,,,,,,,m,1,1.9927,,,,,,,,0.031481509,-0.387963046,0,0,0,,0,79,79,14,1,PICKLE,HB,old,m,./images/PICKLEHB.png,,,,,,,,,,,,,,,,,,,,,,,,,,,,,,,,,,,,
,,,,,,,,,,,,,,,,,6108696dc9d16e886749e495,20,2022-02-12_13h49.52.708,lexical_decision_task_DD_L3,2021.2.3,Win32,59.74072525,,,,,,,,,,,2.5726,1,,,,,,,,,,,,,,m,1,2.5726,,,,,,,,0.031481509,-0.387963046,0,0,0,,0,80,80,75,1,GRAIN,LB,old,m,./images/GRAINLB.png,,,,,,,,,,,,,,,,,,,,,,,,,,,,,,,,,,,,
,,,,,,,,,,,,,,,,,6108696dc9d16e886749e495,20,2022-02-12_13h49.52.708,lexical_decision_task_DD_L3,2021.2.3,Win32,59.74072525,,,,,,,,,,,1.1651,1,,,,,,,,,,,,,,z,1,1.1651,,,,,,,,0.031481509,-0.387963046,0,0,0,,0,81,81,94,1,BLANS,HB,old,z,./images/BLANSHB.png,,,,,,,,,,,,,,,,,,,,,,,,,,,,,,,,,,,,
,,,,,,,,,,,,,,,,,6108696dc9d16e886749e495,20,2022-02-12_13h49.52.708,lexical_decision_task_DD_L3,2021.2.3,Win32,59.74072525,,,,,,,,,,,6.0385,1,,,,,,,,,,,,,,m,1,6.0385,,,,,,,,0.031481509,-0.387963046,0,0,0,,0,82,82,74,1,CEMENT,HB,old,m,./images/CEMENTHB.png,,,,,,,,,,,,,,,,,,,,,,,,,,,,,,,,,,,,
,,,,,,,,,,,,,,,,,6108696dc9d16e886749e495,20,2022-02-12_13h49.52.708,lexical_decision_task_DD_L3,2021.2.3,Win32,59.74072525,,,,,,,,,,,1.0737,1,,,,,,,,,,,,,,m,1,1.0737,,,,,,,,0.15,-0.418518575,1,0,0,,0,83,83,16,1,PENCE,C,old,m,./images/PENCE.png,break_done_button,,,,,,,,,,,,,,,,,,,,,,,,,,,,,,,,,,,
,,,,,,,,,,,,,,,,,6108696dc9d16e886749e495,20,2022-02-12_13h49.52.708,lexical_decision_task_DD_L3,2021.2.3,Win32,59.74072525,,,,,,,,,,,1.3021,1,,,,,,,,,,,,,,z,1,1.3021,,,,,,,,0.150925954,-0.417592621,0,0,0,,0,84,84,137,1,JOOST,LB,old,z,./images/JOOSTLB.png,,,,,,,,,,,,,,,,,,,,,,,,,,,,,,,,,,,,
,,,,,,,,,,,,,,,,,6108696dc9d16e886749e495,20,2022-02-12_13h49.52.708,lexical_decision_task_DD_L3,2021.2.3,Win32,59.74072525,,,,,,,,,,,0.9429,1,,,,,,,,,,,,,,z,1,0.9429,,,,,,,,0.150925954,-0.417592621,0,0,0,,0,85,85,114,1,RIKES,C,old,z,./images/RIKES.png,,,,,,,,,,,,,,,,,,,,,,,,,,,,,,,,,,,,
,,,,,,,,,,,,,,,,,6108696dc9d16e886749e495,20,2022-02-12_13h49.52.708,lexical_decision_task_DD_L3,2021.2.3,Win32,59.74072525,,,,,,,,,,,0.9196,1,,,,,,,,,,,,,,m,1,0.9196,,,,,,,,0.150925954,-0.417592621,0,0,0,,0,86,86,35,1,PEACH,HB,old,m,./images/PEACHHB.png,,,,,,,,,,,,,,,,,,,,,,,,,,,,,,,,,,,,
,,,,,,,,,,,,,,,,,6108696dc9d16e886749e495,20,2022-02-12_13h49.52.708,lexical_decision_task_DD_L3,2021.2.3,Win32,59.74072525,,,,,,,,,,,0.9102,1,,,,,,,,,,,,,,m,1,0.9102,,,,,,,,0.150925954,-0.417592621,0,0,0,,0,87,87,47,1,BERRY,HB,old,m,./images/BERRYHB.png,,,,,,,,,,,,,,,,,,,,,,,,,,,,,,,,,,,,
,,,,,,,,,,,,,,,,,6108696dc9d16e886749e495,20,2022-02-12_13h49.52.708,lexical_decision_task_DD_L3,2021.2.3,Win32,59.74072525,,,,,,,,,,,1.337,1,,,,,,,,,,,,,,z,1,1.337,,,,,,,,0.150925954,-0.417592621,0,0,0,,0,88,88,97,1,CHIDS,HB,old,z,./images/CHIDSHB.png,,,,,,,,,,,,,,,,,,,,,,,,,,,,,,,,,,,,
,,,,,,,,,,,,,,,,,6108696dc9d16e886749e495,20,2022-02-12_13h49.52.708,lexical_decision_task_DD_L3,2021.2.3,Win32,59.74072525,,,,,,,,,,,0.7081,1,,,,,,,,,,,,,,m,1,0.7081,,,,,,,,0.150925954,-0.417592621,0,0,0,,0,89,89,39,1,SHELF,LB,old,m,./images/SHELFLB.png,,,,,,,,,,,,,,,,,,,,,,,,,,,,,,,,,,,,
,,,,,,,,,,,,,,,,,6108696dc9d16e886749e495,20,2022-02-12_13h49.52.708,lexical_decision_task_DD_L3,2021.2.3,Win32,59.74072525,,,,,,,,,,,1.6398,1,,,,,,,,,,,,,,z,1,1.6398,,,,,,,,0.150925954,-0.417592621,0,0,0,,0,90,90,88,1,GLUSH,HB,old,z,./images/GLUSHHB.png,,,,,,,,,,,,,,,,,,,,,,,,,,,,,,,,,,,,
,,,,,,,,,,,,,,,,,6108696dc9d16e886749e495,20,2022-02-12_13h49.52.708,lexical_decision_task_DD_L3,2021.2.3,Win32,59.74072525,,,,,,,,,,,0.9842,1,,,,,,,,,,,,,,m,1,0.9842,,,,,,,,0.150925954,-0.417592621,0,0,0,,0,91,91,71,1,PIMPLE,HB,old,m,./images/PIMPLEHB.png,,,,,,,,,,,,,,,,,,,,,,,,,,,,,,,,,,,,
,,,,,,,,,,,,,,,,,6108696dc9d16e886749e495,20,2022-02-12_13h49.52.708,lexical_decision_task_DD_L3,2021.2.3,Win32,59.74072525,,,,,,,,,,,1.0516,1,,,,,,,,,,,,,,m,1,1.0516,,,,,,,,0.150925954,-0.417592621,0,0,0,,0,92,92,21,1,KIDNEY,LB,old,m,./images/KIDNEYLB.png,,,,,,,,,,,,,,,,,,,,,,,,,,,,,,,,,,,,
,,,,,,,,,,,,,,,,,6108696dc9d16e886749e495,20,2022-02-12_13h49.52.708,lexical_decision_task_DD_L3,2021.2.3,Win32,59.74072525,,,,,,,,,,,0.7094,1,,,,,,,,,,,,,,m,1,0.7094,,,,,,,,0.150925954,-0.417592621,0,0,0,,0,93,93,38,1,LADDER,HB,old,m,./images/LADDERHB.png,,,,,,,,,,,,,,,,,,,,,,,,,,,,,,,,,,,,
,,,,,,,,,,,,,,,,,6108696dc9d16e886749e495,20,2022-02-12_13h49.52.708,lexical_decision_task_DD_L3,2021.2.3,Win32,59.74072525,,,,,,,,,,,1.1909,1,,,,,,,,,,,,,,m,1,1.1909,,,,,,,,0.150925954,-0.417592621,0,0,0,,0,94,94,18,1,JAGUAR,LB,old,m,./images/JAGUARLB.png,,,,,,,,,,,,,,,,,,,,,,,,,,,,,,,,,,,,
,,,,,,,,,,,,,,,,,6108696dc9d16e886749e495,20,2022-02-12_13h49.52.708,lexical_decision_task_DD_L3,2021.2.3,Win32,59.74072525,,,,,,,,,,,1.6171,1,,,,,,,,,,,,,,m,1,1.6171,,,,,,,,0.150925954,-0.417592621,0,0,0,,0,95,95,69,1,COOKER,LB,old,m,./images/COOKERLB.png,,,,,,,,,,,,,,,,,,,,,,,,,,,,,,,,,,,,
,,,,,,,,,,,,,,,,,6108696dc9d16e886749e495,20,2022-02-12_13h49.52.708,lexical_decision_task_DD_L3,2021.2.3,Win32,59.74072525,,,,,,,,,,,1.6845,1,,,,,,,,,,,,,,z,1,1.6845,,,,,,,,0.150925954,-0.417592621,0,0,0,,0,96,96,109,1,BURGE,HB,old,z,./images/BURGEHB.png,,,,,,,,,,,,,,,,,,,,,,,,,,,,,,,,,,,,
,,,,,,,,,,,,,,,,,6108696dc9d16e886749e495,20,2022-02-12_13h49.52.708,lexical_decision_task_DD_L3,2021.2.3,Win32,59.74072525,,,,,,,,,,,2.2255,1,,,,,,,,,,,,,,m,1,2.2255,,,,,,,,0.150925954,-0.417592621,0,0,0,,0,97,97,51,1,ONION,LB,old,m,./images/ONIONLB.png,,,,,,,,,,,,,,,,,,,,,,,,,,,,,,,,,,,,
,,,,,,,,,,,,,,,,,6108696dc9d16e886749e495,20,2022-02-12_13h49.52.708,lexical_decision_task_DD_L3,2021.2.3,Win32,59.74072525,,,,,,,,,,,5.9107,1,,,,,,,,,,,,,,z,1,5.9107,,,,,,,,0.150925954,-0.417592621,0,0,0,,0,98,98,90,1,NEAST,C,old,z,./images/NEAST.png,,,,,,,,,,,,,,,,,,,,,,,,,,,,,,,,,,,,
,,,,,,,,,,,,,,,,,6108696dc9d16e886749e495,20,2022-02-12_13h49.52.708,lexical_decision_task_DD_L3,2021.2.3,Win32,59.74072525,,,,,,,,,,,1.4518,1,,,,,,,,,,,,,,z,1,1.4518,,,,,,,,0.150925954,-0.417592621,0,0,0,,0,99,99,110,1,CRUNK,LB,old,z,./images/CRUNKLB.png,,,,,,,,,,,,,,,,,,,,,,,,,,,,,,,,,,,,
,,,,,,,,,,,,,,,,,6108696dc9d16e886749e495,20,2022-02-12_13h49.52.708,lexical_decision_task_DD_L3,2021.2.3,Win32,59.74072525,,,,,,,,,,,1.4764,1,,,,,,,,,,,,,,m,1,1.4764,,,,,,,,0.150925954,-0.417592621,0,0,0,,0,100,100,7,1,PAINT,C,old,m,./images/PAINT.png,,,,,,,,,,,,,,,,,,,,,,,,,,,,,,,,,,,,
,,,,,,,,,,,,,,,,,6108696dc9d16e886749e495,20,2022-02-12_13h49.52.708,lexical_decision_task_DD_L3,2021.2.3,Win32,59.74072525,,,,,,,,,,,1.2016,1,,,,,,,,,,,,,,m,1,1.2016,,,,,,,,0.150925954,-0.417592621,0,0,0,,0,101,101,27,1,ATTIC,LB,old,m,./images/ATTICLB.png,,,,,,,,,,,,,,,,,,,,,,,,,,,,,,,,,,,,
,,,,,,,,,,,,,,,,,6108696dc9d16e886749e495,20,2022-02-12_13h49.52.708,lexical_decision_task_DD_L3,2021.2.3,Win32,59.74072525,,,,,,,,,,,1.2008,1,,,,,,,,,,,,,,m,1,1.2008,,,,,,,,0.150925954,-0.417592621,0,0,0,,0,102,102,11,1,BONNET,HB,old,m,./images/BONNETHB.png,,,,,,,,,,,,,,,,,,,,,,,,,,,,,,,,,,,,
,,,,,,,,,,,,,,,,,6108696dc9d16e886749e495,20,2022-02-12_13h49.52.708,lexical_decision_task_DD_L3,2021.2.3,Win32,59.74072525,,,,,,,,,,,0.7627,1,,,,,,,,,,,,,,z,1,0.7627,,,,,,,,0.150925954,-0.417592621,0,0,0,,0,103,103,96,1,KEAMS,C,old,z,./images/KEAMS.png,,,,,,,,,,,,,,,,,,,,,,,,,,,,,,,,,,,,
,,,,,,,,,,,,,,,,,6108696dc9d16e886749e495,20,2022-02-12_13h49.52.708,lexical_decision_task_DD_L3,2021.2.3,Win32,59.74072525,,,,,,,,,,,1.1993,1,,,,,,,,,,,,,,z,1,1.1993,,,,,,,,0.150925954,-0.417592621,0,0,0,,0,104,104,111,1,HOSSE,C,old,z,./images/HOSSE.png,,,,,,,,,,,,,,,,,,,,,,,,,,,,,,,,,,,,
,,,,,,,,,,,,,,,,,6108696dc9d16e886749e495,20,2022-02-12_13h49.52.708,lexical_decision_task_DD_L3,2021.2.3,Win32,59.74072525,,,,,,,,,,,1.2527,1,,,,,,,,,,,,,,m,1,1.2527,,,,,,,,0.150925954,-0.417592621,0,0,0,,0,105,105,58,1,BABOON,C,old,m,./images/BABOON.png,,,,,,,,,,,,,,,,,,,,,,,,,,,,,,,,,,,,
,,,,,,,,,,,,,,,,,6108696dc9d16e886749e495,20,2022-02-12_13h49.52.708,lexical_decision_task_DD_L3,2021.2.3,Win32,59.74072525,,,,,,,,,,,0.8306,1,,,,,,,,,,,,,,z,1,0.8306,,,,,,,,0.150925954,-0.417592621,0,0,0,,0,106,106,160,1,VEETS,HB,old,z,./images/VEETSHB.png,,,,,,,,,,,,,,,,,,,,,,,,,,,,,,,,,,,,
,,,,,,,,,,,,,,,,,6108696dc9d16e886749e495,20,2022-02-12_13h49.52.708,lexical_decision_task_DD_L3,2021.2.3,Win32,59.74072525,,,,,,,,,,,2.7466,1,,,,,,,,,,,,,,m,1,2.7466,,,,,,,,0.150925954,-0.417592621,0,0,0,,0,107,107,57,1,MOOSE,LB,old,m,./images/MOOSELB.png,,,,,,,,,,,,,,,,,,,,,,,,,,,,,,,,,,,,
,,,,,,,,,,,,,,,,,6108696dc9d16e886749e495,20,2022-02-12_13h49.52.708,lexical_decision_task_DD_L3,2021.2.3,Win32,59.74072525,,,,,,,,,,,0.9559,0,,,,,,,,,,,,,,m,0,0.9559,,,,,,,,0.150925954,-0.417592621,0,0,0,,0,108,108,127,1,NINDY,HB,old,z,./images/NINDYHB.png,,,,,,,,,,,,,,,,,,,,,,,,,,,,,,,,,,,,
,,,,,,,,,,,,,,,,,6108696dc9d16e886749e495,20,2022-02-12_13h49.52.708,lexical_decision_task_DD_L3,2021.2.3,Win32,59.74072525,,,,,,,,,,,0.9128,1,,,,,,,,,,,,,,z,1,0.9128,,,,,,,,0.150925954,-0.417592621,0,0,0,,0,109,109,167,1,ZONET,LB,old,z,./images/ZONETLB.png,,,,,,,,,,,,,,,,,,,,,,,,,,,,,,,,,,,,
,,,,,,,,,,,,,,,,,6108696dc9d16e886749e495,20,2022-02-12_13h49.52.708,lexical_decision_task_DD_L3,2021.2.3,Win32,59.74072525,,,,,,,,,,,0.9971,1,,,,,,,,,,,,,,m,1,0.9971,,,,,,,,0.150925954,-0.417592621,0,0,0,,0,110,110,23,1,WALRUS,HB,old,m,./images/WALRUSHB.png,,,,,,,,,,,,,,,,,,,,,,,,,,,,,,,,,,,,
,,,,,,,,,,,,,,,,,6108696dc9d16e886749e495,20,2022-02-12_13h49.52.708,lexical_decision_task_DD_L3,2021.2.3,Win32,59.74072525,,,,,,,,,,,0.9723,1,,,,,,,,,,,,,,m,1,0.9723,,,,,,,,0.150925954,-0.417592621,0,0,0,,0,111,111,44,1,LIZARD,HB,old,m,./images/LIZARDHB.png,,,,,,,,,,,,,,,,,,,,,,,,,,,,,,,,,,,,
,,,,,,,,,,,,,,,,,6108696dc9d16e886749e495,20,2022-02-12_13h49.52.708,lexical_decision_task_DD_L3,2021.2.3,Win32,59.74072525,,,,,,,,,,,10.955,1,,,,,,,,,,,,,,z,1,10.955,,,,,,,,0.150925954,-0.417592621,0,0,0,,0,112,112,113,1,LINEW,LB,old,z,./images/LINEWLB.png,,,,,,,,,,,,,,,,,,,,,,,,,,,,,,,,,,,,
,,,,,,,,,,,,,,,,,6108696dc9d16e886749e495,20,2022-02-12_13h49.52.708,lexical_decision_task_DD_L3,2021.2.3,Win32,59.74072525,,,,,,,,,,,1.3213,1,,,,,,,,,,,,,,z,1,1.3213,,,,,,,,0.150925954,-0.417592621,0,0,0,,0,113,113,159,1,CUDDY,C,old,z,./images/CUDDY.png,,,,,,,,,,,,,,,,,,,,,,,,,,,,,,,,,,,,
,,,,,,,,,,,,,,,,,6108696dc9d16e886749e495,20,2022-02-12_13h49.52.708,lexical_decision_task_DD_L3,2021.2.3,Win32,59.74072525,,,,,,,,,,,1.3779,1,,,,,,,,,,,,,,z,1,1.3779,,,,,,,,0.150925954,-0.417592621,0,0,0,,0,114,114,120,1,RINED,C,old,z,./images/RINED.png,,,,,,,,,,,,,,,,,,,,,,,,,,,,,,,,,,,,
,,,,,,,,,,,,,,,,,6108696dc9d16e886749e495,20,2022-02-12_13h49.52.708,lexical_decision_task_DD_L3,2021.2.3,Win32,59.74072525,,,,,,,,,,,1.0356,1,,,,,,,,,,,,,,m,1,1.0356,,,,,,,,0.150925954,-0.417592621,0,0,0,,0,115,115,12,1,SHORE,LB,old,m,./images/SHORELB.png,,,,,,,,,,,,,,,,,,,,,,,,,,,,,,,,,,,,
,,,,,,,,,,,,,,,,,6108696dc9d16e886749e495,20,2022-02-12_13h49.52.708,lexical_decision_task_DD_L3,2021.2.3,Win32,59.74072525,,,,,,,,,,,0.9841,1,,,,,,,,,,,,,,z,1,0.9841,,,,,,,,0.150925954,-0.417592621,0,0,0,,0,116,116,155,1,CANGY,LB,old,z,./images/CANGYLB.png,,,,,,,,,,,,,,,,,,,,,,,,,,,,,,,,,,,,
,,,,,,,,,,,,,,,,,6108696dc9d16e886749e495,20,2022-02-12_13h49.52.708,lexical_decision_task_DD_L3,2021.2.3,Win32,59.74072525,,,,,,,,,,,1.2476,1,,,,,,,,,,,,,,m,1,1.2476,,,,,,,,0.150925954,-0.417592621,0,0,0,,0,117,117,50,1,MALLET,HB,old,m,./images/MALLETHB.png,,,,,,,,,,,,,,,,,,,,,,,,,,,,,,,,,,,,
,,,,,,,,,,,,,,,,,6108696dc9d16e886749e495,20,2022-02-12_13h49.52.708,lexical_decision_task_DD_L3,2021.2.3,Win32,59.74072525,,,,,,,,,,,2.069,1,,,,,,,,,,,,,,z,1,2.069,,,,,,,,0.150925954,-0.417592621,0,0,0,,0,118,118,106,1,CLUMS,HB,old,z,./images/CLUMSHB.png,,,,,,,,,,,,,,,,,,,,,,,,,,,,,,,,,,,,
,,,,,,,,,,,,,,,,,6108696dc9d16e886749e495,20,2022-02-12_13h49.52.708,lexical_decision_task_DD_L3,2021.2.3,Win32,59.74072525,,,,,,,,,,,0.629,1,,,,,,,,,,,,,,z,1,0.629,,,,,,,,0.150925954,-0.417592621,0,0,0,,0,119,119,147,1,ZOLES,C,old,z,./images/ZOLES.png,,,,,,,,,,,,,,,,,,,,,,,,,,,,,,,,,,,,
,,,,,,,,,,,,,,,,,6108696dc9d16e886749e495,20,2022-02-12_13h49.52.708,lexical_decision_task_DD_L3,2021.2.3,Win32,59.74072525,,,,,,,,,,,1.3244,1,,,,,,,,,,,,,,m,1,1.3244,,,,,,,,0.150925954,-0.417592621,0,0,0,,0,120,120,24,1,SCREW,LB,old,m,./images/SCREWLB.png,,,,,,,,,,,,,,,,,,,,,,,,,,,,,,,,,,,,
,,,,,,,,,,,,,,,,,6108696dc9d16e886749e495,20,2022-02-12_13h49.52.708,lexical_decision_task_DD_L3,2021.2.3,Win32,59.74072525,,,,,,,,,,,0.9138,1,,,,,,,,,,,,,,z,1,0.9138,,,,,,,,0.150925954,-0.417592621,0,0,0,,0,121,121,161,1,BLAPS,LB,old,z,./images/BLAPSLB.png,,,,,,,,,,,,,,,,,,,,,,,,,,,,,,,,,,,,
,,,,,,,,,,,,,,,,,6108696dc9d16e886749e495,20,2022-02-12_13h49.52.708,lexical_decision_task_DD_L3,2021.2.3,Win32,59.74072525,,,,,,,,,,,0.657,1,,,,,,,,,,,,,,z,1,0.657,,,,,,,,0.150925954,-0.417592621,0,0,0,,0,122,122,149,1,VEASE,LB,old,z,./images/VEASELB.png,,,,,,,,,,,,,,,,,,,,,,,,,,,,,,,,,,,,
,,,,,,,,,,,,,,,,,6108696dc9d16e886749e495,20,2022-02-12_13h49.52.708,lexical_decision_task_DD_L3,2021.2.3,Win32,59.74072525,,,,,,,,,,,1.1776,1,,,,,,,,,,,,,,z,1,1.1776,,,,,,,,0.150925954,-0.417592621,0,0,0,,0,123,123,148,1,JOMS,HB,old,z,./images/JOMSHB.png,,,,,,,,,,,,,,,,,,,,,,,,,,,,,,,,,,,,
,,,,,,,,,,,,,,,,,6108696dc9d16e886749e495,20,2022-02-12_13h49.52.708,lexical_decision_task_DD_L3,2021.2.3,Win32,59.74072525,,,,,,,,,,,5.6033,1,,,,,,,,,,,,,,z,1,5.6033,,,,,,,,0.150925954,-0.417592621,0,0,0,,0,124,124,141,1,PLEET,C,old,z,./images/PLEET.png,,,,,,,,,,,,,,,,,,,,,,,,,,,,,,,,,,,,
,,,,,,,,,,,,,,,,,6108696dc9d16e886749e495,20,2022-02-12_13h49.52.708,lexical_decision_task_DD_L3,2021.2.3,Win32,59.74072525,,,,,,,,,,,1.1468,1,,,,,,,,,,,,,,z,1,1.1468,,,,,,,,0.150925954,-0.417592621,0,0,0,space,0,125,125,116,1,BALGY,LB,old,z,./images/BALGYLB.png,,115.8892,,,,,,,,,,,,,,,,,,,,,,,,,,,,,,,,,,
,,,,,,,,,,,,,,,,,6108696dc9d16e886749e495,20,2022-02-12_13h49.52.708,lexical_decision_task_DD_L3,2021.2.3,Win32,59.74072525,,,,,,,,,,,0.8761,1,,,,,,,,,,,,,,m,1,0.8761,,,,,,,,0.150925954,-0.417592621,0,0,0,,0,126,126,46,1,PEARL,C,old,m,./images/PEARL.png,,,,,,,,,,,,,,,,,,,,,,,,,,,,,,,,,,,,
,,,,,,,,,,,,,,,,,6108696dc9d16e886749e495,20,2022-02-12_13h49.52.708,lexical_decision_task_DD_L3,2021.2.3,Win32,59.74072525,,,,,,,,,,,1.2541,1,,,,,,,,,,,,,,m,1,1.2541,,,,,,,,0.150925954,-0.417592621,0,0,0,,0,127,127,8,1,TULIP,HB,old,m,./images/TULIPHB.png,,,,,,,,,,,,,,,,,,,,,,,,,,,,,,,,,,,,
,,,,,,,,,,,,,,,,,6108696dc9d16e886749e495,20,2022-02-12_13h49.52.708,lexical_decision_task_DD_L3,2021.2.3,Win32,59.74072525,,,,,,,,,,,1.3943,1,,,,,,,,,,,,,,z,1,1.3943,,,,,,,,0.150925954,-0.417592621,0,0,0,,0,128,128,133,1,POWDY,HB,old,z,./images/POWDYHB.png,,,,,,,,,,,,,,,,,,,,,,,,,,,,,,,,,,,,
,,,,,,,,,,,,,,,,,6108696dc9d16e886749e495,20,2022-02-12_13h49.52.708,lexical_decision_task_DD_L3,2021.2.3,Win32,59.74072525,,,,,,,,,,,0.9078,1,,,,,,,,,,,,,,m,1,0.9078,,,,,,,,0.150925954,-0.417592621,0,0,0,,0,129,129,41,1,STRING,HB,old,m,./images/STRINGHB.png,,,,,,,,,,,,,,,,,,,,,,,,,,,,,,,,,,,,
,,,,,,,,,,,,,,,,,6108696dc9d16e886749e495,20,2022-02-12_13h49.52.708,lexical_decision_task_DD_L3,2021.2.3,Win32,59.74072525,,,,,,,,,,,0.7375,1,,,,,,,,,,,,,,m,1,0.7375,,,,,,,,0.150925954,-0.417592621,0,0,0,,0,130,130,83,1,JUNGLE,HB,old,m,./images/JUNGLEHB.png,,,,,,,,,,,,,,,,,,,,,,,,,,,,,,,,,,,,
,,,,,,,,,,,,,,,,,6108696dc9d16e886749e495,20,2022-02-12_13h49.52.708,lexical_decision_task_DD_L3,2021.2.3,Win32,59.74072525,,,,,,,,,,,0.7056,1,,,,,,,,,,,,,,m,1,0.7056,,,,,,,,0.150925954,-0.417592621,0,0,0,,0,131,131,70,1,URINE,C,old,m,./images/URINE.png,,,,,,,,,,,,,,,,,,,,,,,,,,,,,,,,,,,,
,,,,,,,,,,,,,,,,,6108696dc9d16e886749e495,20,2022-02-12_13h49.52.708,lexical_decision_task_DD_L3,2021.2.3,Win32,59.74072525,,,,,,,,,,,0.7108,1,,,,,,,,,,,,,,z,1,0.7108,,,,,,,,0.150925954,-0.417592621,0,0,0,,0,132,132,164,1,SGREW,LB,old,z,./images/SGREWLB.png,,,,,,,,,,,,,,,,,,,,,,,,,,,,,,,,,,,,
,,,,,,,,,,,,,,,,,6108696dc9d16e886749e495,20,2022-02-12_13h49.52.708,lexical_decision_task_DD_L3,2021.2.3,Win32,59.74072525,,,,,,,,,,,1.1393,1,,,,,,,,,,,,,,z,1,1.1393,,,,,,,,0.150925954,-0.417592621,0,0,0,,0,133,133,136,1,WERVE,HB,old,z,./images/WERVEHB.png,,,,,,,,,,,,,,,,,,,,,,,,,,,,,,,,,,,,
,,,,,,,,,,,,,,,,,6108696dc9d16e886749e495,20,2022-02-12_13h49.52.708,lexical_decision_task_DD_L3,2021.2.3,Win32,59.74072525,,,,,,,,,,,0.9288,1,,,,,,,,,,,,,,m,1,0.9288,,,,,,,,0.150925954,-0.417592621,0,0,0,,0,134,134,76,1,INFANT,C,old,m,./images/INFANT.png,,,,,,,,,,,,,,,,,,,,,,,,,,,,,,,,,,,,
,,,,,,,,,,,,,,,,,6108696dc9d16e886749e495,20,2022-02-12_13h49.52.708,lexical_decision_task_DD_L3,2021.2.3,Win32,59.74072525,,,,,,,,,,,0.6186,1,,,,,,,,,,,,,,m,1,0.6186,,,,,,,,0.150925954,-0.417592621,0,0,0,,0,135,135,22,1,MELON,C,old,m,./images/MELON.png,,,,,,,,,,,,,,,,,,,,,,,,,,,,,,,,,,,,
,,,,,,,,,,,,,,,,,6108696dc9d16e886749e495,20,2022-02-12_13h49.52.708,lexical_decision_task_DD_L3,2021.2.3,Win32,59.74072525,,,,,,,,,,,2.0565,1,,,,,,,,,,,,,,z,1,2.0565,,,,,,,,0.150925954,-0.417592621,0,0,0,,0,136,136,104,1,GITTY,LB,old,z,./images/GITTYLB.png,,,,,,,,,,,,,,,,,,,,,,,,,,,,,,,,,,,,
,,,,,,,,,,,,,,,,,6108696dc9d16e886749e495,20,2022-02-12_13h49.52.708,lexical_decision_task_DD_L3,2021.2.3,Win32,59.74072525,,,,,,,,,,,1.2064,1,,,,,,,,,,,,,,m,1,1.2064,,,,,,,,0.150925954,-0.417592621,0,0,0,,0,137,137,1,1,PLANK,C,old,m,./images/PLANK.png,,,,,,,,,,,,,,,,,,,,,,,,,,,,,,,,,,,,
,,,,,,,,,,,,,,,,,6108696dc9d16e886749e495,20,2022-02-12_13h49.52.708,lexical_decision_task_DD_L3,2021.2.3,Win32,59.74072525,,,,,,,,,,,1.079,1,,,,,,,,,,,,,,m,1,1.079,,,,,,,,0.150925954,-0.417592621,0,0,0,,0,138,138,0,1,TOMATO,LB,old,m,./images/TOMATOLB.png,,,,,,,,,,,,,,,,,,,,,,,,,,,,,,,,,,,,
,,,,,,,,,,,,,,,,,6108696dc9d16e886749e495,20,2022-02-12_13h49.52.708,lexical_decision_task_DD_L3,2021.2.3,Win32,59.74072525,,,,,,,,,,,1.2533,1,,,,,,,,,,,,,,m,1,1.2533,,,,,,,,0.150925954,-0.417592621,0,0,0,,0,139,139,72,1,NOOSE,LB,old,m,./images/NOOSELB.png,,,,,,,,,,,,,,,,,,,,,,,,,,,,,,,,,,,,
,,,,,,,,,,,,,,,,,6108696dc9d16e886749e495,20,2022-02-12_13h49.52.708,lexical_decision_task_DD_L3,2021.2.3,Win32,59.74072525,,,,,,,,,,,0.7553,1,,,,,,,,,,,,,,m,1,0.7553,,,,,,,,0.150925954,-0.417592621,0,0,0,,0,140,140,33,1,MAGGOT,LB,old,m,./images/MAGGOTLB.png,,,,,,,,,,,,,,,,,,,,,,,,,,,,,,,,,,,,
,,,,,,,,,,,,,,,,,6108696dc9d16e886749e495,20,2022-02-12_13h49.52.708,lexical_decision_task_DD_L3,2021.2.3,Win32,59.74072525,,,,,,,,,,,1.0145,1,,,,,,,,,,,,,,m,1,1.0145,,,,,,,,0.150925954,-0.417592621,0,0,0,,0,141,141,49,1,DRUMS,C,old,m,./images/DRUMS.png,,,,,,,,,,,,,,,,,,,,,,,,,,,,,,,,,,,,
,,,,,,,,,,,,,,,,,6108696dc9d16e886749e495,20,2022-02-12_13h49.52.708,lexical_decision_task_DD_L3,2021.2.3,Win32,59.74072525,,,,,,,,,,,0.9057,1,,,,,,,,,,,,,,z,1,0.9057,,,,,,,,0.150925954,-0.417592621,0,0,0,,0,142,142,134,1,TROSS,LB,old,z,./images/TROSSLB.png,,,,,,,,,,,,,,,,,,,,,,,,,,,,,,,,,,,,
,,,,,,,,,,,,,,,,,6108696dc9d16e886749e495,20,2022-02-12_13h49.52.708,lexical_decision_task_DD_L3,2021.2.3,Win32,59.74072525,,,,,,,,,,,1.019,1,,,,,,,,,,,,,,m,1,1.019,,,,,,,,0.150925954,-0.417592621,0,0,0,,0,143,143,73,1,SNACK,C,old,m,./images/SNACK.png,,,,,,,,,,,,,,,,,,,,,,,,,,,,,,,,,,,,
,,,,,,,,,,,,,,,,,6108696dc9d16e886749e495,20,2022-02-12_13h49.52.708,lexical_decision_task_DD_L3,2021.2.3,Win32,59.74072525,,,,,,,,,,,2.2226,1,,,,,,,,,,,,,,z,1,2.2226,,,,,,,,0.150925954,-0.417592621,0,0,0,,0,144,144,132,1,SCIFF,C,old,z,./images/SCIFF.png,,,,,,,,,,,,,,,,,,,,,,,,,,,,,,,,,,,,
,,,,,,,,,,,,,,,,,6108696dc9d16e886749e495,20,2022-02-12_13h49.52.708,lexical_decision_task_DD_L3,2021.2.3,Win32,59.74072525,,,,,,,,,,,1.0059,1,,,,,,,,,,,,,,z,1,1.0059,,,,,,,,0.150925954,-0.417592621,0,0,0,,0,145,145,152,1,FRAIN,LB,old,z,./images/FRAINLB.png,,,,,,,,,,,,,,,,,,,,,,,,,,,,,,,,,,,,
,,,,,,,,,,,,,,,,,6108696dc9d16e886749e495,20,2022-02-12_13h49.52.708,lexical_decision_task_DD_L3,2021.2.3,Win32,59.74072525,,,,,,,,,,,1.2493,1,,,,,,,,,,,,,,m,1,1.2493,,,,,,,,0.150925954,-0.417592621,0,0,0,,0,146,146,56,1,PACKET,HB,old,m,./images/PACKETHB.png,,,,,,,,,,,,,,,,,,,,,,,,,,,,,,,,,,,,
,,,,,,,,,,,,,,,,,6108696dc9d16e886749e495,20,2022-02-12_13h49.52.708,lexical_decision_task_DD_L3,2021.2.3,Win32,59.74072525,,,,,,,,,,,0.9246,1,,,,,,,,,,,,,,m,1,0.9246,,,,,,,,0.150925954,-0.417592621,0,0,0,,0,147,147,80,1,WEASEL,HB,old,m,./images/WEASELHB.png,,,,,,,,,,,,,,,,,,,,,,,,,,,,,,,,,,,,
,,,,,,,,,,,,,,,,,6108696dc9d16e886749e495,20,2022-02-12_13h49.52.708,lexical_decision_task_DD_L3,2021.2.3,Win32,59.74072525,,,,,,,,,,,0.7349,1,,,,,,,,,,,,,,m,1,0.7349,,,,,,,,0.150925954,-0.417592621,0,0,0,,0,148,148,79,1,CRUST,C,old,m,./images/CRUST.png,,,,,,,,,,,,,,,,,,,,,,,,,,,,,,,,,,,,
,,,,,,,,,,,,,,,,,6108696dc9d16e886749e495,20,2022-02-12_13h49.52.708,lexical_decision_task_DD_L3,2021.2.3,Win32,59.74072525,,,,,,,,,,,1.2366,1,,,,,,,,,,,,,,z,1,1.2366,,,,,,,,0.150925954,-0.417592621,0,0,0,,0,149,149,123,1,SEDGE,C,old,z,./images/SEDGE.png,,,,,,,,,,,,,,,,,,,,,,,,,,,,,,,,,,,,
,,,,,,,,,,,,,,,,,6108696dc9d16e886749e495,20,2022-02-12_13h49.52.708,lexical_decision_task_DD_L3,2021.2.3,Win32,59.74072525,,,,,,,,,,,1.2081,1,,,,,,,,,,,,,,m,1,1.2081,,,,,,,,0.150925954,-0.417592621,0,0,0,,0,150,150,2,1,BEARD,HB,old,m,./images/BEARDHB.png,,,,,,,,,,,,,,,,,,,,,,,,,,,,,,,,,,,,
,,,,,,,,,,,,,,,,,6108696dc9d16e886749e495,20,2022-02-12_13h49.52.708,lexical_decision_task_DD_L3,2021.2.3,Win32,59.74072525,,,,,,,,,,,0.9119,1,,,,,,,,,,,,,,z,1,0.9119,,,,,,,,0.150925954,-0.417592621,0,0,0,,0,151,151,95,1,HANTY,LB,old,z,./images/HANTYLB.png,,,,,,,,,,,,,,,,,,,,,,,,,,,,,,,,,,,,
,,,,,,,,,,,,,,,,,6108696dc9d16e886749e495,20,2022-02-12_13h49.52.708,lexical_decision_task_DD_L3,2021.2.3,Win32,59.74072525,,,,,,,,,,,5.8079,1,,,,,,,,,,,,,,z,1,5.8079,,,,,,,,0.150925954,-0.417592621,0,0,0,,0,152,152,130,1,CRILL,HB,old,z,./images/CRILLHB.png,,,,,,,,,,,,,,,,,,,,,,,,,,,,,,,,,,,,
,,,,,,,,,,,,,,,,,6108696dc9d16e886749e495,20,2022-02-12_13h49.52.708,lexical_decision_task_DD_L3,2021.2.3,Win32,59.74072525,,,,,,,,,,,2.4417,1,,,,,,,,,,,,,,z,1,2.4417,,,,,,,,0.150925954,-0.417592621,0,0,0,,0,153,153,125,1,MOOKY,LB,old,z,./images/MOOKYLB.png,,,,,,,,,,,,,,,,,,,,,,,,,,,,,,,,,,,,
,,,,,,,,,,,,,,,,,6108696dc9d16e886749e495,20,2022-02-12_13h49.52.708,lexical_decision_task_DD_L3,2021.2.3,Win32,59.74072525,,,,,,,,,,,2.9176,1,,,,,,,,,,,,,,z,1,2.9176,,,,,,,,0.150925954,-0.417592621,0,0,0,,0,154,154,157,1,INLER,HB,old,z,./images/INLERHB.png,,,,,,,,,,,,,,,,,,,,,,,,,,,,,,,,,,,,
,,,,,,,,,,,,,,,,,6108696dc9d16e886749e495,20,2022-02-12_13h49.52.708,lexical_decision_task_DD_L3,2021.2.3,Win32,59.74072525,,,,,,,,,,,2.013,1,,,,,,,,,,,,,,m,1,2.013,,,,,,,,0.150925954,-0.417592621,0,0,0,,0,155,155,52,1,BANNER,C,old,m,./images/BANNER.png,,,,,,,,,,,,,,,,,,,,,,,,,,,,,,,,,,,,
,,,,,,,,,,,,,,,,,6108696dc9d16e886749e495,20,2022-02-12_13h49.52.708,lexical_decision_task_DD_L3,2021.2.3,Win32,59.74072525,,,,,,,,,,,0.668,1,,,,,,,,,,,,,,m,1,0.668,,,,,,,,0.150925954,-0.417592621,0,0,0,,0,156,156,55,1,MUFFIN,C,old,m,./images/MUFFIN.png,,,,,,,,,,,,,,,,,,,,,,,,,,,,,,,,,,,,
,,,,,,,,,,,,,,,,,6108696dc9d16e886749e495,20,2022-02-12_13h49.52.708,lexical_decision_task_DD_L3,2021.2.3,Win32,59.74072525,,,,,,,,,,,0.648,1,,,,,,,,,,,,,,z,1,0.648,,,,,,,,0.150925954,-0.417592621,0,0,0,,0,157,157,86,1,AIFED,LB,old,z,./images/AIFEDLB.png,,,,,,,,,,,,,,,,,,,,,,,,,,,,,,,,,,,,
,,,,,,,,,,,,,,,,,6108696dc9d16e886749e495,20,2022-02-12_13h49.52.708,lexical_decision_task_DD_L3,2021.2.3,Win32,59.74072525,,,,,,,,,,,2.4955,1,,,,,,,,,,,,,,m,1,2.4955,,,,,,,,0.150925954,-0.417592621,0,0,0,,0,158,158,4,1,MUSCLE,C,old,m,./images/MUSCLE.png,,,,,,,,,,,,,,,,,,,,,,,,,,,,,,,,,,,,
,,,,,,,,,,,,,,,,,6108696dc9d16e886749e495,20,2022-02-12_13h49.52.708,lexical_decision_task_DD_L3,2021.2.3,Win32,59.74072525,,,,,,,,,,,1.4213,1,,,,,,,,,,,,,,m,1,1.4213,,,,,,,,0.150925954,-0.417592621,0,0,0,,0,159,159,65,1,FARMER,HB,old,m,./images/FARMERHB.png,,,,,,,,,,,,,,,,,,,,,,,,,,,,,,,,,,,,
,,,,,,,,,,,,,,,,,6108696dc9d16e886749e495,20,2022-02-12_13h49.52.708,lexical_decision_task_DD_L3,2021.2.3,Win32,59.74072525,,,,,,,,,,,0.7033,1,,,,,,,,,,,,,,z,1,0.7033,,,,,,,,0.150925954,-0.417592621,0,0,0,,0,160,160,138,1,PLICE,C,old,z,./images/PLICE.png,,,,,,,,,,,,,,,,,,,,,,,,,,,,,,,,,,,,
,,,,,,,,,,,,,,,,,6108696dc9d16e886749e495,20,2022-02-12_13h49.52.708,lexical_decision_task_DD_L3,2021.2.3,Win32,59.74072525,,,,,,,,,,,0.7521,1,,,,,,,,,,,,,,m,1,0.7521,,,,,,,,0.150925954,-0.417592621,0,0,0,,0,161,161,36,1,THROAT,LB,old,m,./images/THROATLB.png,,,,,,,,,,,,,,,,,,,,,,,,,,,,,,,,,,,,
,,,,,,,,,,,,,,,,,6108696dc9d16e886749e495,20,2022-02-12_13h49.52.708,lexical_decision_task_DD_L3,2021.2.3,Win32,59.74072525,,,,,,,,,,,1.6806,1,,,,,,,,,,,,,,z,1,1.6806,,,,,,,,0.150925954,-0.417592621,0,0,0,,0,162,162,115,1,MAWNS,HB,old,z,./images/MAWNSHB.png,,,,,,,,,,,,,,,,,,,,,,,,,,,,,,,,,,,,
,,,,,,,,,,,,,,,,,6108696dc9d16e886749e495,20,2022-02-12_13h49.52.708,lexical_decision_task_DD_L3,2021.2.3,Win32,59.74072525,,,,,,,,,,,0.9134,1,,,,,,,,,,,,,,z,1,0.9134,,,,,,,,0.150925954,-0.417592621,0,0,0,,0,163,163,107,1,FASKS,LB,old,z,./images/FASKSLB.png,,,,,,,,,,,,,,,,,,,,,,,,,,,,,,,,,,,,
,,,,,,,,,,,,,,,,,6108696dc9d16e886749e495,20,2022-02-12_13h49.52.708,lexical_decision_task_DD_L3,2021.2.3,Win32,59.74072525,,,,,,,,,,,1.278,1,,,,,,,,,,,,,,z,1,1.278,,,,,,,,0.150925954,-0.417592621,0,0,0,,0,164,164,151,1,TINKY,HB,old,z,./images/TINKYHB.png,,,,,,,,,,,,,,,,,,,,,,,,,,,,,,,,,,,,
,,,,,,,,,,,,,,,,,6108696dc9d16e886749e495,20,2022-02-12_13h49.52.708,lexical_decision_task_DD_L3,2021.2.3,Win32,59.74072525,,,,,,,,,,,0.656,1,,,,,,,,,,,,,,m,1,0.656,,,,,,,,0.150925954,-0.417592621,0,0,0,,0,165,165,15,1,GREASE,LB,old,m,./images/GREASELB.png,,,,,,,,,,,,,,,,,,,,,,,,,,,,,,,,,,,,
,,,,,,,,,,,,,,,,,6108696dc9d16e886749e495,20,2022-02-12_13h49.52.708,lexical_decision_task_DD_L3,2021.2.3,Win32,59.74072525,,,,,,,,,,,1.0161,1,,,,,,,,,,,,,,m,1,1.0161,,,,,,,,0.150925954,-0.417592621,0,0,0,,0,166,166,32,1,BARREL,HB,old,m,./images/BARRELHB.png,,,,,,,,,,,,,,,,,,,,,,,,,,,,,,,,,,,,
,,,,,,,,,,,,,,,,,6108696dc9d16e886749e495,20,2022-02-12_13h49.52.708,lexical_decision_task_DD_L3,2021.2.3,Win32,59.74072525,,,,,,,,,,,1.8651,1,,,,,,,,,,,,,,z,1,1.8651,,,,,,,,0.150925954,-0.417592621,0,0,0,,0,167,167,103,1,FLORT,HB,old,z,./images/FLORTHB.png,,,,,,,,,,,,,,,,,,,,,,,,,,,,,,,,,,,,
,,,,,,,,,,,,,,,,,6108696dc9d16e886749e495,20,2022-02-12_13h49.52.708,lexical_decision_task_DD_L3,2021.2.3,Win32,59.74072525,,,,,,,,,,,,,,,,,,,,,,,,,,,,,,,,,,,,,,,,,,,,,,,,How likely will it be that you will recognize the words presented very blurred on a scale of 0 (not likely) to 100 (most likely)?,,,,,,-0.005555556,-0.412963019,1,0,0,jol_adv,3,6.717,0,0,0,2,1,,,,,,,,,,,,,,,,,,,,,
,,,,,,,,,,,,,,,,,6108696dc9d16e886749e495,20,2022-02-12_13h49.52.708,lexical_decision_task_DD_L3,2021.2.3,Win32,59.74072525,,,,,,,,,,,,,,,,,,,,,,,,,,,,,,,,,,,,,,,,,,,,,,,,How likely will it be that you will recognize the words presented clearly on a scale of 0 (not likely) to 100 (most likely)?,,,,,,,,,,,,4,2.9236,0,1,1,0,1,,,,,,,,,,,,,,,,,,,,,
,,,,,,,,,,,,,,,,,6108696dc9d16e886749e495,20,2022-02-12_13h49.52.708,lexical_decision_task_DD_L3,2021.2.3,Win32,59.74072525,,,,,,,,,,,,,,,,,,,,,,,,,,,,,,,,,,,,,,,,,,,,,,,,How likely will it be that you will recognize the words presented slighly blurred on a scale of 0 (not likely) to 100 (most likely)?,,,,,,,,,,,,4,2.3153,0,2,2,1,1,,,,,,,,,,,,,,,,,,,,,
,0.079629686,-0.419444444,1,0,0,instr_done_button,,,,,,1,test,"In the next phase you will be presented with the words from the the first phase. Your job is to decide whether you remember seeing the word or not. If you remember seeing the word press ""old"" or type ""m"". If you do not remember seeing the word press ""new"" or type ""z"". Please press the space bar or click on continue to begin. ",,,6108696dc9d16e886749e495,20,2022-02-12_13h49.52.708,lexical_decision_task_DD_L3,2021.2.3,Win32,59.74072525,,,,,,,,,,,,,,,,,,,,,,,,,,,,,,,,,,,,,,,,,,,,,,,,,,,,,,,,,,,,,,,,,,,0,0,0,0,1,,,,,,,,,,,,,,,,
,0.095370399,-0.390740797,1,0,0,instr_done_button,,,,,,1,test,"In the next phase you will be presented with the words from the the first phase. Your job is to decide whether you remember seeing the word or not. If you remember seeing the word press ""old"" or type ""m"". If you do not remember seeing the word press ""new"" or type ""z"". Please press the space bar or click on continue to begin. ",,,6108696dc9d16e886749e495,20,2022-02-12_13h49.52.708,lexical_decision_task_DD_L3,2021.2.3,Win32,59.74072525,,,,,,,,,,,,,,,,,,,,,,,,,,,,,,,,,,,,,,,,,,,,,,,,,,,,,,,,,,,,,,,,,,,1,0,1,0,1,,,,,,,,,,,,,,,,
,0.033333333,-0.411111111,1,0,0,instr_done_button,,,,,,1,test,"In the next phase you will be presented with the words from the the first phase. Your job is to decide whether you remember seeing the word or not. If you remember seeing the word press ""old"" or type ""m"". If you do not remember seeing the word press ""new"" or type ""z"". Please press the space bar or click on continue to begin. ",,,6108696dc9d16e886749e495,20,2022-02-12_13h49.52.708,lexical_decision_task_DD_L3,2021.2.3,Win32,59.74072525,,,,,,,,,,,,,,,,,,,,,,,,,,,,,,,,,,,,,,,,,,,,,,,,,,,,,,,,,,,,,,,,,,,2,0,2,0,1,,,,,,,,,,,,,,,,
space,0.032407464,-0.397222222,0,0,0,,,,,,,1,test,"In the next phase you will be presented with the words from the the first phase. Your job is to decide whether you remember seeing the word or not. If you remember seeing the word press ""old"" or type ""m"". If you do not remember seeing the word press ""new"" or type ""z"". Please press the space bar or click on continue to begin. ",,,6108696dc9d16e886749e495,20,2022-02-12_13h49.52.708,lexical_decision_task_DD_L3,2021.2.3,Win32,59.74072525,,,,,,,,,,,,,,,,,,,,,,,,,,,,,,,,,,,,,,,,,,,,,,,,,,,,,,,,,,,,,,,,,,,3,0,3,0,1,2.8789,,,,,,,,,,,,,,,
space,0.032407464,-0.397222222,0,0,0,,,,,,,1,test,"In the next phase you will be presented with the words from the the first phase. Your job is to decide whether you remember seeing the word or not. If you remember seeing the word press ""old"" or type ""m"". If you do not remember seeing the word press ""new"" or type ""z"". Please press the space bar or click on continue to begin. ",,,6108696dc9d16e886749e495,20,2022-02-12_13h49.52.708,lexical_decision_task_DD_L3,2021.2.3,Win32,59.74072525,,,,,,,,,,,,,,,,,,,,,,,,,,,,,,,,,,,,,,,,,,,,,,,,,,,,,,,,,,,,,,,,,,,4,0,4,0,1,1.9354,,,,,,,,,,,,,,,
,,,,,,,,,,,,,,,,,6108696dc9d16e886749e495,20,2022-02-12_13h49.52.708,lexical_decision_task_DD_L3,2021.2.3,Win32,59.74072525,,,,,,,,,,,3.6204,0,,,,,,,,,,,,,,,,,,,,,,,,0.032407464,-0.397222222,0,0,0,,,,,,,POKER,C,z,m,./images/POKER.png,,,,,,,,,,,,,,,,,,,,,,m,0,3.6204,,,,,,,,0,0,0,151,1
,,,,,,,,,,,,,,,,,6108696dc9d16e886749e495,20,2022-02-12_13h49.52.708,lexical_decision_task_DD_L3,2021.2.3,Win32,59.74072525,,,,,,,,,,,0.5094,1,,,,,,,,,,,,,,,,,,,,,,,,0.032407464,-0.397222222,0,0,0,,,,,,,PICKLE,HB,m,m,./images/PICKLEHB.png,,,,,,,,,,,,,,,,,,,,,,m,1,0.5094,,,,,,,,0,1,1,14,1
,,,,,,,,,,,,,,,,,6108696dc9d16e886749e495,20,2022-02-12_13h49.52.708,lexical_decision_task_DD_L3,2021.2.3,Win32,59.74072525,,,,,,,,,,,3.9925,0,,,,,,,,,,,,,,,,,,,,,,,,0.032407464,-0.397222222,0,0,0,,,,,,,BAKER,LB,z,m,./images/BAKERLB.png,,,,,,,,,,,,,,,,,,,,,,m,0,3.9925,,,,,,,,0,2,2,147,1
,,,,,,,,,,,,,,,,,6108696dc9d16e886749e495,20,2022-02-12_13h49.52.708,lexical_decision_task_DD_L3,2021.2.3,Win32,59.74072525,,,,,,,,,,,3.5913,1,,,,,,,,,,,,,,,,,,,,,,,,0.032407464,-0.397222222,0,0,0,,,,,,,DANCER,LB,z,m,./images/DANCERLB.png,,,,,,,,,,,,,,,,,,,,,,z,1,3.5913,,,,,,,,0,3,3,105,1
,,,,,,,,,,,,,,,,,6108696dc9d16e886749e495,20,2022-02-12_13h49.52.708,lexical_decision_task_DD_L3,2021.2.3,Win32,59.74072525,,,,,,,,,,,1.4543,1,,,,,,,,,,,,,,,,,,,,,,,,0.032407464,-0.397222222,0,0,0,,,,,,,MALLET,HB,m,m,./images/MALLETHB.png,,,,,,,,,,,,,,,,,,,,,,m,1,1.4543,,,,,,,,0,4,4,50,1
,,,,,,,,,,,,,,,,,6108696dc9d16e886749e495,20,2022-02-12_13h49.52.708,lexical_decision_task_DD_L3,2021.2.3,Win32,59.74072525,,,,,,,,,,,0.9172,1,,,,,,,,,,,,,,,,,,,,,,,,0.032407464,-0.397222222,0,0,0,,,,,,,RHINO,LB,m,m,./images/RHINOLB.png,,,,,,,,,,,,,,,,,,,,,,m,1,0.9172,,,,,,,,0,5,5,9,1
,,,,,,,,,,,,,,,,,6108696dc9d16e886749e495,20,2022-02-12_13h49.52.708,lexical_decision_task_DD_L3,2021.2.3,Win32,59.74072525,,,,,,,,,,,1.5989,1,,,,,,,,,,,,,,,,,,,,,,,,0.032407464,-0.397222222,0,0,0,,,,,,,ATTIC,LB,m,m,./images/ATTICLB.png,,,,,,,,,,,,,,,,,,,,,,m,1,1.5989,,,,,,,,0,6,6,27,1
,,,,,,,,,,,,,,,,,6108696dc9d16e886749e495,20,2022-02-12_13h49.52.708,lexical_decision_task_DD_L3,2021.2.3,Win32,59.74072525,,,,,,,,,,,5.012,1,,,,,,,,,,,,,,,,,,,,,,,,0.032407464,-0.397222222,0,0,0,,,,,,,BRIDE,C,z,m,./images/BRIDE.png,,,,,,,,,,,,,,,,,,,,,,z,1,5.012,,,,,,,,0,7,7,148,1
,,,,,,,,,,,,,,,,,6108696dc9d16e886749e495,20,2022-02-12_13h49.52.708,lexical_decision_task_DD_L3,2021.2.3,Win32,59.74072525,,,,,,,,,,,13.3118,1,,,,,,,,,,,,,,,,,,,,,,,,0.032407464,-0.397222222,0,0,0,,,,,,,BASKET,HB,z,m,./images/BASKETHB.png,,,,,,,,,,,,,,,,,,,,,,z,1,13.3118,,,,,,,,0,8,8,128,1
,,,,,,,,,,,,,,,,,6108696dc9d16e886749e495,20,2022-02-12_13h49.52.708,lexical_decision_task_DD_L3,2021.2.3,Win32,59.74072525,,,,,,,,,,,9.1898,1,,,,,,,,,,,,,,,,,,,,,,,,0.032407464,-0.397222222,0,0,0,,,,,,,SKIING,HB,m,m,./images/SKIINGHB.png,,,,,,,,,,,,,,,,,,,,,,m,1,9.1898,,,,,,,,0,9,9,17,1
,,,,,,,,,,,,,,,,,6108696dc9d16e886749e495,20,2022-02-12_13h49.52.708,lexical_decision_task_DD_L3,2021.2.3,Win32,59.74072525,,,,,,,,,,,3.0341,0,,,,,,,,,,,,,,,,,,,,,,,,0.032407464,-0.397222222,0,0,0,,,,,,,FOLDER,LB,m,m,./images/FOLDERLB.png,,,,,,,,,,,,,,,,,,,,,,z,0,3.0341,,,,,,,,0,10,10,42,1
,,,,,,,,,,,,,,,,,6108696dc9d16e886749e495,20,2022-02-12_13h49.52.708,lexical_decision_task_DD_L3,2021.2.3,Win32,59.74072525,,,,,,,,,,,10.7609,0,,,,,,,,,,,,,,,,,,,,,,,,0.032407464,-0.397222222,0,0,0,,,,,,,POSTER,HB,z,m,./images/POSTERHB.png,,,,,,,,,,,,,,,,,,,,,,m,0,10.7609,,,,,,,,0,11,11,137,1
,,,,,,,,,,,,,,,,,6108696dc9d16e886749e495,20,2022-02-12_13h49.52.708,lexical_decision_task_DD_L3,2021.2.3,Win32,59.74072525,,,,,,,,,,,1.4439,1,,,,,,,,,,,,,,,,,,,,,,,,0.032407464,-0.397222222,0,0,0,,,,,,,FARMER,HB,m,m,./images/FARMERHB.png,,,,,,,,,,,,,,,,,,,,,,m,1,1.4439,,,,,,,,0,12,12,65,1
,,,,,,,,,,,,,,,,,6108696dc9d16e886749e495,20,2022-02-12_13h49.52.708,lexical_decision_task_DD_L3,2021.2.3,Win32,59.74072525,,,,,,,,,,,5.1882,1,,,,,,,,,,,,,,,,,,,,,,,,0.032407464,-0.397222222,0,0,0,,,,,,,BABOON,C,m,m,./images/BABOON.png,,,,,,,,,,,,,,,,,,,,,,m,1,5.1882,,,,,,,,0,13,13,58,1
,,,,,,,,,,,,,,,,,6108696dc9d16e886749e495,20,2022-02-12_13h49.52.708,lexical_decision_task_DD_L3,2021.2.3,Win32,59.74072525,,,,,,,,,,,5.2107,1,,,,,,,,,,,,,,,,,,,,,,,,0.032407464,-0.397222222,0,0,0,,,,,,,MAMMAL,HB,z,m,./images/MAMMALHB.png,,,,,,,,,,,,,,,,,,,,,,z,1,5.2107,,,,,,,,0,14,14,146,1
,,,,,,,,,,,,,,,,,6108696dc9d16e886749e495,20,2022-02-12_13h49.52.708,lexical_decision_task_DD_L3,2021.2.3,Win32,59.74072525,,,,,,,,,,,2.231,0,,,,,,,,,,,,,,,,,,,,,,,,0.032407464,-0.397222222,0,0,0,,,,,,,HEATER,HB,z,m,./images/HEATERHB.png,,,,,,,,,,,,,,,,,,,,,,m,0,2.231,,,,,,,,0,15,15,140,1
,,,,,,,,,,,,,,,,,6108696dc9d16e886749e495,20,2022-02-12_13h49.52.708,lexical_decision_task_DD_L3,2021.2.3,Win32,59.74072525,,,,,,,,,,,0.7479,1,,,,,,,,,,,,,,,,,,,,,,,,0.032407464,-0.397222222,0,0,0,,,,,,,PACKET,HB,m,m,./images/PACKETHB.png,,,,,,,,,,,,,,,,,,,,,,m,1,0.7479,,,,,,,,0,16,16,56,1
,,,,,,,,,,,,,,,,,6108696dc9d16e886749e495,20,2022-02-12_13h49.52.708,lexical_decision_task_DD_L3,2021.2.3,Win32,59.74072525,,,,,,,,,,,2.2882,0,,,,,,,,,,,,,,,,,,,,,,,,0.032407464,-0.397222222,0,0,0,,,,,,,GRAIN,LB,m,m,./images/GRAINLB.png,,,,,,,,,,,,,,,,,,,,,,z,0,2.2882,,,,,,,,0,17,17,75,1
,,,,,,,,,,,,,,,,,6108696dc9d16e886749e495,20,2022-02-12_13h49.52.708,lexical_decision_task_DD_L3,2021.2.3,Win32,59.74072525,,,,,,,,,,,0.917,0,,,,,,,,,,,,,,,,,,,,,,,,0.032407464,-0.397222222,0,0,0,,,,,,,FENCE,HB,z,m,./images/FENCEHB.png,,,,,,,,,,,,,,,,,,,,,,m,0,0.917,,,,,,,,0,18,18,98,1
,,,,,,,,,,,,,,,,,6108696dc9d16e886749e495,20,2022-02-12_13h49.52.708,lexical_decision_task_DD_L3,2021.2.3,Win32,59.74072525,,,,,,,,,,,1.8323,0,,,,,,,,,,,,,,,,,,,,,,,,0.032407464,-0.397222222,0,0,0,,,,,,,PARADE,HB,z,m,./images/PARADEHB.png,,,,,,,,,,,,,,,,,,,,,,m,0,1.8323,,,,,,,,0,19,19,101,1
,,,,,,,,,,,,,,,,,6108696dc9d16e886749e495,20,2022-02-12_13h49.52.708,lexical_decision_task_DD_L3,2021.2.3,Win32,59.74072525,,,,,,,,,,,1.913,0,,,,,,,,,,,,,,,,,,,,,,,,0.032407464,-0.397222222,0,0,0,,,,,,,BLOKE,LB,z,m,./images/BLOKELB.png,,,,,,,,,,,,,,,,,,,,,,m,0,1.913,,,,,,,,0,20,20,96,1
,,,,,,,,,,,,,,,,,6108696dc9d16e886749e495,20,2022-02-12_13h49.52.708,lexical_decision_task_DD_L3,2021.2.3,Win32,59.74072525,,,,,,,,,,,1.9283,0,,,,,,,,,,,,,,,,,,,,,,,,0.032407464,-0.397222222,0,0,0,,,,,,,CRADLE,HB,m,m,./images/CRADLEHB.png,,,,,,,,,,,,,,,,,,,,,,z,0,1.9283,,,,,,,,0,21,21,20,1
,,,,,,,,,,,,,,,,,6108696dc9d16e886749e495,20,2022-02-12_13h49.52.708,lexical_decision_task_DD_L3,2021.2.3,Win32,59.74072525,,,,,,,,,,,2.0769,1,,,,,,,,,,,,,,,,,,,,,,,,0.032407464,-0.397222222,0,0,0,,,,,,,CLOTH,HB,z,m,./images/CLOTHHB.png,,,,,,,,,,,,,,,,,,,,,,z,1,2.0769,,,,,,,,0,22,22,107,1
,,,,,,,,,,,,,,,,,6108696dc9d16e886749e495,20,2022-02-12_13h49.52.708,lexical_decision_task_DD_L3,2021.2.3,Win32,59.74072525,,,,,,,,,,,3.1778,0,,,,,,,,,,,,,,,,,,,,,,,,0.032407464,-0.397222222,0,0,0,,,,,,,CANDLE,C,m,m,./images/CANDLE.png,,,,,,,,,,,,,,,,,,,,,,z,0,3.1778,,,,,,,,0,23,23,61,1
,,,,,,,,,,,,,,,,,6108696dc9d16e886749e495,20,2022-02-12_13h49.52.708,lexical_decision_task_DD_L3,2021.2.3,Win32,59.74072525,,,,,,,,,,,2.2164,1,,,,,,,,,,,,,,,,,,,,,,,,0.032407464,-0.397222222,0,0,0,,,,,,,BOILER,LB,z,m,./images/BOILERLB.png,,,,,,,,,,,,,,,,,,,,,,z,1,2.2164,,,,,,,,0,24,24,120,1
,,,,,,,,,,,,,,,,,6108696dc9d16e886749e495,20,2022-02-12_13h49.52.708,lexical_decision_task_DD_L3,2021.2.3,Win32,59.74072525,,,,,,,,,,,1.3449,0,,,,,,,,,,,,,,,,,,,,,,,,0.032407464,-0.397222222,0,0,0,,,,,,,CANDY,LB,z,m,./images/CANDYLB.png,,,,,,,,,,,,,,,,,,,,,,m,0,1.3449,,,,,,,,0,25,25,123,1
,,,,,,,,,,,,,,,,,6108696dc9d16e886749e495,20,2022-02-12_13h49.52.708,lexical_decision_task_DD_L3,2021.2.3,Win32,59.74072525,,,,,,,,,,,3.2546,1,,,,,,,,,,,,,,,,,,,,,,,,0.032407464,-0.397222222,0,0,0,,,,,,,COUCH,HB,m,m,./images/COUCHHB.png,,,,,,,,,,,,,,,,,,,,,,m,1,3.2546,,,,,,,,0,26,26,77,1
,,,,,,,,,,,,,,,,,6108696dc9d16e886749e495,20,2022-02-12_13h49.52.708,lexical_decision_task_DD_L3,2021.2.3,Win32,59.74072525,,,,,,,,,,,7.2128,0,,,,,,,,,,,,,,,,,,,,,,,,0.032407464,-0.397222222,0,0,0,,,,,,,BROOM,LB,z,m,./images/BROOMLB.png,,,,,,,,,,,,,,,,,,,,,,m,0,7.2128,,,,,,,,0,27,27,162,1
,,,,,,,,,,,,,,,,,6108696dc9d16e886749e495,20,2022-02-12_13h49.52.708,lexical_decision_task_DD_L3,2021.2.3,Win32,59.74072525,,,,,,,,,,,1.6801,1,,,,,,,,,,,,,,,,,,,,,,,,0.032407464,-0.397222222,0,0,0,,,,,,,FALCON,C,m,m,./images/FALCON.png,,,,,,,,,,,,,,,,,,,,,,m,1,1.6801,,,,,,,,0,28,28,28,1
,,,,,,,,,,,,,,,,,6108696dc9d16e886749e495,20,2022-02-12_13h49.52.708,lexical_decision_task_DD_L3,2021.2.3,Win32,59.74072525,,,,,,,,,,,1.315,0,,,,,,,,,,,,,,,,,,,,,,,,0.032407464,-0.397222222,0,0,0,,,,,,,BRUSH,HB,z,m,./images/BRUSHHB.png,,,,,,,,,,,,,,,,,,,,,,m,0,1.315,,,,,,,,0,29,29,143,1
,,,,,,,,,,,,,,,,,6108696dc9d16e886749e495,20,2022-02-12_13h49.52.708,lexical_decision_task_DD_L3,2021.2.3,Win32,59.74072525,,,,,,,,,,,3.0235,1,,,,,,,,,,,,,,,,,,,,,,,,0.032407464,-0.397222222,0,0,0,,,,,,,CARPET,HB,m,m,./images/CARPETHB.png,,,,,,,,,,,,,,,,,,,,,,m,1,3.0235,,,,,,,,0,30,30,53,1
,,,,,,,,,,,,,,,,,6108696dc9d16e886749e495,20,2022-02-12_13h49.52.708,lexical_decision_task_DD_L3,2021.2.3,Win32,59.74072525,,,,,,,,,,,3.47,0,,,,,,,,,,,,,,,,,,,,,,,,0.032407464,-0.397222222,0,0,0,,,,,,,BIRTH,C,m,m,./images/BIRTH.png,,,,,,,,,,,,,,,,,,,,,,z,0,3.47,,,,,,,,0,31,31,37,1
,,,,,,,,,,,,,,,,,6108696dc9d16e886749e495,20,2022-02-12_13h49.52.708,lexical_decision_task_DD_L3,2021.2.3,Win32,59.74072525,,,,,,,,,,,1.5439,0,,,,,,,,,,,,,,,,,,,,,,,,0.032407464,-0.397222222,0,0,0,,,,,,,SNAKE,C,z,m,./images/SNAKE.png,,,,,,,,,,,,,,,,,,,,,,m,0,1.5439,,,,,,,,0,32,32,124,1
,,,,,,,,,,,,,,,,,6108696dc9d16e886749e495,20,2022-02-12_13h49.52.708,lexical_decision_task_DD_L3,2021.2.3,Win32,59.74072525,,,,,,,,,,,1.1852,1,,,,,,,,,,,,,,,,,,,,,,,,0.032407464,-0.397222222,0,0,0,,,,,,,SPINE,HB,z,m,./images/SPINEHB.png,,,,,,,,,,,,,,,,,,,,,,z,1,1.1852,,,,,,,,0,33,33,149,1
,,,,,,,,,,,,,,,,,6108696dc9d16e886749e495,20,2022-02-12_13h49.52.708,lexical_decision_task_DD_L3,2021.2.3,Win32,59.74072525,,,,,,,,,,,0.9302,1,,,,,,,,,,,,,,,,,,,,,,,,0.032407464,-0.397222222,0,0,0,,,,,,,CANYON,C,m,m,./images/CANYON.png,,,,,,,,,,,,,,,,,,,,,,m,1,0.9302,,,,,,,,0,34,34,34,1
,,,,,,,,,,,,,,,,,6108696dc9d16e886749e495,20,2022-02-12_13h49.52.708,lexical_decision_task_DD_L3,2021.2.3,Win32,59.74072525,,,,,,,,,,,0.953,1,,,,,,,,,,,,,,,,,,,,,,,,0.032407464,-0.397222222,0,0,0,,,,,,,DRUMS,C,m,m,./images/DRUMS.png,,,,,,,,,,,,,,,,,,,,,,m,1,0.953,,,,,,,,0,35,35,49,1
,,,,,,,,,,,,,,,,,6108696dc9d16e886749e495,20,2022-02-12_13h49.52.708,lexical_decision_task_DD_L3,2021.2.3,Win32,59.74072525,,,,,,,,,,,0.7254,1,,,,,,,,,,,,,,,,,,,,,,,,0.032407464,-0.397222222,0,0,0,,,,,,,PIMPLE,HB,m,m,./images/PIMPLEHB.png,,,,,,,,,,,,,,,,,,,,,,m,1,0.7254,,,,,,,,0,36,36,71,1
,,,,,,,,,,,,,,,,,6108696dc9d16e886749e495,20,2022-02-12_13h49.52.708,lexical_decision_task_DD_L3,2021.2.3,Win32,59.74072525,,,,,,,,,,,0.878,1,,,,,,,,,,,,,,,,,,,,,,,,0.032407464,-0.397222222,0,0,0,,,,,,,WALNUT,LB,z,m,./images/WALNUTLB.png,,,,,,,,,,,,,,,,,,,,,,z,1,0.878,,,,,,,,0,37,37,84,1
,,,,,,,,,,,,,,,,,6108696dc9d16e886749e495,20,2022-02-12_13h49.52.708,lexical_decision_task_DD_L3,2021.2.3,Win32,59.74072525,,,,,,,,,,,1.1007,1,,,,,,,,,,,,,,,,,,,,,,,,0.032407464,-0.397222222,0,0,0,,,,,,,SWING,C,m,m,./images/SWING.png,,,,,,,,,,,,,,,,,,,,,,m,1,1.1007,,,,,,,,0,38,38,40,1
,,,,,,,,,,,,,,,,,6108696dc9d16e886749e495,20,2022-02-12_13h49.52.708,lexical_decision_task_DD_L3,2021.2.3,Win32,59.74072525,,,,,,,,,,,1.7933,0,,,,,,,,,,,,,,,,,,,,,,,,0.032407464,-0.397222222,0,0,0,,,,,,,PURSE,HB,m,m,./images/PURSEHB.png,,,,,,,,,,,,,,,,,,,,,,z,0,1.7933,,,,,,,,0,39,39,62,1
,,,,,,,,,,,,,,,,,6108696dc9d16e886749e495,20,2022-02-12_13h49.52.708,lexical_decision_task_DD_L3,2021.2.3,Win32,59.74072525,,,,,,,,,,,0.7152,1,,,,,,,,,,,,,,,,,,,,,,,,0.032407464,-0.397222222,0,0,0,,,,,,,PAINT,C,m,m,./images/PAINT.png,,,,,,,,,,,,,,,,,,,,,,m,1,0.7152,,,,,,,,0,40,40,7,1
,,,,,,,,,,,,,,,,,6108696dc9d16e886749e495,20,2022-02-12_13h49.52.708,lexical_decision_task_DD_L3,2021.2.3,Win32,59.74072525,,,,,,,,,,,4.7453,0,,,,,,,,,,,,,,,,,,,,,,,,0.150925954,-0.354629686,1,0,0,,,,,,,STAIN,LB,z,m,./images/STAINLB.png,break_done_button,,,,,,,,,,,,,,,,,,,,,m,0,4.7453,,,,,,,,0,41,41,90,1
,,,,,,,,,,,,,,,,,6108696dc9d16e886749e495,20,2022-02-12_13h49.52.708,lexical_decision_task_DD_L3,2021.2.3,Win32,59.74072525,,,,,,,,,,,1.3256,1,,,,,,,,,,,,,,,,,,,,,,,,0.154629686,-0.358333333,0,0,0,,,,,,,SAUNA,LB,z,m,./images/SAUNALB.png,,,,,,,,,,,,,,,,,,,,,,z,1,1.3256,,,,,,,,0,42,42,117,1
,,,,,,,,,,,,,,,,,6108696dc9d16e886749e495,20,2022-02-12_13h49.52.708,lexical_decision_task_DD_L3,2021.2.3,Win32,59.74072525,,,,,,,,,,,0.7975,1,,,,,,,,,,,,,,,,,,,,,,,,0.154629686,-0.358333333,0,0,0,,,,,,,TWINS,LB,m,m,./images/TWINSLB.png,,,,,,,,,,,,,,,,,,,,,,m,1,0.7975,,,,,,,,0,43,43,60,1
,,,,,,,,,,,,,,,,,6108696dc9d16e886749e495,20,2022-02-12_13h49.52.708,lexical_decision_task_DD_L3,2021.2.3,Win32,59.74072525,,,,,,,,,,,1.8634,1,,,,,,,,,,,,,,,,,,,,,,,,0.154629686,-0.358333333,0,0,0,,,,,,,PISTOL,HB,z,m,./images/PISTOLHB.png,,,,,,,,,,,,,,,,,,,,,,z,1,1.8634,,,,,,,,0,44,44,113,1
,,,,,,,,,,,,,,,,,6108696dc9d16e886749e495,20,2022-02-12_13h49.52.708,lexical_decision_task_DD_L3,2021.2.3,Win32,59.74072525,,,,,,,,,,,2.0455,1,,,,,,,,,,,,,,,,,,,,,,,,0.154629686,-0.358333333,0,0,0,,,,,,,STATUE,LB,z,m,./images/STATUELB.png,,,,,,,,,,,,,,,,,,,,,,z,1,2.0455,,,,,,,,0,45,45,150,1
,,,,,,,,,,,,,,,,,6108696dc9d16e886749e495,20,2022-02-12_13h49.52.708,lexical_decision_task_DD_L3,2021.2.3,Win32,59.74072525,,,,,,,,,,,0.8349,1,,,,,,,,,,,,,,,,,,,,,,,,0.154629686,-0.358333333,0,0,0,,,,,,,BANANA,C,z,m,./images/BANANA.png,,,,,,,,,,,,,,,,,,,,,,z,1,0.8349,,,,,,,,0,46,46,154,1
,,,,,,,,,,,,,,,,,6108696dc9d16e886749e495,20,2022-02-12_13h49.52.708,lexical_decision_task_DD_L3,2021.2.3,Win32,59.74072525,,,,,,,,,,,1.0278,0,,,,,,,,,,,,,,,,,,,,,,,,0.154629686,-0.358333333,0,0,0,,,,,,,STORM,LB,m,m,./images/STORMLB.png,,,,,,,,,,,,,,,,,,,,,,z,0,1.0278,,,,,,,,0,47,47,30,1
,,,,,,,,,,,,,,,,,6108696dc9d16e886749e495,20,2022-02-12_13h49.52.708,lexical_decision_task_DD_L3,2021.2.3,Win32,59.74072525,,,,,,,,,,,3.1124,1,,,,,,,,,,,,,,,,,,,,,,,,0.154629686,-0.358333333,0,0,0,,,,,,,BEARD,HB,m,m,./images/BEARDHB.png,,,,,,,,,,,,,,,,,,,,,,m,1,3.1124,,,,,,,,0,48,48,2,1
,,,,,,,,,,,,,,,,,6108696dc9d16e886749e495,20,2022-02-12_13h49.52.708,lexical_decision_task_DD_L3,2021.2.3,Win32,59.74072525,,,,,,,,,,,1.4006,0,,,,,,,,,,,,,,,,,,,,,,,,0.154629686,-0.358333333,0,0,0,,,,,,,GRANNY,HB,z,m,./images/GRANNYHB.png,,,,,,,,,,,,,,,,,,,,,,m,0,1.4006,,,,,,,,0,49,49,104,1
,,,,,,,,,,,,,,,,,6108696dc9d16e886749e495,20,2022-02-12_13h49.52.708,lexical_decision_task_DD_L3,2021.2.3,Win32,59.74072525,,,,,,,,,,,1.2014,1,,,,,,,,,,,,,,,,,,,,,,,,0.154629686,-0.358333333,0,0,0,,,,,,,BUNNY,C,z,m,./images/BUNNY.png,,,,,,,,,,,,,,,,,,,,,,z,1,1.2014,,,,,,,,0,50,50,97,1
,,,,,,,,,,,,,,,,,6108696dc9d16e886749e495,20,2022-02-12_13h49.52.708,lexical_decision_task_DD_L3,2021.2.3,Win32,59.74072525,,,,,,,,,,,6.808,0,,,,,,,,,,,,,,,,,,,,,,,,0.154629686,-0.358333333,0,0,0,,,,,,,MIDGET,C,z,m,./images/MIDGET.png,,,,,,,,,,,,,,,,,,,,,,m,0,6.808,,,,,,,,0,51,51,160,1
,,,,,,,,,,,,,,,,,6108696dc9d16e886749e495,20,2022-02-12_13h49.52.708,lexical_decision_task_DD_L3,2021.2.3,Win32,59.74072525,,,,,,,,,,,0.7396,0,,,,,,,,,,,,,,,,,,,,,,,,0.154629686,-0.358333333,0,0,0,,,,,,,DONKEY,C,z,m,./images/DONKEY.png,,,,,,,,,,,,,,,,,,,,,,m,0,0.7396,,,,,,,,0,52,52,103,1
,,,,,,,,,,,,,,,,,6108696dc9d16e886749e495,20,2022-02-12_13h49.52.708,lexical_decision_task_DD_L3,2021.2.3,Win32,59.74072525,,,,,,,,,,,1.0168,0,,,,,,,,,,,,,,,,,,,,,,,,0.154629686,-0.358333333,0,0,0,,,,,,,MUSCLE,C,m,m,./images/MUSCLE.png,,,,,,,,,,,,,,,,,,,,,,z,0,1.0168,,,,,,,,0,53,53,4,1
,,,,,,,,,,,,,,,,,6108696dc9d16e886749e495,20,2022-02-12_13h49.52.708,lexical_decision_task_DD_L3,2021.2.3,Win32,59.74072525,,,,,,,,,,,1.2303,1,,,,,,,,,,,,,,,,,,,,,,,,0.154629686,-0.358333333,0,0,0,,,,,,,CEMENT,HB,m,m,./images/CEMENTHB.png,,,,,,,,,,,,,,,,,,,,,,m,1,1.2303,,,,,,,,0,54,54,74,1
,,,,,,,,,,,,,,,,,6108696dc9d16e886749e495,20,2022-02-12_13h49.52.708,lexical_decision_task_DD_L3,2021.2.3,Win32,59.74072525,,,,,,,,,,,1.4926,1,,,,,,,,,,,,,,,,,,,,,,,,0.154629686,-0.358333333,0,0,0,,,,,,,CHERRY,LB,z,m,./images/CHERRYLB.png,,,,,,,,,,,,,,,,,,,,,,z,1,1.4926,,,,,,,,0,55,55,138,1
,,,,,,,,,,,,,,,,,6108696dc9d16e886749e495,20,2022-02-12_13h49.52.708,lexical_decision_task_DD_L3,2021.2.3,Win32,59.74072525,,,,,,,,,,,0.7497,1,,,,,,,,,,,,,,,,,,,,,,,,0.154629686,-0.358333333,0,0,0,,,,,,,SHELF,LB,m,m,./images/SHELFLB.png,,,,,,,,,,,,,,,,,,,,,,m,1,0.7497,,,,,,,,0,56,56,39,1
,,,,,,,,,,,,,,,,,6108696dc9d16e886749e495,20,2022-02-12_13h49.52.708,lexical_decision_task_DD_L3,2021.2.3,Win32,59.74072525,,,,,,,,,,,0.8975,1,,,,,,,,,,,,,,,,,,,,,,,,0.154629686,-0.358333333,0,0,0,,,,,,,MOOSE,LB,m,m,./images/MOOSELB.png,,,,,,,,,,,,,,,,,,,,,,m,1,0.8975,,,,,,,,0,57,57,57,1
,,,,,,,,,,,,,,,,,6108696dc9d16e886749e495,20,2022-02-12_13h49.52.708,lexical_decision_task_DD_L3,2021.2.3,Win32,59.74072525,,,,,,,,,,,2.4234,1,,,,,,,,,,,,,,,,,,,,,,,,0.154629686,-0.358333333,0,0,0,,,,,,,MIRROR,LB,m,m,./images/MIRRORLB.png,,,,,,,,,,,,,,,,,,,,,,m,1,2.4234,,,,,,,,0,58,58,63,1
,,,,,,,,,,,,,,,,,6108696dc9d16e886749e495,20,2022-02-12_13h49.52.708,lexical_decision_task_DD_L3,2021.2.3,Win32,59.74072525,,,,,,,,,,,2.0369,0,,,,,,,,,,,,,,,,,,,,,,,,0.154629686,-0.358333333,0,0,0,,,,,,,TIGER,C,z,m,./images/TIGER.png,,,,,,,,,,,,,,,,,,,,,,m,0,2.0369,,,,,,,,0,59,59,121,1
,,,,,,,,,,,,,,,,,6108696dc9d16e886749e495,20,2022-02-12_13h49.52.708,lexical_decision_task_DD_L3,2021.2.3,Win32,59.74072525,,,,,,,,,,,1.1492,1,,,,,,,,,,,,,,,,,,,,,,,,0.154629686,-0.358333333,0,0,0,,,,,,,INFANT,C,m,m,./images/INFANT.png,,,,,,,,,,,,,,,,,,,,,,m,1,1.1492,,,,,,,,0,60,60,76,1
,,,,,,,,,,,,,,,,,6108696dc9d16e886749e495,20,2022-02-12_13h49.52.708,lexical_decision_task_DD_L3,2021.2.3,Win32,59.74072525,,,,,,,,,,,1.5842,1,,,,,,,,,,,,,,,,,,,,,,,,0.154629686,-0.358333333,0,0,0,,,,,,,PARCEL,LB,z,m,./images/PARCELLB.png,,,,,,,,,,,,,,,,,,,,,,z,1,1.5842,,,,,,,,0,61,61,102,1
,,,,,,,,,,,,,,,,,6108696dc9d16e886749e495,20,2022-02-12_13h49.52.708,lexical_decision_task_DD_L3,2021.2.3,Win32,59.74072525,,,,,,,,,,,4.4868,0,,,,,,,,,,,,,,,,,,,,,,,,0.154629686,-0.358333333,0,0,0,,,,,,,CRATER,LB,z,m,./images/CRATERLB.png,,,,,,,,,,,,,,,,,,,,,,m,0,4.4868,,,,,,,,0,62,62,87,1
,,,,,,,,,,,,,,,,,6108696dc9d16e886749e495,20,2022-02-12_13h49.52.708,lexical_decision_task_DD_L3,2021.2.3,Win32,59.74072525,,,,,,,,,,,0.7533,1,,,,,,,,,,,,,,,,,,,,,,,,0.154629686,-0.358333333,0,0,0,,,,,,,CHALK,C,z,m,./images/CHALK.png,,,,,,,,,,,,,,,,,,,,,,z,1,0.7533,,,,,,,,0,63,63,109,1
,,,,,,,,,,,,,,,,,6108696dc9d16e886749e495,20,2022-02-12_13h49.52.708,lexical_decision_task_DD_L3,2021.2.3,Win32,59.74072525,,,,,,,,,,,5.9373,1,,,,,,,,,,,,,,,,,,,,,,,,0.154629686,-0.358333333,0,0,0,,,,,,,WAGON,C,z,m,./images/WAGON.png,,,,,,,,,,,,,,,,,,,,,,z,1,5.9373,,,,,,,,0,64,64,91,1
,,,,,,,,,,,,,,,,,6108696dc9d16e886749e495,20,2022-02-12_13h49.52.708,lexical_decision_task_DD_L3,2021.2.3,Win32,59.74072525,,,,,,,,,,,1.241,1,,,,,,,,,,,,,,,,,,,,,,,,0.154629686,-0.358333333,0,0,0,,,,,,,TOMATO,LB,m,m,./images/TOMATOLB.png,,,,,,,,,,,,,,,,,,,,,,m,1,1.241,,,,,,,,0,65,65,0,1
,,,,,,,,,,,,,,,,,6108696dc9d16e886749e495,20,2022-02-12_13h49.52.708,lexical_decision_task_DD_L3,2021.2.3,Win32,59.74072525,,,,,,,,,,,6.1522,1,,,,,,,,,,,,,,,,,,,,,,,,0.154629686,-0.358333333,0,0,0,,,,,,,TOWEL,C,z,m,./images/TOWEL.png,,,,,,,,,,,,,,,,,,,,,,z,1,6.1522,,,,,,,,0,66,66,85,1
,,,,,,,,,,,,,,,,,6108696dc9d16e886749e495,20,2022-02-12_13h49.52.708,lexical_decision_task_DD_L3,2021.2.3,Win32,59.74072525,,,,,,,,,,,1.4771,1,,,,,,,,,,,,,,,,,,,,,,,,0.154629686,-0.358333333,0,0,0,,,,,,,SNACK,C,m,m,./images/SNACK.png,,,,,,,,,,,,,,,,,,,,,,m,1,1.4771,,,,,,,,0,67,67,73,1
,,,,,,,,,,,,,,,,,6108696dc9d16e886749e495,20,2022-02-12_13h49.52.708,lexical_decision_task_DD_L3,2021.2.3,Win32,59.74072525,,,,,,,,,,,0.9274,0,,,,,,,,,,,,,,,,,,,,,,,,0.154629686,-0.358333333,0,0,0,,,,,,,RAZOR,C,z,m,./images/RAZOR.png,,,,,,,,,,,,,,,,,,,,,,m,0,0.9274,,,,,,,,0,68,68,118,1
,,,,,,,,,,,,,,,,,6108696dc9d16e886749e495,20,2022-02-12_13h49.52.708,lexical_decision_task_DD_L3,2021.2.3,Win32,59.74072525,,,,,,,,,,,0.83,0,,,,,,,,,,,,,,,,,,,,,,,,0.154629686,-0.358333333,0,0,0,,,,,,,WRIST,C,m,m,./images/WRIST.png,,,,,,,,,,,,,,,,,,,,,,z,0,0.83,,,,,,,,0,69,69,25,1
,,,,,,,,,,,,,,,,,6108696dc9d16e886749e495,20,2022-02-12_13h49.52.708,lexical_decision_task_DD_L3,2021.2.3,Win32,59.74072525,,,,,,,,,,,1.0197,1,,,,,,,,,,,,,,,,,,,,,,,,0.154629686,-0.358333333,0,0,0,,,,,,,WALRUS,HB,m,m,./images/WALRUSHB.png,,,,,,,,,,,,,,,,,,,,,,m,1,1.0197,,,,,,,,0,70,70,23,1
,,,,,,,,,,,,,,,,,6108696dc9d16e886749e495,20,2022-02-12_13h49.52.708,lexical_decision_task_DD_L3,2021.2.3,Win32,59.74072525,,,,,,,,,,,2.2933,1,,,,,,,,,,,,,,,,,,,,,,,,0.154629686,-0.358333333,0,0,0,,,,,,,QUILL,C,m,m,./images/QUILL.png,,,,,,,,,,,,,,,,,,,,,,m,1,2.2933,,,,,,,,0,71,71,31,1
,,,,,,,,,,,,,,,,,6108696dc9d16e886749e495,20,2022-02-12_13h49.52.708,lexical_decision_task_DD_L3,2021.2.3,Win32,59.74072525,,,,,,,,,,,1.2605,0,,,,,,,,,,,,,,,,,,,,,,,,0.154629686,-0.358333333,0,0,0,,,,,,,NOOSE,LB,m,m,./images/NOOSELB.png,,,,,,,,,,,,,,,,,,,,,,z,0,1.2605,,,,,,,,0,72,72,72,1
,,,,,,,,,,,,,,,,,6108696dc9d16e886749e495,20,2022-02-12_13h49.52.708,lexical_decision_task_DD_L3,2021.2.3,Win32,59.74072525,,,,,,,,,,,1.1764,1,,,,,,,,,,,,,,,,,,,,,,,,0.154629686,-0.358333333,0,0,0,,,,,,,FERRY,LB,z,m,./images/FERRYLB.png,,,,,,,,,,,,,,,,,,,,,,z,1,1.1764,,,,,,,,0,73,73,141,1
,,,,,,,,,,,,,,,,,6108696dc9d16e886749e495,20,2022-02-12_13h49.52.708,lexical_decision_task_DD_L3,2021.2.3,Win32,59.74072525,,,,,,,,,,,1.3847,1,,,,,,,,,,,,,,,,,,,,,,,,0.154629686,-0.358333333,0,0,0,,,,,,,SHORE,LB,m,m,./images/SHORELB.png,,,,,,,,,,,,,,,,,,,,,,m,1,1.3847,,,,,,,,0,74,74,12,1
,,,,,,,,,,,,,,,,,6108696dc9d16e886749e495,20,2022-02-12_13h49.52.708,lexical_decision_task_DD_L3,2021.2.3,Win32,59.74072525,,,,,,,,,,,1.2189,0,,,,,,,,,,,,,,,,,,,,,,,,0.154629686,-0.358333333,0,0,0,,,,,,,WEASEL,HB,m,m,./images/WEASELHB.png,,,,,,,,,,,,,,,,,,,,,,z,0,1.2189,,,,,,,,0,75,75,80,1
,,,,,,,,,,,,,,,,,6108696dc9d16e886749e495,20,2022-02-12_13h49.52.708,lexical_decision_task_DD_L3,2021.2.3,Win32,59.74072525,,,,,,,,,,,3.1429,1,,,,,,,,,,,,,,,,,,,,,,,,0.154629686,-0.358333333,0,0,0,,,,,,,SWEAT,LB,m,m,./images/SWEATLB.png,,,,,,,,,,,,,,,,,,,,,,m,1,3.1429,,,,,,,,0,76,76,66,1
,,,,,,,,,,,,,,,,,6108696dc9d16e886749e495,20,2022-02-12_13h49.52.708,lexical_decision_task_DD_L3,2021.2.3,Win32,59.74072525,,,,,,,,,,,3.8826,0,,,,,,,,,,,,,,,,,,,,,,,,0.154629686,-0.358333333,0,0,0,,,,,,,CRUMB,HB,m,m,./images/CRUMBHB.png,,,,,,,,,,,,,,,,,,,,,,z,0,3.8826,,,,,,,,0,77,77,29,1
,,,,,,,,,,,,,,,,,6108696dc9d16e886749e495,20,2022-02-12_13h49.52.708,lexical_decision_task_DD_L3,2021.2.3,Win32,59.74072525,,,,,,,,,,,3.0811,1,,,,,,,,,,,,,,,,,,,,,,,,0.154629686,-0.358333333,0,0,0,,,,,,,KITTEN,LB,m,m,./images/KITTENLB.png,,,,,,,,,,,,,,,,,,,,,,m,1,3.0811,,,,,,,,0,78,78,45,1
,,,,,,,,,,,,,,,,,6108696dc9d16e886749e495,20,2022-02-12_13h49.52.708,lexical_decision_task_DD_L3,2021.2.3,Win32,59.74072525,,,,,,,,,,,0.6689,1,,,,,,,,,,,,,,,,,,,,,,,,0.154629686,-0.358333333,0,0,0,,,,,,,BERRY,HB,m,m,./images/BERRYHB.png,,,,,,,,,,,,,,,,,,,,,,m,1,0.6689,,,,,,,,0,79,79,47,1
,,,,,,,,,,,,,,,,,6108696dc9d16e886749e495,20,2022-02-12_13h49.52.708,lexical_decision_task_DD_L3,2021.2.3,Win32,59.74072525,,,,,,,,,,,0.8014,0,,,,,,,,,,,,,,,,,,,,,,,,0.154629686,-0.358333333,0,0,0,,,,,,,BANNER,C,m,m,./images/BANNER.png,,,,,,,,,,,,,,,,,,,,,,z,0,0.8014,,,,,,,,0,80,80,52,1
,,,,,,,,,,,,,,,,,6108696dc9d16e886749e495,20,2022-02-12_13h49.52.708,lexical_decision_task_DD_L3,2021.2.3,Win32,59.74072525,,,,,,,,,,,2.0761,1,,,,,,,,,,,,,,,,,,,,,,,,0.154629686,-0.358333333,0,0,0,,,,,,,BISHOP,C,z,m,./images/BISHOP.png,,,,,,,,,,,,,,,,,,,,,,z,1,2.0761,,,,,,,,0,81,81,133,1
,,,,,,,,,,,,,,,,,6108696dc9d16e886749e495,20,2022-02-12_13h49.52.708,lexical_decision_task_DD_L3,2021.2.3,Win32,59.74072525,,,,,,,,,,,2.4343,1,,,,,,,,,,,,,,,,,,,,,,,,0.154629686,-0.358333333,0,0,0,,,,,,,DOUGH,C,m,m,./images/DOUGH.png,,,,,,,,,,,,,,,,,,,,,,m,1,2.4343,,,,,,,,0,82,82,19,1
,,,,,,,,,,,,,,,,,6108696dc9d16e886749e495,20,2022-02-12_13h49.52.708,lexical_decision_task_DD_L3,2021.2.3,Win32,59.74072525,,,,,,,,,,,1.0585,1,,,,,,,,,,,,,,,,,,,,,,,,-0.03518516,-0.398148175,1,0,0,,,,,,,BUBBLE,HB,z,m,./images/BUBBLEHB.png,break_done_button,,,,,,,,,,,,,,,,,,,,,z,1,1.0585,,,,,,,,0,83,83,155,1
,,,,,,,,,,,,,,,,,6108696dc9d16e886749e495,20,2022-02-12_13h49.52.708,lexical_decision_task_DD_L3,2021.2.3,Win32,59.74072525,,,,,,,,,,,1.0863,1,,,,,,,,,,,,,,,,,,,,,,,,-0.03518516,-0.398148175,0,0,0,,,,,,,MUFFIN,C,m,m,./images/MUFFIN.png,,,,,,,,,,,,,,,,,,,,,,m,1,1.0863,,,,,,,,0,84,84,55,1
,,,,,,,,,,,,,,,,,6108696dc9d16e886749e495,20,2022-02-12_13h49.52.708,lexical_decision_task_DD_L3,2021.2.3,Win32,59.74072525,,,,,,,,,,,0.931,0,,,,,,,,,,,,,,,,,,,,,,,,-0.03518516,-0.398148175,0,0,0,,,,,,,GREASE,LB,m,m,./images/GREASELB.png,,,,,,,,,,,,,,,,,,,,,,z,0,0.931,,,,,,,,0,85,85,15,1
,,,,,,,,,,,,,,,,,6108696dc9d16e886749e495,20,2022-02-12_13h49.52.708,lexical_decision_task_DD_L3,2021.2.3,Win32,59.74072525,,,,,,,,,,,0.7684,1,,,,,,,,,,,,,,,,,,,,,,,,-0.03518516,-0.398148175,0,0,0,,,,,,,URINE,C,m,m,./images/URINE.png,,,,,,,,,,,,,,,,,,,,,,m,1,0.7684,,,,,,,,0,86,86,70,1
,,,,,,,,,,,,,,,,,6108696dc9d16e886749e495,20,2022-02-12_13h49.52.708,lexical_decision_task_DD_L3,2021.2.3,Win32,59.74072525,,,,,,,,,,,0.5698,0,,,,,,,,,,,,,,,,,,,,,,,,-0.03518516,-0.398148175,0,0,0,,,,,,,MEDAL,HB,z,m,./images/MEDALHB.png,,,,,,,,,,,,,,,,,,,,,,m,0,0.5698,,,,,,,,0,87,87,95,1
,,,,,,,,,,,,,,,,,6108696dc9d16e886749e495,20,2022-02-12_13h49.52.708,lexical_decision_task_DD_L3,2021.2.3,Win32,59.74072525,,,,,,,,,,,0.6291,1,,,,,,,,,,,,,,,,,,,,,,,,-0.03518516,-0.398148175,0,0,0,,,,,,,LITTER,LB,m,m,./images/LITTERLB.png,,,,,,,,,,,,,,,,,,,,,,m,1,0.6291,,,,,,,,0,88,88,78,1
,,,,,,,,,,,,,,,,,6108696dc9d16e886749e495,20,2022-02-12_13h49.52.708,lexical_decision_task_DD_L3,2021.2.3,Win32,59.74072525,,,,,,,,,,,0.7449,0,,,,,,,,,,,,,,,,,,,,,,,,-0.03518516,-0.398148175,0,0,0,,,,,,,ENGINE,HB,z,m,./images/ENGINEHB.png,,,,,,,,,,,,,,,,,,,,,,m,0,0.7449,,,,,,,,0,89,89,122,1
,,,,,,,,,,,,,,,,,6108696dc9d16e886749e495,20,2022-02-12_13h49.52.708,lexical_decision_task_DD_L3,2021.2.3,Win32,59.74072525,,,,,,,,,,,0.9803,1,,,,,,,,,,,,,,,,,,,,,,,,-0.03518516,-0.398148175,0,0,0,,,,,,,CLIFF,HB,z,m,./images/CLIFFHB.png,,,,,,,,,,,,,,,,,,,,,,z,1,0.9803,,,,,,,,0,90,90,92,1
,,,,,,,,,,,,,,,,,6108696dc9d16e886749e495,20,2022-02-12_13h49.52.708,lexical_decision_task_DD_L3,2021.2.3,Win32,59.74072525,,,,,,,,,,,1.0177,1,,,,,,,,,,,,,,,,,,,,,,,,-0.03518516,-0.398148175,0,0,0,,,,,,,SHIELD,LB,z,m,./images/SHIELDLB.png,,,,,,,,,,,,,,,,,,,,,,z,1,1.0177,,,,,,,,0,91,91,132,1
,,,,,,,,,,,,,,,,,6108696dc9d16e886749e495,20,2022-02-12_13h49.52.708,lexical_decision_task_DD_L3,2021.2.3,Win32,59.74072525,,,,,,,,,,,0.6999,1,,,,,,,,,,,,,,,,,,,,,,,,-0.03518516,-0.398148175,0,0,0,,,,,,,SMOKER,HB,m,m,./images/SMOKERHB.png,,,,,,,,,,,,,,,,,,,,,,m,1,0.6999,,,,,,,,0,92,92,26,1
,,,,,,,,,,,,,,,,,6108696dc9d16e886749e495,20,2022-02-12_13h49.52.708,lexical_decision_task_DD_L3,2021.2.3,Win32,59.74072525,,,,,,,,,,,0.9219,1,,,,,,,,,,,,,,,,,,,,,,,,-0.03518516,-0.398148175,0,0,0,,,,,,,STREAM,HB,z,m,./images/STREAMHB.png,,,,,,,,,,,,,,,,,,,,,,z,1,0.9219,,,,,,,,0,93,93,125,1
,,,,,,,,,,,,,,,,,6108696dc9d16e886749e495,20,2022-02-12_13h49.52.708,lexical_decision_task_DD_L3,2021.2.3,Win32,59.74072525,,,,,,,,,,,1.8142,0,,,,,,,,,,,,,,,,,,,,,,,,-0.03518516,-0.398148175,0,0,0,,,,,,,MONKEY,LB,z,m,./images/MONKEYLB.png,,,,,,,,,,,,,,,,,,,,,,m,0,1.8142,,,,,,,,0,94,94,129,1
,,,,,,,,,,,,,,,,,6108696dc9d16e886749e495,20,2022-02-12_13h49.52.708,lexical_decision_task_DD_L3,2021.2.3,Win32,59.74072525,,,,,,,,,,,1.8494,1,,,,,,,,,,,,,,,,,,,,,,,,-0.03518516,-0.398148175,0,0,0,,,,,,,DIVER,LB,z,m,./images/DIVERLB.png,,,,,,,,,,,,,,,,,,,,,,z,1,1.8494,,,,,,,,0,95,95,93,1
,,,,,,,,,,,,,,,,,6108696dc9d16e886749e495,20,2022-02-12_13h49.52.708,lexical_decision_task_DD_L3,2021.2.3,Win32,59.74072525,,,,,,,,,,,2.6217,0,,,,,,,,,,,,,,,,,,,,,,,,-0.03518516,-0.398148175,0,0,0,,,,,,,PEARL,C,m,m,./images/PEARL.png,,,,,,,,,,,,,,,,,,,,,,z,0,2.6217,,,,,,,,0,96,96,46,1
,,,,,,,,,,,,,,,,,6108696dc9d16e886749e495,20,2022-02-12_13h49.52.708,lexical_decision_task_DD_L3,2021.2.3,Win32,59.74072525,,,,,,,,,,,13.8012,0,,,,,,,,,,,,,,,,,,,,,,,,-0.03518516,-0.398148175,0,0,0,,,,,,,BAMBOO,HB,z,m,./images/BAMBOOHB.png,,,,,,,,,,,,,,,,,,,,,,m,0,13.8012,,,,,,,,0,97,97,89,1
,,,,,,,,,,,,,,,,,6108696dc9d16e886749e495,20,2022-02-12_13h49.52.708,lexical_decision_task_DD_L3,2021.2.3,Win32,59.74072525,,,,,,,,,,,0.7847,1,,,,,,,,,,,,,,,,,,,,,,,,-0.03518516,-0.398148175,0,0,0,,,,,,,SAILOR,C,m,m,./images/SAILOR.png,,,,,,,,,,,,,,,,,,,,,,m,1,0.7847,,,,,,,,0,98,98,67,1
,,,,,,,,,,,,,,,,,6108696dc9d16e886749e495,20,2022-02-12_13h49.52.708,lexical_decision_task_DD_L3,2021.2.3,Win32,59.74072525,,,,,,,,,,,1.4273,0,,,,,,,,,,,,,,,,,,,,,,,,-0.03518516,-0.398148175,0,0,0,,,,,,,COLLAR,LB,z,m,./images/COLLARLB.png,,,,,,,,,,,,,,,,,,,,,,m,0,1.4273,,,,,,,,0,99,99,99,1
,,,,,,,,,,,,,,,,,6108696dc9d16e886749e495,20,2022-02-12_13h49.52.708,lexical_decision_task_DD_L3,2021.2.3,Win32,59.74072525,,,,,,,,,,,1.0351,0,,,,,,,,,,,,,,,,,,,,,,,,-0.03518516,-0.398148175,0,0,0,,,,,,,JELLY,C,m,m,./images/JELLY.png,,,,,,,,,,,,,,,,,,,,,,z,0,1.0351,,,,,,,,0,100,100,64,1
,,,,,,,,,,,,,,,,,6108696dc9d16e886749e495,20,2022-02-12_13h49.52.708,lexical_decision_task_DD_L3,2021.2.3,Win32,59.74072525,,,,,,,,,,,2.1058,1,,,,,,,,,,,,,,,,,,,,,,,,-0.03518516,-0.398148175,0,0,0,,,,,,,FLESH,LB,z,m,./images/FLESHLB.png,,,,,,,,,,,,,,,,,,,,,,z,1,2.1058,,,,,,,,0,101,101,108,1
,,,,,,,,,,,,,,,,,6108696dc9d16e886749e495,20,2022-02-12_13h49.52.708,lexical_decision_task_DD_L3,2021.2.3,Win32,59.74072525,,,,,,,,,,,0.8453,0,,,,,,,,,,,,,,,,,,,,,,,,-0.03518516,-0.398148175,0,0,0,,,,,,,ONION,LB,m,m,./images/ONIONLB.png,,,,,,,,,,,,,,,,,,,,,,z,0,0.8453,,,,,,,,0,102,102,51,1
,,,,,,,,,,,,,,,,,6108696dc9d16e886749e495,20,2022-02-12_13h49.52.708,lexical_decision_task_DD_L3,2021.2.3,Win32,59.74072525,,,,,,,,,,,1.9826,1,,,,,,,,,,,,,,,,,,,,,,,,-0.03518516,-0.398148175,0,0,0,,,,,,,BONNET,HB,m,m,./images/BONNETHB.png,,,,,,,,,,,,,,,,,,,,,,m,1,1.9826,,,,,,,,0,103,103,11,1
,,,,,,,,,,,,,,,,,6108696dc9d16e886749e495,20,2022-02-12_13h49.52.708,lexical_decision_task_DD_L3,2021.2.3,Win32,59.74072525,,,,,,,,,,,6.1199,1,,,,,,,,,,,,,,,,,,,,,,,,-0.03518516,-0.398148175,0,0,0,,,,,,,SLOPE,LB,z,m,./images/SLOPELB.png,,,,,,,,,,,,,,,,,,,,,,z,1,6.1199,,,,,,,,0,104,104,114,1
,,,,,,,,,,,,,,,,,6108696dc9d16e886749e495,20,2022-02-12_13h49.52.708,lexical_decision_task_DD_L3,2021.2.3,Win32,59.74072525,,,,,,,,,,,1.1341,1,,,,,,,,,,,,,,,,,,,,,,,,-0.03518516,-0.398148175,0,0,0,,,,,,,ALLEY,C,z,m,./images/ALLEY.png,,,,,,,,,,,,,,,,,,,,,,z,1,1.1341,,,,,,,,0,105,105,139,1
,,,,,,,,,,,,,,,,,6108696dc9d16e886749e495,20,2022-02-12_13h49.52.708,lexical_decision_task_DD_L3,2021.2.3,Win32,59.74072525,,,,,,,,,,,0.7124,1,,,,,,,,,,,,,,,,,,,,,,,,-0.03518516,-0.398148175,0,0,0,,,,,,,GARDEN,C,z,m,./images/GARDEN.png,,,,,,,,,,,,,,,,,,,,,,z,1,0.7124,,,,,,,,0,106,106,94,1
,,,,,,,,,,,,,,,,,6108696dc9d16e886749e495,20,2022-02-12_13h49.52.708,lexical_decision_task_DD_L3,2021.2.3,Win32,59.74072525,,,,,,,,,,,2.2022,0,,,,,,,,,,,,,,,,,,,,,,,,-0.03518516,-0.398148175,0,0,0,,,,,,,BURIAL,HB,m,m,./images/BURIALHB.png,,,,,,,,,,,,,,,,,,,,,,z,0,2.2022,,,,,,,,0,107,107,59,1
,,,,,,,,,,,,,,,,,6108696dc9d16e886749e495,20,2022-02-12_13h49.52.708,lexical_decision_task_DD_L3,2021.2.3,Win32,59.74072525,,,,,,,,,,,4.383,1,,,,,,,,,,,,,,,,,,,,,,,,-0.03518516,-0.398148175,0,0,0,,,,,,,CHAIN,LB,z,m,./images/CHAINLB.png,,,,,,,,,,,,,,,,,,,,,,z,1,4.383,,,,,,,,0,108,108,126,1
,,,,,,,,,,,,,,,,,6108696dc9d16e886749e495,20,2022-02-12_13h49.52.708,lexical_decision_task_DD_L3,2021.2.3,Win32,59.74072525,,,,,,,,,,,1.23,0,,,,,,,,,,,,,,,,,,,,,,,,-0.03518516,-0.398148175,0,0,0,,,,,,,STRING,HB,m,m,./images/STRINGHB.png,,,,,,,,,,,,,,,,,,,,,,z,0,1.23,,,,,,,,0,109,109,41,1
,,,,,,,,,,,,,,,,,6108696dc9d16e886749e495,20,2022-02-12_13h49.52.708,lexical_decision_task_DD_L3,2021.2.3,Win32,59.74072525,,,,,,,,,,,1.4157,1,,,,,,,,,,,,,,,,,,,,,,,,-0.03518516,-0.398148175,0,0,0,,,,,,,DRILL,LB,z,m,./images/DRILLLB.png,,,,,,,,,,,,,,,,,,,,,,z,1,1.4157,,,,,,,,0,110,110,165,1
,,,,,,,,,,,,,,,,,6108696dc9d16e886749e495,20,2022-02-12_13h49.52.708,lexical_decision_task_DD_L3,2021.2.3,Win32,59.74072525,,,,,,,,,,,0.7092,1,,,,,,,,,,,,,,,,,,,,,,,,-0.03518516,-0.398148175,0,0,0,,,,,,,LADDER,HB,m,m,./images/LADDERHB.png,,,,,,,,,,,,,,,,,,,,,,m,1,0.7092,,,,,,,,0,111,111,38,1
,,,,,,,,,,,,,,,,,6108696dc9d16e886749e495,20,2022-02-12_13h49.52.708,lexical_decision_task_DD_L3,2021.2.3,Win32,59.74072525,,,,,,,,,,,1.8825,1,,,,,,,,,,,,,,,,,,,,,,,,-0.03518516,-0.398148175,0,0,0,,,,,,,THROAT,LB,m,m,./images/THROATLB.png,,,,,,,,,,,,,,,,,,,,,,m,1,1.8825,,,,,,,,0,112,112,36,1
,,,,,,,,,,,,,,,,,6108696dc9d16e886749e495,20,2022-02-12_13h49.52.708,lexical_decision_task_DD_L3,2021.2.3,Win32,59.74072525,,,,,,,,,,,0.7519,0,,,,,,,,,,,,,,,,,,,,,,,,-0.03518516,-0.398148175,0,0,0,,,,,,,STOVE,HB,z,m,./images/STOVEHB.png,,,,,,,,,,,,,,,,,,,,,,m,0,0.7519,,,,,,,,0,113,113,86,1
,,,,,,,,,,,,,,,,,6108696dc9d16e886749e495,20,2022-02-12_13h49.52.708,lexical_decision_task_DD_L3,2021.2.3,Win32,59.74072525,,,,,,,,,,,1.2891,1,,,,,,,,,,,,,,,,,,,,,,,,-0.03518516,-0.398148175,0,0,0,,,,,,,BOXER,C,z,m,./images/BOXER.png,,,,,,,,,,,,,,,,,,,,,,z,1,1.2891,,,,,,,,0,114,114,88,1
,,,,,,,,,,,,,,,,,6108696dc9d16e886749e495,20,2022-02-12_13h49.52.708,lexical_decision_task_DD_L3,2021.2.3,Win32,59.74072525,,,,,,,,,,,0.7339,0,,,,,,,,,,,,,,,,,,,,,,,,-0.03518516,-0.398148175,0,0,0,,,,,,,SQUARE,LB,m,m,./images/SQUARELB.png,,,,,,,,,,,,,,,,,,,,,,z,0,0.7339,,,,,,,,0,115,115,6,1
,,,,,,,,,,,,,,,,,6108696dc9d16e886749e495,20,2022-02-12_13h49.52.708,lexical_decision_task_DD_L3,2021.2.3,Win32,59.74072525,,,,,,,,,,,0.9524,1,,,,,,,,,,,,,,,,,,,,,,,,-0.03518516,-0.398148175,0,0,0,,,,,,,STOOL,C,z,m,./images/STOOL.png,,,,,,,,,,,,,,,,,,,,,,z,1,0.9524,,,,,,,,0,116,116,127,1
,,,,,,,,,,,,,,,,,6108696dc9d16e886749e495,20,2022-02-12_13h49.52.708,lexical_decision_task_DD_L3,2021.2.3,Win32,59.74072525,,,,,,,,,,,3.7447,0,,,,,,,,,,,,,,,,,,,,,,,,-0.03518516,-0.398148175,0,0,0,,,,,,,FINGER,LB,m,m,./images/FINGERLB.png,,,,,,,,,,,,,,,,,,,,,,z,0,3.7447,,,,,,,,0,117,117,3,1
,,,,,,,,,,,,,,,,,6108696dc9d16e886749e495,20,2022-02-12_13h49.52.708,lexical_decision_task_DD_L3,2021.2.3,Win32,59.74072525,,,,,,,,,,,1.3774,0,,,,,,,,,,,,,,,,,,,,,,,,-0.03518516,-0.398148175,0,0,0,,,,,,,GRAPE,C,z,m,./images/GRAPE.png,,,,,,,,,,,,,,,,,,,,,,m,0,1.3774,,,,,,,,0,118,118,100,1
,,,,,,,,,,,,,,,,,6108696dc9d16e886749e495,20,2022-02-12_13h49.52.708,lexical_decision_task_DD_L3,2021.2.3,Win32,59.74072525,,,,,,,,,,,1.1168,1,,,,,,,,,,,,,,,,,,,,,,,,-0.03518516,-0.398148175,0,0,0,,,,,,,CASINO,C,z,m,./images/CASINO.png,,,,,,,,,,,,,,,,,,,,,,z,1,1.1168,,,,,,,,0,119,119,112,1
,,,,,,,,,,,,,,,,,6108696dc9d16e886749e495,20,2022-02-12_13h49.52.708,lexical_decision_task_DD_L3,2021.2.3,Win32,59.74072525,,,,,,,,,,,0.7774,1,,,,,,,,,,,,,,,,,,,,,,,,-0.03518516,-0.398148175,0,0,0,,,,,,,ARTIST,C,z,m,./images/ARTIST.png,,,,,,,,,,,,,,,,,,,,,,z,1,0.7774,,,,,,,,0,120,120,145,1
,,,,,,,,,,,,,,,,,6108696dc9d16e886749e495,20,2022-02-12_13h49.52.708,lexical_decision_task_DD_L3,2021.2.3,Win32,59.74072525,,,,,,,,,,,0.7871,0,,,,,,,,,,,,,,,,,,,,,,,,-0.03518516,-0.398148175,0,0,0,,,,,,,PILOT,HB,z,m,./images/PILOTHB.png,,,,,,,,,,,,,,,,,,,,,,m,0,0.7871,,,,,,,,0,121,121,134,1
,,,,,,,,,,,,,,,,,6108696dc9d16e886749e495,20,2022-02-12_13h49.52.708,lexical_decision_task_DD_L3,2021.2.3,Win32,59.74072525,,,,,,,,,,,0.7922,0,,,,,,,,,,,,,,,,,,,,,,,,-0.03518516,-0.398148175,0,0,0,,,,,,,TRIPOD,LB,m,m,./images/TRIPODLB.png,,,,,,,,,,,,,,,,,,,,,,z,0,0.7922,,,,,,,,0,122,122,54,1
,,,,,,,,,,,,,,,,,6108696dc9d16e886749e495,20,2022-02-12_13h49.52.708,lexical_decision_task_DD_L3,2021.2.3,Win32,59.74072525,,,,,,,,,,,1.318,1,,,,,,,,,,,,,,,,,,,,,,,,-0.03518516,-0.398148175,0,0,0,,,,,,,PLANET,HB,z,m,./images/PLANETHB.png,,,,,,,,,,,,,,,,,,,,,,z,1,1.318,,,,,,,,0,123,123,164,1
,,,,,,,,,,,,,,,,,6108696dc9d16e886749e495,20,2022-02-12_13h49.52.708,lexical_decision_task_DD_L3,2021.2.3,Win32,59.74072525,,,,,,,,,,,0.7931,1,,,,,,,,,,,,,,,,,,,,,,,,-0.03518516,-0.398148175,0,0,0,,,,,,,PEBBLE,C,z,m,./images/PEBBLE.png,,,,,,,,,,,,,,,,,,,,,,z,1,0.7931,,,,,,,,0,124,124,166,1
,,,,,,,,,,,,,,,,,6108696dc9d16e886749e495,20,2022-02-12_13h49.52.708,lexical_decision_task_DD_L3,2021.2.3,Win32,59.74072525,,,,,,,,,,,0.8108,1,,,,,,,,,,,,,,,,,,,,,,,,0.038888889,-0.404629686,1,0,0,,,,,,,GLOVE,C,z,m,./images/GLOVE.png,break_done_button,,,,,,,,,,,,,,,,,,,,,z,1,0.8108,,,,,,,,0,125,125,157,1
,,,,,,,,,,,,,,,,,6108696dc9d16e886749e495,20,2022-02-12_13h49.52.708,lexical_decision_task_DD_L3,2021.2.3,Win32,59.74072525,,,,,,,,,,,1.6469,1,,,,,,,,,,,,,,,,,,,,,,,,0.036111111,-0.405555556,0,0,0,,,,,,,POODLE,LB,m,m,./images/POODLELB.png,,,,,,,,,,,,,,,,,,,,,,m,1,1.6469,,,,,,,,0,126,126,81,1
,,,,,,,,,,,,,,,,,6108696dc9d16e886749e495,20,2022-02-12_13h49.52.708,lexical_decision_task_DD_L3,2021.2.3,Win32,59.74072525,,,,,,,,,,,1.1349,1,,,,,,,,,,,,,,,,,,,,,,,,0.036111111,-0.405555556,0,0,0,,,,,,,CLOWN,C,z,m,./images/CLOWN.png,,,,,,,,,,,,,,,,,,,,,,z,1,1.1349,,,,,,,,0,127,127,106,1
,,,,,,,,,,,,,,,,,6108696dc9d16e886749e495,20,2022-02-12_13h49.52.708,lexical_decision_task_DD_L3,2021.2.3,Win32,59.74072525,,,,,,,,,,,0.9195,1,,,,,,,,,,,,,,,,,,,,,,,,0.036111111,-0.405555556,0,0,0,,,,,,,TORCH,HB,m,m,./images/TORCHHB.png,,,,,,,,,,,,,,,,,,,,,,m,1,0.9195,,,,,,,,0,128,128,68,1
,,,,,,,,,,,,,,,,,6108696dc9d16e886749e495,20,2022-02-12_13h49.52.708,lexical_decision_task_DD_L3,2021.2.3,Win32,59.74072525,,,,,,,,,,,0.8188,0,,,,,,,,,,,,,,,,,,,,,,,,0.036111111,-0.405555556,0,0,0,,,,,,,CURRY,LB,z,m,./images/CURRYLB.png,,,,,,,,,,,,,,,,,,,,,,m,0,0.8188,,,,,,,,0,129,129,144,1
