key_resp.keys,key_resp.rt,instr_done_touch.x,instr_done_touch.y,instr_done_touch.leftButton,instr_done_touch.midButton,instr_done_touch.rightButton,instruction_pages.thisRepN,instruction_pages.thisTrialN,instruction_pages.thisN,instruction_pages.thisIndex,instruction_pages.ran,pageN,phase,instruct_text,has_image,instruct_image,participant,age,date,expName,psychopyVersion,OS,frameRate,response.keys,response.corr,response.rt,touch_resp.x,touch_resp.y,touch_resp.leftButton,touch_resp.midButton,touch_resp.rightButton,touch_resp.time,touch_resp.clicked_name,rt,corr,practrials.thisRepN,practrials.thisTrialN,practrials.thisN,practrials.thisIndex,practrials.ran,TrialID,Target,corrAns,end_of_practice_trials_pages.thisRepN,end_of_practice_trials_pages.thisTrialN,end_of_practice_trials_pages.thisN,end_of_practice_trials_pages.thisIndex,end_of_practice_trials_pages.ran,key_resp_2.keys,key_resp_2.corr,key_resp_2.rt,targ_click.x,targ_click.y,targ_click.leftButton,targ_click.midButton,targ_click.rightButton,targ_click.time,targ_click.clicked_name,break_done_touch.x,break_done_touch.y,break_done_touch.leftButton,break_done_touch.midButton,break_done_touch.rightButton,break_done_keyboard.keys,maintrials.thisRepN,maintrials.thisTrialN,maintrials.thisN,maintrials.thisIndex,maintrials.ran,string,blur,study,lex,stim_path,break_done_keyboard.rt,mouse_2.x,mouse_2.y,mouse_2.leftButton,mouse_2.midButton,mouse_2.rightButton,mouse_2.clicked_name,slider.response,slider.rt,trials.thisRepN,trials.thisTrialN,trials.thisN,trials.thisIndex,trials.ran,test_instructions.thisRepN,test_instructions.thisTrialN,test_instructions.thisN,test_instructions.thisIndex,test_instructions.ran,instr_done_touch.clicked_name,key_resp_3.keys,key_resp_3.corr,key_resp_3.rt,test_click.x,test_click.y,test_click.leftButton,test_click.midButton,test_click.rightButton,test_click.time,test_click.clicked_name,test_phase.thisRepN,test_phase.thisTrialN,test_phase.thisN,test_phase.thisIndex,test_phase.ran
space,19.6396,0.154629661,-0.2527778,0,0,0,0,0,0,0,1,1,instructions,"INSTRUCTIONS
At the start of each trial, look at the plus sign  (+) in the center of the screen.  This tells you that a trial is about to begin and where to look. Second, the plus sign will disappear and a string of letters will appear. Your task is to determine if the string of letters is a word or not. If the item is a word press the M key (on keyboard)  or touch the word button (phone/tablet).  If the item is not a word,  press the  Z key (on keyboard)  or touch the nonword button (on phone/tablet). 
Press the space bar or touch  continue.",0,,6111117cc879aaabc0231495,19,2022-02-12_13h27.31.969,lexical_decision_task_DD_L3,2021.2.3,Win32,60.81615277,,,,,,,,,,,,,,,,,,,,,,,,,,,,,,,,,,,,,,,,,,,,,,,,,,,,,,,,,,,,,,,,,,,,,,,,,,,,,,,,,,,,,,
space,5.5026,0.154629661,-0.2527778,0,0,0,0,1,1,1,1,2,instructions,"If your device has a keyboard, press the 'Z' key for nonwords and the 'M' key for words.





Press the space bar or touch the button below to continue.",0,keyboard-example.gif,6111117cc879aaabc0231495,19,2022-02-12_13h27.31.969,lexical_decision_task_DD_L3,2021.2.3,Win32,60.81615277,,,,,,,,,,,,,,,,,,,,,,,,,,,,,,,,,,,,,,,,,,,,,,,,,,,,,,,,,,,,,,,,,,,,,,,,,,,,,,,,,,,,,,
space,6.7463,0.154629661,-0.2527778,0,0,0,0,2,2,2,1,3,instructions,"If you are using a touchscreen only device, use the buttons on the screen. Do not use the mouse.





Press the space bar or touch the button below to continue.",0,touchscreen-example.gif,6111117cc879aaabc0231495,19,2022-02-12_13h27.31.969,lexical_decision_task_DD_L3,2021.2.3,Win32,60.81615277,,,,,,,,,,,,,,,,,,,,,,,,,,,,,,,,,,,,,,,,,,,,,,,,,,,,,,,,,,,,,,,,,,,,,,,,,,,,,,,,,,,,,,
space,3.8219,0.154629661,-0.2527778,0,0,0,0,3,3,3,1,4,instructions,"It is very important that you respond as quickly and accurately as possible, as each letter string will only be on the screen for two seconds. If you do not respond within this time, the message 'Too slow!' will be displayed and the experiment will progress to the next letter string. The first 20 trials will be practice trials and you will receive feedback on your answers. 

Press the space bar or touch the button below to start the practice trials.",0,,6111117cc879aaabc0231495,19,2022-02-12_13h27.31.969,lexical_decision_task_DD_L3,2021.2.3,Win32,60.81615277,,,,,,,,,,,,,,,,,,,,,,,,,,,,,,,,,,,,,,,,,,,,,,,,,,,,,,,,,,,,,,,,,,,,,,,,,,,,,,,,,,,,,,
,,,,,,,,,,,,,,,,,6111117cc879aaabc0231495,19,2022-02-12_13h27.31.969,lexical_decision_task_DD_L3,2021.2.3,Win32,60.81615277,m,0,1.6741,,,,,,,,1.6741,0,0,0,0,9,1,1001,FARINY,z,,,,,,,,,,,,,,,,,,,,,,,,,,,,,,,,,,,,,,,,,,,,,,,,,,,,,,,,,,,,,,,,,,
,,,,,,,,,,,,,,,,,6111117cc879aaabc0231495,19,2022-02-12_13h27.31.969,lexical_decision_task_DD_L3,2021.2.3,Win32,60.81615277,m,0,2.8173,,,,,,,,2.8173,0,0,1,1,15,1,1001,WHAISE,z,,,,,,,,,,,,,,,,,,,,,,,,,,,,,,,,,,,,,,,,,,,,,,,,,,,,,,,,,,,,,,,,,,
,,,,,,,,,,,,,,,,,6111117cc879aaabc0231495,19,2022-02-12_13h27.31.969,lexical_decision_task_DD_L3,2021.2.3,Win32,60.81615277,m,0,2.0812,,,,,,,,2.0812,0,0,2,2,8,1,1001,ASLERT,z,,,,,,,,,,,,,,,,,,,,,,,,,,,,,,,,,,,,,,,,,,,,,,,,,,,,,,,,,,,,,,,,,,
,,,,,,,,,,,,,,,,,6111117cc879aaabc0231495,19,2022-02-12_13h27.31.969,lexical_decision_task_DD_L3,2021.2.3,Win32,60.81615277,m,0,3.7707,,,,,,,,3.7707,0,0,3,3,10,1,1001,INLADE,z,,,,,,,,,,,,,,,,,,,,,,,,,,,,,,,,,,,,,,,,,,,,,,,,,,,,,,,,,,,,,,,,,,
,,,,,,,,,,,,,,,,,6111117cc879aaabc0231495,19,2022-02-12_13h27.31.969,lexical_decision_task_DD_L3,2021.2.3,Win32,60.81615277,m,1,1.0448,,,,,,,,1.0448,1,0,4,4,5,1,1001,OBTAIN,m,,,,,,,,,,,,,,,,,,,,,,,,,,,,,,,,,,,,,,,,,,,,,,,,,,,,,,,,,,,,,,,,,,
,,,,,,,,,,,,,,,,,6111117cc879aaabc0231495,19,2022-02-12_13h27.31.969,lexical_decision_task_DD_L3,2021.2.3,Win32,60.81615277,m,1,0.9863,,,,,,,,0.9863,1,0,5,5,6,1,1001,ZOMBIE,m,,,,,,,,,,,,,,,,,,,,,,,,,,,,,,,,,,,,,,,,,,,,,,,,,,,,,,,,,,,,,,,,,,
,,,,,,,,,,,,,,,,,6111117cc879aaabc0231495,19,2022-02-12_13h27.31.969,lexical_decision_task_DD_L3,2021.2.3,Win32,60.81615277,m,1,0.8366,,,,,,,,0.8366,1,0,6,6,0,1,1001,UTOPIA,m,,,,,,,,,,,,,,,,,,,,,,,,,,,,,,,,,,,,,,,,,,,,,,,,,,,,,,,,,,,,,,,,,,
,,,,,,,,,,,,,,,,,6111117cc879aaabc0231495,19,2022-02-12_13h27.31.969,lexical_decision_task_DD_L3,2021.2.3,Win32,60.81615277,z,1,1.0572,,,,,,,,1.0572,1,0,7,7,14,1,1001,THRALE,z,,,,,,,,,,,,,,,,,,,,,,,,,,,,,,,,,,,,,,,,,,,,,,,,,,,,,,,,,,,,,,,,,,
,,,,,,,,,,,,,,,,,6111117cc879aaabc0231495,19,2022-02-12_13h27.31.969,lexical_decision_task_DD_L3,2021.2.3,Win32,60.81615277,z,1,1.1679,,,,,,,,1.1679,1,0,8,8,13,1,1001,ROUPET,z,,,,,,,,,,,,,,,,,,,,,,,,,,,,,,,,,,,,,,,,,,,,,,,,,,,,,,,,,,,,,,,,,,
,,,,,,,,,,,,,,,,,6111117cc879aaabc0231495,19,2022-02-12_13h27.31.969,lexical_decision_task_DD_L3,2021.2.3,Win32,60.81615277,z,1,0.5675,,,,,,,,0.5675,1,0,9,9,11,1,1001,RASHET,z,,,,,,,,,,,,,,,,,,,,,,,,,,,,,,,,,,,,,,,,,,,,,,,,,,,,,,,,,,,,,,,,,,
,,,,,,,,,,,,,,,,,6111117cc879aaabc0231495,19,2022-02-12_13h27.31.969,lexical_decision_task_DD_L3,2021.2.3,Win32,60.81615277,m,1,0.6223,,,,,,,,0.6223,1,0,10,10,3,1,1001,MATRIX,m,,,,,,,,,,,,,,,,,,,,,,,,,,,,,,,,,,,,,,,,,,,,,,,,,,,,,,,,,,,,,,,,,,
,,,,,,,,,,,,,,,,,6111117cc879aaabc0231495,19,2022-02-12_13h27.31.969,lexical_decision_task_DD_L3,2021.2.3,Win32,60.81615277,m,1,0.6283,,,,,,,,0.6283,1,0,11,11,4,1,1001,SQUEAK,m,,,,,,,,,,,,,,,,,,,,,,,,,,,,,,,,,,,,,,,,,,,,,,,,,,,,,,,,,,,,,,,,,,
,,,,,,,,,,,,,,,,,6111117cc879aaabc0231495,19,2022-02-12_13h27.31.969,lexical_decision_task_DD_L3,2021.2.3,Win32,60.81615277,z,1,0.758,,,,,,,,0.758,1,0,12,12,12,1,1001,SPRINY,z,,,,,,,,,,,,,,,,,,,,,,,,,,,,,,,,,,,,,,,,,,,,,,,,,,,,,,,,,,,,,,,,,,
,,,,,,,,,,,,,,,,,6111117cc879aaabc0231495,19,2022-02-12_13h27.31.969,lexical_decision_task_DD_L3,2021.2.3,Win32,60.81615277,m,1,0.5248,,,,,,,,0.5248,1,0,13,13,7,1,1001,VOLUME,m,,,,,,,,,,,,,,,,,,,,,,,,,,,,,,,,,,,,,,,,,,,,,,,,,,,,,,,,,,,,,,,,,,
,,,,,,,,,,,,,,,,,6111117cc879aaabc0231495,19,2022-02-12_13h27.31.969,lexical_decision_task_DD_L3,2021.2.3,Win32,60.81615277,m,1,0.5516,,,,,,,,0.5516,1,0,14,14,1,1,1001,ADJUST,m,,,,,,,,,,,,,,,,,,,,,,,,,,,,,,,,,,,,,,,,,,,,,,,,,,,,,,,,,,,,,,,,,,
,,,,,,,,,,,,,,,,,6111117cc879aaabc0231495,19,2022-02-12_13h27.31.969,lexical_decision_task_DD_L3,2021.2.3,Win32,60.81615277,m,1,0.6012,,,,,,,,0.6012,1,0,15,15,2,1,1001,ALMOND,m,,,,,,,,,,,,,,,,,,,,,,,,,,,,,,,,,,,,,,,,,,,,,,,,,,,,,,,,,,,,,,,,,,
space,6.7969,0.154629661,-0.2527778,0,0,0,,,,,,1,end_of_practice,"You have completed the practice trials. During the experimental trials, you will not receive feedback. 
Before you begin, please ensure that you are in a comfortable and quiet location and will not be disturbed for about 15 minutes, as we cannot use your data if you do not complete all the trials. 
 When you are ready to start the experimental trials, please press space or touch the button below.",,,6111117cc879aaabc0231495,19,2022-02-12_13h27.31.969,lexical_decision_task_DD_L3,2021.2.3,Win32,60.81615277,,,,,,,,,,,,,,,,,,,,,0,0,0,0,1,,,,,,,,,,,,,,,,,,,,,,,,,,,,,,,,,,,,,,,,,,,,,,,,,,,,,,,,,,,,,
,,,,,,,,,,,,,,,,,6111117cc879aaabc0231495,19,2022-02-12_13h27.31.969,lexical_decision_task_DD_L3,2021.2.3,Win32,60.81615277,,,,,,,,,,,1.4651,1,,,,,,,,,,,,,,m,1,1.4651,,,,,,,,0.154629661,-0.2527778,0,0,0,,0,0,0,22,1,MELON,C,old,m,./images/MELON.png,,,,,,,,,,,,,,,,,,,,,,,,,,,,,,,,,,,
,,,,,,,,,,,,,,,,,6111117cc879aaabc0231495,19,2022-02-12_13h27.31.969,lexical_decision_task_DD_L3,2021.2.3,Win32,60.81615277,,,,,,,,,,,0.7312,1,,,,,,,,,,,,,,m,1,0.7312,,,,,,,,0.154629661,-0.2527778,0,0,0,,0,1,1,27,1,ATTIC,LB,old,m,./images/ATTICLB.png,,,,,,,,,,,,,,,,,,,,,,,,,,,,,,,,,,,
,,,,,,,,,,,,,,,,,6111117cc879aaabc0231495,19,2022-02-12_13h27.31.969,lexical_decision_task_DD_L3,2021.2.3,Win32,60.81615277,,,,,,,,,,,0.554,1,,,,,,,,,,,,,,m,1,0.554,,,,,,,,0.154629661,-0.2527778,0,0,0,,0,2,2,4,1,MUSCLE,C,old,m,./images/MUSCLE.png,,,,,,,,,,,,,,,,,,,,,,,,,,,,,,,,,,,
,,,,,,,,,,,,,,,,,6111117cc879aaabc0231495,19,2022-02-12_13h27.31.969,lexical_decision_task_DD_L3,2021.2.3,Win32,60.81615277,,,,,,,,,,,0.7314,1,,,,,,,,,,,,,,m,1,0.7314,,,,,,,,0.154629661,-0.2527778,0,0,0,,0,3,3,59,1,BURIAL,HB,old,m,./images/BURIALHB.png,,,,,,,,,,,,,,,,,,,,,,,,,,,,,,,,,,,
,,,,,,,,,,,,,,,,,6111117cc879aaabc0231495,19,2022-02-12_13h27.31.969,lexical_decision_task_DD_L3,2021.2.3,Win32,60.81615277,,,,,,,,,,,0.7804,1,,,,,,,,,,,,,,z,1,0.7804,,,,,,,,0.154629661,-0.2527778,0,0,0,,0,4,4,123,1,SEDGE,C,old,z,./images/SEDGE.png,,,,,,,,,,,,,,,,,,,,,,,,,,,,,,,,,,,
,,,,,,,,,,,,,,,,,6111117cc879aaabc0231495,19,2022-02-12_13h27.31.969,lexical_decision_task_DD_L3,2021.2.3,Win32,60.81615277,,,,,,,,,,,1.3891,1,,,,,,,,,,,,,,z,1,1.3891,,,,,,,,0.154629661,-0.2527778,0,0,0,,0,5,5,115,1,MAWNS,HB,old,z,./images/MAWNSHB.png,,,,,,,,,,,,,,,,,,,,,,,,,,,,,,,,,,,
,,,,,,,,,,,,,,,,,6111117cc879aaabc0231495,19,2022-02-12_13h27.31.969,lexical_decision_task_DD_L3,2021.2.3,Win32,60.81615277,,,,,,,,,,,1.0742,1,,,,,,,,,,,,,,z,1,1.0742,,,,,,,,0.154629661,-0.2527778,0,0,0,,0,6,6,165,1,TROWN,C,old,z,./images/TROWN.png,,,,,,,,,,,,,,,,,,,,,,,,,,,,,,,,,,,
,,,,,,,,,,,,,,,,,6111117cc879aaabc0231495,19,2022-02-12_13h27.31.969,lexical_decision_task_DD_L3,2021.2.3,Win32,60.81615277,,,,,,,,,,,0.7318,1,,,,,,,,,,,,,,m,1,0.7318,,,,,,,,0.154629661,-0.2527778,0,0,0,,0,7,7,68,1,TORCH,HB,old,m,./images/TORCHHB.png,,,,,,,,,,,,,,,,,,,,,,,,,,,,,,,,,,,
,,,,,,,,,,,,,,,,,6111117cc879aaabc0231495,19,2022-02-12_13h27.31.969,lexical_decision_task_DD_L3,2021.2.3,Win32,60.81615277,,,,,,,,,,,0.6876,1,,,,,,,,,,,,,,z,1,0.6876,,,,,,,,0.154629661,-0.2527778,0,0,0,,0,8,8,162,1,LEICH,C,old,z,./images/LEICH.png,,,,,,,,,,,,,,,,,,,,,,,,,,,,,,,,,,,
,,,,,,,,,,,,,,,,,6111117cc879aaabc0231495,19,2022-02-12_13h27.31.969,lexical_decision_task_DD_L3,2021.2.3,Win32,60.81615277,,,,,,,,,,,0.6863,1,,,,,,,,,,,,,,m,1,0.6863,,,,,,,,0.154629661,-0.2527778,0,0,0,,0,9,9,71,1,PIMPLE,HB,old,m,./images/PIMPLEHB.png,,,,,,,,,,,,,,,,,,,,,,,,,,,,,,,,,,,
,,,,,,,,,,,,,,,,,6111117cc879aaabc0231495,19,2022-02-12_13h27.31.969,lexical_decision_task_DD_L3,2021.2.3,Win32,60.81615277,,,,,,,,,,,0.5714,1,,,,,,,,,,,,,,m,1,0.5714,,,,,,,,0.154629661,-0.2527778,0,0,0,,0,10,10,15,1,GREASE,LB,old,m,./images/GREASELB.png,,,,,,,,,,,,,,,,,,,,,,,,,,,,,,,,,,,
,,,,,,,,,,,,,,,,,6111117cc879aaabc0231495,19,2022-02-12_13h27.31.969,lexical_decision_task_DD_L3,2021.2.3,Win32,60.81615277,,,,,,,,,,,1.1732,1,,,,,,,,,,,,,,m,1,1.1732,,,,,,,,0.154629661,-0.2527778,0,0,0,,0,11,11,16,1,PENCE,C,old,m,./images/PENCE.png,,,,,,,,,,,,,,,,,,,,,,,,,,,,,,,,,,,
,,,,,,,,,,,,,,,,,6111117cc879aaabc0231495,19,2022-02-12_13h27.31.969,lexical_decision_task_DD_L3,2021.2.3,Win32,60.81615277,,,,,,,,,,,0.7318,1,,,,,,,,,,,,,,m,1,0.7318,,,,,,,,0.154629661,-0.2527778,0,0,0,,0,12,12,41,1,STRING,HB,old,m,./images/STRINGHB.png,,,,,,,,,,,,,,,,,,,,,,,,,,,,,,,,,,,
,,,,,,,,,,,,,,,,,6111117cc879aaabc0231495,19,2022-02-12_13h27.31.969,lexical_decision_task_DD_L3,2021.2.3,Win32,60.81615277,,,,,,,,,,,0.5547,1,,,,,,,,,,,,,,m,1,0.5547,,,,,,,,0.154629661,-0.2527778,0,0,0,,0,13,13,3,1,FINGER,LB,old,m,./images/FINGERLB.png,,,,,,,,,,,,,,,,,,,,,,,,,,,,,,,,,,,
,,,,,,,,,,,,,,,,,6111117cc879aaabc0231495,19,2022-02-12_13h27.31.969,lexical_decision_task_DD_L3,2021.2.3,Win32,60.81615277,,,,,,,,,,,1.1078,1,,,,,,,,,,,,,,z,1,1.1078,,,,,,,,0.154629661,-0.2527778,0,0,0,,0,14,14,109,1,BURGE,HB,old,z,./images/BURGEHB.png,,,,,,,,,,,,,,,,,,,,,,,,,,,,,,,,,,,
,,,,,,,,,,,,,,,,,6111117cc879aaabc0231495,19,2022-02-12_13h27.31.969,lexical_decision_task_DD_L3,2021.2.3,Win32,60.81615277,,,,,,,,,,,0.6336,1,,,,,,,,,,,,,,z,1,0.6336,,,,,,,,0.154629661,-0.2527778,0,0,0,,0,15,15,156,1,HIXES,C,old,z,./images/HIXES.png,,,,,,,,,,,,,,,,,,,,,,,,,,,,,,,,,,,
,,,,,,,,,,,,,,,,,6111117cc879aaabc0231495,19,2022-02-12_13h27.31.969,lexical_decision_task_DD_L3,2021.2.3,Win32,60.81615277,,,,,,,,,,,0.771,1,,,,,,,,,,,,,,m,1,0.771,,,,,,,,0.154629661,-0.2527778,0,0,0,,0,16,16,47,1,BERRY,HB,old,m,./images/BERRYHB.png,,,,,,,,,,,,,,,,,,,,,,,,,,,,,,,,,,,
,,,,,,,,,,,,,,,,,6111117cc879aaabc0231495,19,2022-02-12_13h27.31.969,lexical_decision_task_DD_L3,2021.2.3,Win32,60.81615277,,,,,,,,,,,0.5941,1,,,,,,,,,,,,,,m,1,0.5941,,,,,,,,0.154629661,-0.2527778,0,0,0,,0,17,17,51,1,ONION,LB,old,m,./images/ONIONLB.png,,,,,,,,,,,,,,,,,,,,,,,,,,,,,,,,,,,
,,,,,,,,,,,,,,,,,6111117cc879aaabc0231495,19,2022-02-12_13h27.31.969,lexical_decision_task_DD_L3,2021.2.3,Win32,60.81615277,,,,,,,,,,,0.8209,1,,,,,,,,,,,,,,m,1,0.8209,,,,,,,,0.154629661,-0.2527778,0,0,0,,0,18,18,81,1,POODLE,LB,old,m,./images/POODLELB.png,,,,,,,,,,,,,,,,,,,,,,,,,,,,,,,,,,,
,,,,,,,,,,,,,,,,,6111117cc879aaabc0231495,19,2022-02-12_13h27.31.969,lexical_decision_task_DD_L3,2021.2.3,Win32,60.81615277,,,,,,,,,,,0.5681,1,,,,,,,,,,,,,,m,1,0.5681,,,,,,,,0.154629661,-0.2527778,0,0,0,,0,19,19,7,1,PAINT,C,old,m,./images/PAINT.png,,,,,,,,,,,,,,,,,,,,,,,,,,,,,,,,,,,
,,,,,,,,,,,,,,,,,6111117cc879aaabc0231495,19,2022-02-12_13h27.31.969,lexical_decision_task_DD_L3,2021.2.3,Win32,60.81615277,,,,,,,,,,,0.7155,1,,,,,,,,,,,,,,z,1,0.7155,,,,,,,,0.154629661,-0.2527778,0,0,0,,0,20,20,131,1,NACES,LB,old,z,./images/NACESLB.png,,,,,,,,,,,,,,,,,,,,,,,,,,,,,,,,,,,
,,,,,,,,,,,,,,,,,6111117cc879aaabc0231495,19,2022-02-12_13h27.31.969,lexical_decision_task_DD_L3,2021.2.3,Win32,60.81615277,,,,,,,,,,,0.604,1,,,,,,,,,,,,,,z,1,0.604,,,,,,,,0.154629661,-0.2527778,0,0,0,,0,21,21,134,1,TROSS,LB,old,z,./images/TROSSLB.png,,,,,,,,,,,,,,,,,,,,,,,,,,,,,,,,,,,
,,,,,,,,,,,,,,,,,6111117cc879aaabc0231495,19,2022-02-12_13h27.31.969,lexical_decision_task_DD_L3,2021.2.3,Win32,60.81615277,,,,,,,,,,,1.7612,1,,,,,,,,,,,,,,m,1,1.7612,,,,,,,,0.154629661,-0.2527778,0,0,0,,0,22,22,72,1,NOOSE,LB,old,m,./images/NOOSELB.png,,,,,,,,,,,,,,,,,,,,,,,,,,,,,,,,,,,
,,,,,,,,,,,,,,,,,6111117cc879aaabc0231495,19,2022-02-12_13h27.31.969,lexical_decision_task_DD_L3,2021.2.3,Win32,60.81615277,,,,,,,,,,,1.151,1,,,,,,,,,,,,,,z,1,1.151,,,,,,,,0.154629661,-0.2527778,0,0,0,,0,23,23,141,1,PLEET,C,old,z,./images/PLEET.png,,,,,,,,,,,,,,,,,,,,,,,,,,,,,,,,,,,
,,,,,,,,,,,,,,,,,6111117cc879aaabc0231495,19,2022-02-12_13h27.31.969,lexical_decision_task_DD_L3,2021.2.3,Win32,60.81615277,,,,,,,,,,,1.0045,1,,,,,,,,,,,,,,z,1,1.0045,,,,,,,,0.154629661,-0.2527778,0,0,0,,0,24,24,142,1,PLASK,HB,old,z,./images/PLASKHB.png,,,,,,,,,,,,,,,,,,,,,,,,,,,,,,,,,,,
,,,,,,,,,,,,,,,,,6111117cc879aaabc0231495,19,2022-02-12_13h27.31.969,lexical_decision_task_DD_L3,2021.2.3,Win32,60.81615277,,,,,,,,,,,0.8702,1,,,,,,,,,,,,,,z,1,0.8702,,,,,,,,0.154629661,-0.2527778,0,0,0,,0,25,25,120,1,RINED,C,old,z,./images/RINED.png,,,,,,,,,,,,,,,,,,,,,,,,,,,,,,,,,,,
,,,,,,,,,,,,,,,,,6111117cc879aaabc0231495,19,2022-02-12_13h27.31.969,lexical_decision_task_DD_L3,2021.2.3,Win32,60.81615277,,,,,,,,,,,0.4977,1,,,,,,,,,,,,,,m,1,0.4977,,,,,,,,0.154629661,-0.2527778,0,0,0,,0,26,26,67,1,SAILOR,C,old,m,./images/SAILOR.png,,,,,,,,,,,,,,,,,,,,,,,,,,,,,,,,,,,
,,,,,,,,,,,,,,,,,6111117cc879aaabc0231495,19,2022-02-12_13h27.31.969,lexical_decision_task_DD_L3,2021.2.3,Win32,60.81615277,,,,,,,,,,,0.5125,1,,,,,,,,,,,,,,m,1,0.5125,,,,,,,,0.154629661,-0.2527778,0,0,0,,0,27,27,13,1,MOTOR,C,old,m,./images/MOTOR.png,,,,,,,,,,,,,,,,,,,,,,,,,,,,,,,,,,,
,,,,,,,,,,,,,,,,,6111117cc879aaabc0231495,19,2022-02-12_13h27.31.969,lexical_decision_task_DD_L3,2021.2.3,Win32,60.81615277,,,,,,,,,,,1.0595,1,,,,,,,,,,,,,,z,1,1.0595,,,,,,,,0.154629661,-0.2527778,0,0,0,,0,28,28,97,1,CHIDS,HB,old,z,./images/CHIDSHB.png,,,,,,,,,,,,,,,,,,,,,,,,,,,,,,,,,,,
,,,,,,,,,,,,,,,,,6111117cc879aaabc0231495,19,2022-02-12_13h27.31.969,lexical_decision_task_DD_L3,2021.2.3,Win32,60.81615277,,,,,,,,,,,0.6674,1,,,,,,,,,,,,,,z,1,0.6674,,,,,,,,0.154629661,-0.2527778,0,0,0,,0,29,29,113,1,LINEW,LB,old,z,./images/LINEWLB.png,,,,,,,,,,,,,,,,,,,,,,,,,,,,,,,,,,,
,,,,,,,,,,,,,,,,,6111117cc879aaabc0231495,19,2022-02-12_13h27.31.969,lexical_decision_task_DD_L3,2021.2.3,Win32,60.81615277,,,,,,,,,,,0.5996,1,,,,,,,,,,,,,,m,1,0.5996,,,,,,,,0.154629661,-0.2527778,0,0,0,,0,30,30,55,1,MUFFIN,C,old,m,./images/MUFFIN.png,,,,,,,,,,,,,,,,,,,,,,,,,,,,,,,,,,,
,,,,,,,,,,,,,,,,,6111117cc879aaabc0231495,19,2022-02-12_13h27.31.969,lexical_decision_task_DD_L3,2021.2.3,Win32,60.81615277,,,,,,,,,,,0.6925,1,,,,,,,,,,,,,,z,1,0.6925,,,,,,,,0.154629661,-0.2527778,0,0,0,,0,31,31,135,1,JOODY,C,old,z,./images/JOODY.png,,,,,,,,,,,,,,,,,,,,,,,,,,,,,,,,,,,
,,,,,,,,,,,,,,,,,6111117cc879aaabc0231495,19,2022-02-12_13h27.31.969,lexical_decision_task_DD_L3,2021.2.3,Win32,60.81615277,,,,,,,,,,,1.0983,1,,,,,,,,,,,,,,m,1,1.0983,,,,,,,,0.154629661,-0.2527778,0,0,0,,0,32,32,50,1,MALLET,HB,old,m,./images/MALLETHB.png,,,,,,,,,,,,,,,,,,,,,,,,,,,,,,,,,,,
,,,,,,,,,,,,,,,,,6111117cc879aaabc0231495,19,2022-02-12_13h27.31.969,lexical_decision_task_DD_L3,2021.2.3,Win32,60.81615277,,,,,,,,,,,0.5874,1,,,,,,,,,,,,,,m,1,0.5874,,,,,,,,0.154629661,-0.2527778,0,0,0,,0,33,33,52,1,BANNER,C,old,m,./images/BANNER.png,,,,,,,,,,,,,,,,,,,,,,,,,,,,,,,,,,,
,,,,,,,,,,,,,,,,,6111117cc879aaabc0231495,19,2022-02-12_13h27.31.969,lexical_decision_task_DD_L3,2021.2.3,Win32,60.81615277,,,,,,,,,,,0.5564,1,,,,,,,,,,,,,,m,1,0.5564,,,,,,,,0.154629661,-0.2527778,0,0,0,,0,34,34,48,1,SPORT,LB,old,m,./images/SPORTLB.png,,,,,,,,,,,,,,,,,,,,,,,,,,,,,,,,,,,
,,,,,,,,,,,,,,,,,6111117cc879aaabc0231495,19,2022-02-12_13h27.31.969,lexical_decision_task_DD_L3,2021.2.3,Win32,60.81615277,,,,,,,,,,,0.6892,1,,,,,,,,,,,,,,z,1,0.6892,,,,,,,,0.154629661,-0.2527778,0,0,0,,0,35,35,133,1,POWDY,HB,old,z,./images/POWDYHB.png,,,,,,,,,,,,,,,,,,,,,,,,,,,,,,,,,,,
,,,,,,,,,,,,,,,,,6111117cc879aaabc0231495,19,2022-02-12_13h27.31.969,lexical_decision_task_DD_L3,2021.2.3,Win32,60.81615277,,,,,,,,,,,0.5868,1,,,,,,,,,,,,,,m,1,0.5868,,,,,,,,0.154629661,-0.2527778,0,0,0,,0,36,36,79,1,CRUST,C,old,m,./images/CRUST.png,,,,,,,,,,,,,,,,,,,,,,,,,,,,,,,,,,,
,,,,,,,,,,,,,,,,,6111117cc879aaabc0231495,19,2022-02-12_13h27.31.969,lexical_decision_task_DD_L3,2021.2.3,Win32,60.81615277,,,,,,,,,,,0.7111,1,,,,,,,,,,,,,,m,1,0.7111,,,,,,,,0.154629661,-0.2527778,0,0,0,,0,37,37,29,1,CRUMB,HB,old,m,./images/CRUMBHB.png,,,,,,,,,,,,,,,,,,,,,,,,,,,,,,,,,,,
,,,,,,,,,,,,,,,,,6111117cc879aaabc0231495,19,2022-02-12_13h27.31.969,lexical_decision_task_DD_L3,2021.2.3,Win32,60.81615277,,,,,,,,,,,0.5487,1,,,,,,,,,,,,,,m,1,0.5487,,,,,,,,0.154629661,-0.2527778,0,0,0,,0,38,38,73,1,SNACK,C,old,m,./images/SNACK.png,,,,,,,,,,,,,,,,,,,,,,,,,,,,,,,,,,,
,,,,,,,,,,,,,,,,,6111117cc879aaabc0231495,19,2022-02-12_13h27.31.969,lexical_decision_task_DD_L3,2021.2.3,Win32,60.81615277,,,,,,,,,,,0.5234,1,,,,,,,,,,,,,,m,1,0.5234,,,,,,,,0.154629661,-0.2527778,0,0,0,,0,39,39,66,1,SWEAT,LB,old,m,./images/SWEATLB.png,,,,,,,,,,,,,,,,,,,,,,,,,,,,,,,,,,,
,,,,,,,,,,,,,,,,,6111117cc879aaabc0231495,19,2022-02-12_13h27.31.969,lexical_decision_task_DD_L3,2021.2.3,Win32,60.81615277,,,,,,,,,,,0.5225,1,,,,,,,,,,,,,,z,1,0.5225,,,,,,,,0.154629661,-0.2527778,0,0,0,,0,40,40,150,1,NOOLS,C,old,z,./images/NOOLS.png,,,,,,,,,,,,,,,,,,,,,,,,,,,,,,,,,,,
,,,,,,,,,,,,,,,,,6111117cc879aaabc0231495,19,2022-02-12_13h27.31.969,lexical_decision_task_DD_L3,2021.2.3,Win32,60.81615277,,,,,,,,,,,0.6228,1,,,,,,,,,,,,,,z,1,0.6228,,,,,,,,0.154629661,-0.2527778,0,0,0,space,0,41,41,112,1,MYING,HB,old,z,./images/MYINGHB.png,15.1608,,,,,,,,,,,,,,,,,,,,,,,,,,,,,,,,,,
,,,,,,,,,,,,,,,,,6111117cc879aaabc0231495,19,2022-02-12_13h27.31.969,lexical_decision_task_DD_L3,2021.2.3,Win32,60.81615277,,,,,,,,,,,0.6099,1,,,,,,,,,,,,,,m,1,0.6099,,,,,,,,0.154629661,-0.2527778,0,0,0,,0,42,42,19,1,DOUGH,C,old,m,./images/DOUGH.png,,,,,,,,,,,,,,,,,,,,,,,,,,,,,,,,,,,
,,,,,,,,,,,,,,,,,6111117cc879aaabc0231495,19,2022-02-12_13h27.31.969,lexical_decision_task_DD_L3,2021.2.3,Win32,60.81615277,,,,,,,,,,,0.5929,1,,,,,,,,,,,,,,z,1,0.5929,,,,,,,,0.154629661,-0.2527778,0,0,0,,0,43,43,137,1,JOOST,LB,old,z,./images/JOOSTLB.png,,,,,,,,,,,,,,,,,,,,,,,,,,,,,,,,,,,
,,,,,,,,,,,,,,,,,6111117cc879aaabc0231495,19,2022-02-12_13h27.31.969,lexical_decision_task_DD_L3,2021.2.3,Win32,60.81615277,,,,,,,,,,,0.5824,1,,,,,,,,,,,,,,m,1,0.5824,,,,,,,,0.154629661,-0.2527778,0,0,0,,0,44,44,64,1,JELLY,C,old,m,./images/JELLY.png,,,,,,,,,,,,,,,,,,,,,,,,,,,,,,,,,,,
,,,,,,,,,,,,,,,,,6111117cc879aaabc0231495,19,2022-02-12_13h27.31.969,lexical_decision_task_DD_L3,2021.2.3,Win32,60.81615277,,,,,,,,,,,0.6545,1,,,,,,,,,,,,,,z,1,0.6545,,,,,,,,0.154629661,-0.2527778,0,0,0,,0,45,45,128,1,GRIFT,LB,old,z,./images/GRIFTLB.png,,,,,,,,,,,,,,,,,,,,,,,,,,,,,,,,,,,
,,,,,,,,,,,,,,,,,6111117cc879aaabc0231495,19,2022-02-12_13h27.31.969,lexical_decision_task_DD_L3,2021.2.3,Win32,60.81615277,,,,,,,,,,,1.4,0,,,,,,,,,,,,,,z,0,1.4,,,,,,,,0.154629661,-0.2527778,0,0,0,,0,46,46,14,1,PICKLE,HB,old,m,./images/PICKLEHB.png,,,,,,,,,,,,,,,,,,,,,,,,,,,,,,,,,,,
,,,,,,,,,,,,,,,,,6111117cc879aaabc0231495,19,2022-02-12_13h27.31.969,lexical_decision_task_DD_L3,2021.2.3,Win32,60.81615277,,,,,,,,,,,0.6067,0,,,,,,,,,,,,,,z,0,0.6067,,,,,,,,0.154629661,-0.2527778,0,0,0,,0,47,47,33,1,MAGGOT,LB,old,m,./images/MAGGOTLB.png,,,,,,,,,,,,,,,,,,,,,,,,,,,,,,,,,,,
,,,,,,,,,,,,,,,,,6111117cc879aaabc0231495,19,2022-02-12_13h27.31.969,lexical_decision_task_DD_L3,2021.2.3,Win32,60.81615277,,,,,,,,,,,0.7883,1,,,,,,,,,,,,,,z,1,0.7883,,,,,,,,0.154629661,-0.2527778,0,0,0,,0,48,48,103,1,FLORT,HB,old,z,./images/FLORTHB.png,,,,,,,,,,,,,,,,,,,,,,,,,,,,,,,,,,,
,,,,,,,,,,,,,,,,,6111117cc879aaabc0231495,19,2022-02-12_13h27.31.969,lexical_decision_task_DD_L3,2021.2.3,Win32,60.81615277,,,,,,,,,,,0.6229,1,,,,,,,,,,,,,,m,1,0.6229,,,,,,,,0.154629661,-0.2527778,0,0,0,,0,49,49,31,1,QUILL,C,old,m,./images/QUILL.png,,,,,,,,,,,,,,,,,,,,,,,,,,,,,,,,,,,
,,,,,,,,,,,,,,,,,6111117cc879aaabc0231495,19,2022-02-12_13h27.31.969,lexical_decision_task_DD_L3,2021.2.3,Win32,60.81615277,,,,,,,,,,,0.8055,1,,,,,,,,,,,,,,m,1,0.8055,,,,,,,,0.154629661,-0.2527778,0,0,0,,0,50,50,74,1,CEMENT,HB,old,m,./images/CEMENTHB.png,,,,,,,,,,,,,,,,,,,,,,,,,,,,,,,,,,,
,,,,,,,,,,,,,,,,,6111117cc879aaabc0231495,19,2022-02-12_13h27.31.969,lexical_decision_task_DD_L3,2021.2.3,Win32,60.81615277,,,,,,,,,,,0.5598,1,,,,,,,,,,,,,,z,1,0.5598,,,,,,,,0.154629661,-0.2527778,0,0,0,,0,51,51,111,1,HOSSE,C,old,z,./images/HOSSE.png,,,,,,,,,,,,,,,,,,,,,,,,,,,,,,,,,,,
,,,,,,,,,,,,,,,,,6111117cc879aaabc0231495,19,2022-02-12_13h27.31.969,lexical_decision_task_DD_L3,2021.2.3,Win32,60.81615277,,,,,,,,,,,0.7266,1,,,,,,,,,,,,,,m,1,0.7266,,,,,,,,0.154629661,-0.2527778,0,0,0,,0,52,52,36,1,THROAT,LB,old,m,./images/THROATLB.png,,,,,,,,,,,,,,,,,,,,,,,,,,,,,,,,,,,
,,,,,,,,,,,,,,,,,6111117cc879aaabc0231495,19,2022-02-12_13h27.31.969,lexical_decision_task_DD_L3,2021.2.3,Win32,60.81615277,,,,,,,,,,,0.5635,1,,,,,,,,,,,,,,m,1,0.5635,,,,,,,,0.154629661,-0.2527778,0,0,0,,0,53,53,82,1,SUNSET,C,old,m,./images/SUNSET.png,,,,,,,,,,,,,,,,,,,,,,,,,,,,,,,,,,,
,,,,,,,,,,,,,,,,,6111117cc879aaabc0231495,19,2022-02-12_13h27.31.969,lexical_decision_task_DD_L3,2021.2.3,Win32,60.81615277,,,,,,,,,,,0.8815,1,,,,,,,,,,,,,,m,1,0.8815,,,,,,,,0.154629661,-0.2527778,0,0,0,,0,54,54,78,1,LITTER,LB,old,m,./images/LITTERLB.png,,,,,,,,,,,,,,,,,,,,,,,,,,,,,,,,,,,
,,,,,,,,,,,,,,,,,6111117cc879aaabc0231495,19,2022-02-12_13h27.31.969,lexical_decision_task_DD_L3,2021.2.3,Win32,60.81615277,,,,,,,,,,,0.5533,1,,,,,,,,,,,,,,m,1,0.5533,,,,,,,,0.154629661,-0.2527778,0,0,0,,0,55,55,10,1,BELLY,C,old,m,./images/BELLY.png,,,,,,,,,,,,,,,,,,,,,,,,,,,,,,,,,,,
,,,,,,,,,,,,,,,,,6111117cc879aaabc0231495,19,2022-02-12_13h27.31.969,lexical_decision_task_DD_L3,2021.2.3,Win32,60.81615277,,,,,,,,,,,0.707,1,,,,,,,,,,,,,,z,1,0.707,,,,,,,,0.154629661,-0.2527778,0,0,0,,0,56,56,117,1,STEEG,C,old,z,./images/STEEG.png,,,,,,,,,,,,,,,,,,,,,,,,,,,,,,,,,,,
,,,,,,,,,,,,,,,,,6111117cc879aaabc0231495,19,2022-02-12_13h27.31.969,lexical_decision_task_DD_L3,2021.2.3,Win32,60.81615277,,,,,,,,,,,0.5341,1,,,,,,,,,,,,,,m,1,0.5341,,,,,,,,0.154629661,-0.2527778,0,0,0,,0,57,57,61,1,CANDLE,C,old,m,./images/CANDLE.png,,,,,,,,,,,,,,,,,,,,,,,,,,,,,,,,,,,
,,,,,,,,,,,,,,,,,6111117cc879aaabc0231495,19,2022-02-12_13h27.31.969,lexical_decision_task_DD_L3,2021.2.3,Win32,60.81615277,,,,,,,,,,,0.9176,0,,,,,,,,,,,,,,z,0,0.9176,,,,,,,,0.154629661,-0.2527778,0,0,0,,0,58,58,34,1,CANYON,C,old,m,./images/CANYON.png,,,,,,,,,,,,,,,,,,,,,,,,,,,,,,,,,,,
,,,,,,,,,,,,,,,,,6111117cc879aaabc0231495,19,2022-02-12_13h27.31.969,lexical_decision_task_DD_L3,2021.2.3,Win32,60.81615277,,,,,,,,,,,0.7202,1,,,,,,,,,,,,,,z,1,0.7202,,,,,,,,0.154629661,-0.2527778,0,0,0,,0,59,59,101,1,GLEET,LB,old,z,./images/GLEETLB.png,,,,,,,,,,,,,,,,,,,,,,,,,,,,,,,,,,,
,,,,,,,,,,,,,,,,,6111117cc879aaabc0231495,19,2022-02-12_13h27.31.969,lexical_decision_task_DD_L3,2021.2.3,Win32,60.81615277,,,,,,,,,,,0.8299,1,,,,,,,,,,,,,,z,1,0.8299,,,,,,,,0.154629661,-0.2527778,0,0,0,,0,60,60,89,1,DRIEK,LB,old,z,./images/DRIEKLB.png,,,,,,,,,,,,,,,,,,,,,,,,,,,,,,,,,,,
,,,,,,,,,,,,,,,,,6111117cc879aaabc0231495,19,2022-02-12_13h27.31.969,lexical_decision_task_DD_L3,2021.2.3,Win32,60.81615277,,,,,,,,,,,0.5671,1,,,,,,,,,,,,,,z,1,0.5671,,,,,,,,0.154629661,-0.2527778,0,0,0,,0,61,61,114,1,RIKES,C,old,z,./images/RIKES.png,,,,,,,,,,,,,,,,,,,,,,,,,,,,,,,,,,,
,,,,,,,,,,,,,,,,,6111117cc879aaabc0231495,19,2022-02-12_13h27.31.969,lexical_decision_task_DD_L3,2021.2.3,Win32,60.81615277,,,,,,,,,,,0.6911,1,,,,,,,,,,,,,,m,1,0.6911,,,,,,,,0.154629661,-0.2527778,0,0,0,,0,62,62,9,1,RHINO,LB,old,m,./images/RHINOLB.png,,,,,,,,,,,,,,,,,,,,,,,,,,,,,,,,,,,
,,,,,,,,,,,,,,,,,6111117cc879aaabc0231495,19,2022-02-12_13h27.31.969,lexical_decision_task_DD_L3,2021.2.3,Win32,60.81615277,,,,,,,,,,,1.1821,1,,,,,,,,,,,,,,z,1,1.1821,,,,,,,,0.154629661,-0.2527778,0,0,0,,0,63,63,107,1,FASKS,LB,old,z,./images/FASKSLB.png,,,,,,,,,,,,,,,,,,,,,,,,,,,,,,,,,,,
,,,,,,,,,,,,,,,,,6111117cc879aaabc0231495,19,2022-02-12_13h27.31.969,lexical_decision_task_DD_L3,2021.2.3,Win32,60.81615277,,,,,,,,,,,0.5972,1,,,,,,,,,,,,,,z,1,0.5972,,,,,,,,0.154629661,-0.2527778,0,0,0,,0,64,64,95,1,HANTY,LB,old,z,./images/HANTYLB.png,,,,,,,,,,,,,,,,,,,,,,,,,,,,,,,,,,,
,,,,,,,,,,,,,,,,,6111117cc879aaabc0231495,19,2022-02-12_13h27.31.969,lexical_decision_task_DD_L3,2021.2.3,Win32,60.81615277,,,,,,,,,,,0.593,1,,,,,,,,,,,,,,m,1,0.593,,,,,,,,0.154629661,-0.2527778,0,0,0,,0,65,65,18,1,JAGUAR,LB,old,m,./images/JAGUARLB.png,,,,,,,,,,,,,,,,,,,,,,,,,,,,,,,,,,,
,,,,,,,,,,,,,,,,,6111117cc879aaabc0231495,19,2022-02-12_13h27.31.969,lexical_decision_task_DD_L3,2021.2.3,Win32,60.81615277,,,,,,,,,,,0.7546,1,,,,,,,,,,,,,,z,1,0.7546,,,,,,,,0.154629661,-0.2527778,0,0,0,,0,66,66,147,1,ZOLES,C,old,z,./images/ZOLES.png,,,,,,,,,,,,,,,,,,,,,,,,,,,,,,,,,,,
,,,,,,,,,,,,,,,,,6111117cc879aaabc0231495,19,2022-02-12_13h27.31.969,lexical_decision_task_DD_L3,2021.2.3,Win32,60.81615277,,,,,,,,,,,0.7397,1,,,,,,,,,,,,,,z,1,0.7397,,,,,,,,0.154629661,-0.2527778,0,0,0,,0,67,67,149,1,VEASE,LB,old,z,./images/VEASELB.png,,,,,,,,,,,,,,,,,,,,,,,,,,,,,,,,,,,
,,,,,,,,,,,,,,,,,6111117cc879aaabc0231495,19,2022-02-12_13h27.31.969,lexical_decision_task_DD_L3,2021.2.3,Win32,60.81615277,,,,,,,,,,,0.5829,1,,,,,,,,,,,,,,z,1,0.5829,,,,,,,,0.154629661,-0.2527778,0,0,0,,0,68,68,96,1,KEAMS,C,old,z,./images/KEAMS.png,,,,,,,,,,,,,,,,,,,,,,,,,,,,,,,,,,,
,,,,,,,,,,,,,,,,,6111117cc879aaabc0231495,19,2022-02-12_13h27.31.969,lexical_decision_task_DD_L3,2021.2.3,Win32,60.81615277,,,,,,,,,,,0.6432,1,,,,,,,,,,,,,,z,1,0.6432,,,,,,,,0.154629661,-0.2527778,0,0,0,,0,69,69,93,1,SMONE,C,old,z,./images/SMONE.png,,,,,,,,,,,,,,,,,,,,,,,,,,,,,,,,,,,
,,,,,,,,,,,,,,,,,6111117cc879aaabc0231495,19,2022-02-12_13h27.31.969,lexical_decision_task_DD_L3,2021.2.3,Win32,60.81615277,,,,,,,,,,,0.9225,1,,,,,,,,,,,,,,m,1,0.9225,,,,,,,,0.154629661,-0.2527778,0,0,0,,0,70,70,23,1,WALRUS,HB,old,m,./images/WALRUSHB.png,,,,,,,,,,,,,,,,,,,,,,,,,,,,,,,,,,,
,,,,,,,,,,,,,,,,,6111117cc879aaabc0231495,19,2022-02-12_13h27.31.969,lexical_decision_task_DD_L3,2021.2.3,Win32,60.81615277,,,,,,,,,,,0.5917,1,,,,,,,,,,,,,,z,1,0.5917,,,,,,,,0.154629661,-0.2527778,0,0,0,,0,71,71,86,1,AIFED,LB,old,z,./images/AIFEDLB.png,,,,,,,,,,,,,,,,,,,,,,,,,,,,,,,,,,,
,,,,,,,,,,,,,,,,,6111117cc879aaabc0231495,19,2022-02-12_13h27.31.969,lexical_decision_task_DD_L3,2021.2.3,Win32,60.81615277,,,,,,,,,,,1.0073,1,,,,,,,,,,,,,,z,1,1.0073,,,,,,,,0.154629661,-0.2527778,0,0,0,,0,72,72,88,1,GLUSH,HB,old,z,./images/GLUSHHB.png,,,,,,,,,,,,,,,,,,,,,,,,,,,,,,,,,,,
,,,,,,,,,,,,,,,,,6111117cc879aaabc0231495,19,2022-02-12_13h27.31.969,lexical_decision_task_DD_L3,2021.2.3,Win32,60.81615277,,,,,,,,,,,0.7242,1,,,,,,,,,,,,,,z,1,0.7242,,,,,,,,0.154629661,-0.2527778,0,0,0,,0,73,73,136,1,WERVE,HB,old,z,./images/WERVEHB.png,,,,,,,,,,,,,,,,,,,,,,,,,,,,,,,,,,,
,,,,,,,,,,,,,,,,,6111117cc879aaabc0231495,19,2022-02-12_13h27.31.969,lexical_decision_task_DD_L3,2021.2.3,Win32,60.81615277,,,,,,,,,,,0.885,0,,,,,,,,,,,,,,z,0,0.885,,,,,,,,0.154629661,-0.2527778,0,0,0,,0,74,74,65,1,FARMER,HB,old,m,./images/FARMERHB.png,,,,,,,,,,,,,,,,,,,,,,,,,,,,,,,,,,,
,,,,,,,,,,,,,,,,,6111117cc879aaabc0231495,19,2022-02-12_13h27.31.969,lexical_decision_task_DD_L3,2021.2.3,Win32,60.81615277,,,,,,,,,,,0.9963,1,,,,,,,,,,,,,,m,1,0.9963,,,,,,,,0.154629661,-0.2527778,0,0,0,,0,75,75,44,1,LIZARD,HB,old,m,./images/LIZARDHB.png,,,,,,,,,,,,,,,,,,,,,,,,,,,,,,,,,,,
,,,,,,,,,,,,,,,,,6111117cc879aaabc0231495,19,2022-02-12_13h27.31.969,lexical_decision_task_DD_L3,2021.2.3,Win32,60.81615277,,,,,,,,,,,0.7659,1,,,,,,,,,,,,,,m,1,0.7659,,,,,,,,0.154629661,-0.2527778,0,0,0,,0,76,76,49,1,DRUMS,C,old,m,./images/DRUMS.png,,,,,,,,,,,,,,,,,,,,,,,,,,,,,,,,,,,
,,,,,,,,,,,,,,,,,6111117cc879aaabc0231495,19,2022-02-12_13h27.31.969,lexical_decision_task_DD_L3,2021.2.3,Win32,60.81615277,,,,,,,,,,,0.5975,1,,,,,,,,,,,,,,m,1,0.5975,,,,,,,,0.154629661,-0.2527778,0,0,0,,0,77,77,0,1,TOMATO,LB,old,m,./images/TOMATOLB.png,,,,,,,,,,,,,,,,,,,,,,,,,,,,,,,,,,,
,,,,,,,,,,,,,,,,,6111117cc879aaabc0231495,19,2022-02-12_13h27.31.969,lexical_decision_task_DD_L3,2021.2.3,Win32,60.81615277,,,,,,,,,,,1.2093,1,,,,,,,,,,,,,,z,1,1.2093,,,,,,,,0.154629661,-0.2527778,0,0,0,,0,78,78,154,1,THINT,HB,old,z,./images/THINTHB.png,,,,,,,,,,,,,,,,,,,,,,,,,,,,,,,,,,,
,,,,,,,,,,,,,,,,,6111117cc879aaabc0231495,19,2022-02-12_13h27.31.969,lexical_decision_task_DD_L3,2021.2.3,Win32,60.81615277,,,,,,,,,,,0.5169,1,,,,,,,,,,,,,,m,1,0.5169,,,,,,,,0.154629661,-0.2527778,0,0,0,,0,79,79,70,1,URINE,C,old,m,./images/URINE.png,,,,,,,,,,,,,,,,,,,,,,,,,,,,,,,,,,,
,,,,,,,,,,,,,,,,,6111117cc879aaabc0231495,19,2022-02-12_13h27.31.969,lexical_decision_task_DD_L3,2021.2.3,Win32,60.81615277,,,,,,,,,,,0.8412,1,,,,,,,,,,,,,,z,1,0.8412,,,,,,,,0.154629661,-0.2527778,0,0,0,,0,80,80,139,1,BLEAR,HB,old,z,./images/BLEARHB.png,,,,,,,,,,,,,,,,,,,,,,,,,,,,,,,,,,,
,,,,,,,,,,,,,,,,,6111117cc879aaabc0231495,19,2022-02-12_13h27.31.969,lexical_decision_task_DD_L3,2021.2.3,Win32,60.81615277,,,,,,,,,,,1.0313,1,,,,,,,,,,,,,,z,1,1.0313,,,,,,,,0.154629661,-0.2527778,0,0,0,,0,81,81,124,1,TUNCH,HB,old,z,./images/TUNCHHB.png,,,,,,,,,,,,,,,,,,,,,,,,,,,,,,,,,,,
,,,,,,,,,,,,,,,,,6111117cc879aaabc0231495,19,2022-02-12_13h27.31.969,lexical_decision_task_DD_L3,2021.2.3,Win32,60.81615277,,,,,,,,,,,0.7843,1,,,,,,,,,,,,,,z,1,0.7843,,,,,,,,0.154629661,-0.2527778,0,0,0,,0,82,82,84,1,HAXES,C,old,z,./images/HAXES.png,,,,,,,,,,,,,,,,,,,,,,,,,,,,,,,,,,,
,,,,,,,,,,,,,,,,,6111117cc879aaabc0231495,19,2022-02-12_13h27.31.969,lexical_decision_task_DD_L3,2021.2.3,Win32,60.81615277,,,,,,,,,,,0.6447,1,,,,,,,,,,,,,,z,1,0.6447,,,,,,,,0.154629661,-0.2527778,0,0,0,space,0,83,83,167,1,ZONET,LB,old,z,./images/ZONETLB.png,9.2217,,,,,,,,,,,,,,,,,,,,,,,,,,,,,,,,,,
,,,,,,,,,,,,,,,,,6111117cc879aaabc0231495,19,2022-02-12_13h27.31.969,lexical_decision_task_DD_L3,2021.2.3,Win32,60.81615277,,,,,,,,,,,0.9898,0,,,,,,,,,,,,,,m,0,0.9898,,,,,,,,0.154629661,-0.2527778,0,0,0,,0,84,84,166,1,SHORY,HB,old,z,./images/SHORYHB.png,,,,,,,,,,,,,,,,,,,,,,,,,,,,,,,,,,,
,,,,,,,,,,,,,,,,,6111117cc879aaabc0231495,19,2022-02-12_13h27.31.969,lexical_decision_task_DD_L3,2021.2.3,Win32,60.81615277,,,,,,,,,,,0.623,1,,,,,,,,,,,,,,m,1,0.623,,,,,,,,0.154629661,-0.2527778,0,0,0,,0,85,85,53,1,CARPET,HB,old,m,./images/CARPETHB.png,,,,,,,,,,,,,,,,,,,,,,,,,,,,,,,,,,,
,,,,,,,,,,,,,,,,,6111117cc879aaabc0231495,19,2022-02-12_13h27.31.969,lexical_decision_task_DD_L3,2021.2.3,Win32,60.81615277,,,,,,,,,,,1.0189,1,,,,,,,,,,,,,,m,1,1.0189,,,,,,,,0.154629661,-0.2527778,0,0,0,,0,86,86,8,1,TULIP,HB,old,m,./images/TULIPHB.png,,,,,,,,,,,,,,,,,,,,,,,,,,,,,,,,,,,
,,,,,,,,,,,,,,,,,6111117cc879aaabc0231495,19,2022-02-12_13h27.31.969,lexical_decision_task_DD_L3,2021.2.3,Win32,60.81615277,,,,,,,,,,,0.6917,1,,,,,,,,,,,,,,z,1,0.6917,,,,,,,,0.154629661,-0.2527778,0,0,0,,0,87,87,119,1,PAFER,LB,old,z,./images/PAFERLB.png,,,,,,,,,,,,,,,,,,,,,,,,,,,,,,,,,,,
,,,,,,,,,,,,,,,,,6111117cc879aaabc0231495,19,2022-02-12_13h27.31.969,lexical_decision_task_DD_L3,2021.2.3,Win32,60.81615277,,,,,,,,,,,0.7372,1,,,,,,,,,,,,,,m,1,0.7372,,,,,,,,0.154629661,-0.2527778,0,0,0,,0,88,88,54,1,TRIPOD,LB,old,m,./images/TRIPODLB.png,,,,,,,,,,,,,,,,,,,,,,,,,,,,,,,,,,,
,,,,,,,,,,,,,,,,,6111117cc879aaabc0231495,19,2022-02-12_13h27.31.969,lexical_decision_task_DD_L3,2021.2.3,Win32,60.81615277,,,,,,,,,,,0.8685,1,,,,,,,,,,,,,,z,1,0.8685,,,,,,,,0.154629661,-0.2527778,0,0,0,,0,89,89,90,1,NEAST,C,old,z,./images/NEAST.png,,,,,,,,,,,,,,,,,,,,,,,,,,,,,,,,,,,
,,,,,,,,,,,,,,,,,6111117cc879aaabc0231495,19,2022-02-12_13h27.31.969,lexical_decision_task_DD_L3,2021.2.3,Win32,60.81615277,,,,,,,,,,,0.9181,1,,,,,,,,,,,,,,z,1,0.9181,,,,,,,,0.154629661,-0.2527778,0,0,0,,0,90,90,127,1,NINDY,HB,old,z,./images/NINDYHB.png,,,,,,,,,,,,,,,,,,,,,,,,,,,,,,,,,,,
,,,,,,,,,,,,,,,,,6111117cc879aaabc0231495,19,2022-02-12_13h27.31.969,lexical_decision_task_DD_L3,2021.2.3,Win32,60.81615277,,,,,,,,,,,0.6182,1,,,,,,,,,,,,,,z,1,0.6182,,,,,,,,0.154629661,-0.2527778,0,0,0,,0,91,91,129,1,PRANS,C,old,z,./images/PRANS.png,,,,,,,,,,,,,,,,,,,,,,,,,,,,,,,,,,,
,,,,,,,,,,,,,,,,,6111117cc879aaabc0231495,19,2022-02-12_13h27.31.969,lexical_decision_task_DD_L3,2021.2.3,Win32,60.81615277,,,,,,,,,,,0.7979,1,,,,,,,,,,,,,,m,1,0.7979,,,,,,,,0.154629661,-0.2527778,0,0,0,,0,92,92,58,1,BABOON,C,old,m,./images/BABOON.png,,,,,,,,,,,,,,,,,,,,,,,,,,,,,,,,,,,
,,,,,,,,,,,,,,,,,6111117cc879aaabc0231495,19,2022-02-12_13h27.31.969,lexical_decision_task_DD_L3,2021.2.3,Win32,60.81615277,,,,,,,,,,,0.5764,1,,,,,,,,,,,,,,m,1,0.5764,,,,,,,,0.154629661,-0.2527778,0,0,0,,0,93,93,21,1,KIDNEY,LB,old,m,./images/KIDNEYLB.png,,,,,,,,,,,,,,,,,,,,,,,,,,,,,,,,,,,
,,,,,,,,,,,,,,,,,6111117cc879aaabc0231495,19,2022-02-12_13h27.31.969,lexical_decision_task_DD_L3,2021.2.3,Win32,60.81615277,,,,,,,,,,,0.7216,1,,,,,,,,,,,,,,z,1,0.7216,,,,,,,,0.154629661,-0.2527778,0,0,0,,0,94,94,121,1,CEERS,HB,old,z,./images/CEERSHB.png,,,,,,,,,,,,,,,,,,,,,,,,,,,,,,,,,,,
,,,,,,,,,,,,,,,,,6111117cc879aaabc0231495,19,2022-02-12_13h27.31.969,lexical_decision_task_DD_L3,2021.2.3,Win32,60.81615277,,,,,,,,,,,0.618,1,,,,,,,,,,,,,,z,1,0.618,,,,,,,,0.154629661,-0.2527778,0,0,0,,0,95,95,125,1,MOOKY,LB,old,z,./images/MOOKYLB.png,,,,,,,,,,,,,,,,,,,,,,,,,,,,,,,,,,,
,,,,,,,,,,,,,,,,,6111117cc879aaabc0231495,19,2022-02-12_13h27.31.969,lexical_decision_task_DD_L3,2021.2.3,Win32,60.81615277,,,,,,,,,,,0.6456,1,,,,,,,,,,,,,,m,1,0.6456,,,,,,,,0.154629661,-0.2527778,0,0,0,,0,96,96,57,1,MOOSE,LB,old,m,./images/MOOSELB.png,,,,,,,,,,,,,,,,,,,,,,,,,,,,,,,,,,,
,,,,,,,,,,,,,,,,,6111117cc879aaabc0231495,19,2022-02-12_13h27.31.969,lexical_decision_task_DD_L3,2021.2.3,Win32,60.81615277,,,,,,,,,,,1.0333,1,,,,,,,,,,,,,,z,1,1.0333,,,,,,,,0.154629661,-0.2527778,0,0,0,,0,97,97,163,1,GAMBA,HB,old,z,./images/GAMBAHB.png,,,,,,,,,,,,,,,,,,,,,,,,,,,,,,,,,,,
,,,,,,,,,,,,,,,,,6111117cc879aaabc0231495,19,2022-02-12_13h27.31.969,lexical_decision_task_DD_L3,2021.2.3,Win32,60.81615277,,,,,,,,,,,0.6616,1,,,,,,,,,,,,,,z,1,0.6616,,,,,,,,0.154629661,-0.2527778,0,0,0,,0,98,98,108,1,GRUET,C,old,z,./images/GRUET.png,,,,,,,,,,,,,,,,,,,,,,,,,,,,,,,,,,,
,,,,,,,,,,,,,,,,,6111117cc879aaabc0231495,19,2022-02-12_13h27.31.969,lexical_decision_task_DD_L3,2021.2.3,Win32,60.81615277,,,,,,,,,,,0.7688,1,,,,,,,,,,,,,,m,1,0.7688,,,,,,,,0.154629661,-0.2527778,0,0,0,,0,99,99,17,1,SKIING,HB,old,m,./images/SKIINGHB.png,,,,,,,,,,,,,,,,,,,,,,,,,,,,,,,,,,,
,,,,,,,,,,,,,,,,,6111117cc879aaabc0231495,19,2022-02-12_13h27.31.969,lexical_decision_task_DD_L3,2021.2.3,Win32,60.81615277,,,,,,,,,,,0.7057,1,,,,,,,,,,,,,,z,1,0.7057,,,,,,,,0.154629661,-0.2527778,0,0,0,,0,100,100,158,1,EGECT,LB,old,z,./images/EGECTLB.png,,,,,,,,,,,,,,,,,,,,,,,,,,,,,,,,,,,
,,,,,,,,,,,,,,,,,6111117cc879aaabc0231495,19,2022-02-12_13h27.31.969,lexical_decision_task_DD_L3,2021.2.3,Win32,60.81615277,,,,,,,,,,,0.6629,1,,,,,,,,,,,,,,z,1,0.6629,,,,,,,,0.154629661,-0.2527778,0,0,0,,0,101,101,87,1,TRING,C,old,z,./images/TRING.png,,,,,,,,,,,,,,,,,,,,,,,,,,,,,,,,,,,
,,,,,,,,,,,,,,,,,6111117cc879aaabc0231495,19,2022-02-12_13h27.31.969,lexical_decision_task_DD_L3,2021.2.3,Win32,60.81615277,,,,,,,,,,,0.9508,0,,,,,,,,,,,,,,z,0,0.9508,,,,,,,,0.154629661,-0.2527778,0,0,0,,0,102,102,38,1,LADDER,HB,old,m,./images/LADDERHB.png,,,,,,,,,,,,,,,,,,,,,,,,,,,,,,,,,,,
,,,,,,,,,,,,,,,,,6111117cc879aaabc0231495,19,2022-02-12_13h27.31.969,lexical_decision_task_DD_L3,2021.2.3,Win32,60.81615277,,,,,,,,,,,0.7736,1,,,,,,,,,,,,,,m,1,0.7736,,,,,,,,0.154629661,-0.2527778,0,0,0,,0,103,103,69,1,COOKER,LB,old,m,./images/COOKERLB.png,,,,,,,,,,,,,,,,,,,,,,,,,,,,,,,,,,,
,,,,,,,,,,,,,,,,,6111117cc879aaabc0231495,19,2022-02-12_13h27.31.969,lexical_decision_task_DD_L3,2021.2.3,Win32,60.81615277,,,,,,,,,,,0.8117,1,,,,,,,,,,,,,,z,1,0.8117,,,,,,,,0.154629661,-0.2527778,0,0,0,,0,104,104,151,1,TINKY,HB,old,z,./images/TINKYHB.png,,,,,,,,,,,,,,,,,,,,,,,,,,,,,,,,,,,
,,,,,,,,,,,,,,,,,6111117cc879aaabc0231495,19,2022-02-12_13h27.31.969,lexical_decision_task_DD_L3,2021.2.3,Win32,60.81615277,,,,,,,,,,,0.6072,1,,,,,,,,,,,,,,m,1,0.6072,,,,,,,,0.154629661,-0.2527778,0,0,0,,0,105,105,75,1,GRAIN,LB,old,m,./images/GRAINLB.png,,,,,,,,,,,,,,,,,,,,,,,,,,,,,,,,,,,
,,,,,,,,,,,,,,,,,6111117cc879aaabc0231495,19,2022-02-12_13h27.31.969,lexical_decision_task_DD_L3,2021.2.3,Win32,60.81615277,,,,,,,,,,,0.6233,1,,,,,,,,,,,,,,z,1,0.6233,,,,,,,,0.154629661,-0.2527778,0,0,0,,0,106,106,144,1,NAIRY,C,old,z,./images/NAIRY.png,,,,,,,,,,,,,,,,,,,,,,,,,,,,,,,,,,,
,,,,,,,,,,,,,,,,,6111117cc879aaabc0231495,19,2022-02-12_13h27.31.969,lexical_decision_task_DD_L3,2021.2.3,Win32,60.81615277,,,,,,,,,,,1.111,1,,,,,,,,,,,,,,m,1,1.111,,,,,,,,0.154629661,-0.2527778,0,0,0,,0,107,107,20,1,CRADLE,HB,old,m,./images/CRADLEHB.png,,,,,,,,,,,,,,,,,,,,,,,,,,,,,,,,,,,
,,,,,,,,,,,,,,,,,6111117cc879aaabc0231495,19,2022-02-12_13h27.31.969,lexical_decision_task_DD_L3,2021.2.3,Win32,60.81615277,,,,,,,,,,,0.7157,1,,,,,,,,,,,,,,z,1,0.7157,,,,,,,,0.154629661,-0.2527778,0,0,0,,0,108,108,116,1,BALGY,LB,old,z,./images/BALGYLB.png,,,,,,,,,,,,,,,,,,,,,,,,,,,,,,,,,,,
,,,,,,,,,,,,,,,,,6111117cc879aaabc0231495,19,2022-02-12_13h27.31.969,lexical_decision_task_DD_L3,2021.2.3,Win32,60.81615277,,,,,,,,,,,0.6266,1,,,,,,,,,,,,,,z,1,0.6266,,,,,,,,0.154629661,-0.2527778,0,0,0,,0,109,109,122,1,BLOOT,LB,old,z,./images/BLOOTLB.png,,,,,,,,,,,,,,,,,,,,,,,,,,,,,,,,,,,
,,,,,,,,,,,,,,,,,6111117cc879aaabc0231495,19,2022-02-12_13h27.31.969,lexical_decision_task_DD_L3,2021.2.3,Win32,60.81615277,,,,,,,,,,,0.5804,1,,,,,,,,,,,,,,m,1,0.5804,,,,,,,,0.154629661,-0.2527778,0,0,0,,0,110,110,28,1,FALCON,C,old,m,./images/FALCON.png,,,,,,,,,,,,,,,,,,,,,,,,,,,,,,,,,,,
,,,,,,,,,,,,,,,,,6111117cc879aaabc0231495,19,2022-02-12_13h27.31.969,lexical_decision_task_DD_L3,2021.2.3,Win32,60.81615277,,,,,,,,,,,0.8019,1,,,,,,,,,,,,,,m,1,0.8019,,,,,,,,0.154629661,-0.2527778,0,0,0,,0,111,111,62,1,PURSE,HB,old,m,./images/PURSEHB.png,,,,,,,,,,,,,,,,,,,,,,,,,,,,,,,,,,,
,,,,,,,,,,,,,,,,,6111117cc879aaabc0231495,19,2022-02-12_13h27.31.969,lexical_decision_task_DD_L3,2021.2.3,Win32,60.81615277,,,,,,,,,,,0.703,1,,,,,,,,,,,,,,m,1,0.703,,,,,,,,0.154629661,-0.2527778,0,0,0,,0,112,112,46,1,PEARL,C,old,m,./images/PEARL.png,,,,,,,,,,,,,,,,,,,,,,,,,,,,,,,,,,,
,,,,,,,,,,,,,,,,,6111117cc879aaabc0231495,19,2022-02-12_13h27.31.969,lexical_decision_task_DD_L3,2021.2.3,Win32,60.81615277,,,,,,,,,,,0.8017,1,,,,,,,,,,,,,,z,1,0.8017,,,,,,,,0.154629661,-0.2527778,0,0,0,,0,113,113,104,1,GITTY,LB,old,z,./images/GITTYLB.png,,,,,,,,,,,,,,,,,,,,,,,,,,,,,,,,,,,
,,,,,,,,,,,,,,,,,6111117cc879aaabc0231495,19,2022-02-12_13h27.31.969,lexical_decision_task_DD_L3,2021.2.3,Win32,60.81615277,,,,,,,,,,,0.7458,1,,,,,,,,,,,,,,z,1,0.7458,,,,,,,,0.154629661,-0.2527778,0,0,0,,0,114,114,102,1,DULLE,C,old,z,./images/DULLE.png,,,,,,,,,,,,,,,,,,,,,,,,,,,,,,,,,,,
,,,,,,,,,,,,,,,,,6111117cc879aaabc0231495,19,2022-02-12_13h27.31.969,lexical_decision_task_DD_L3,2021.2.3,Win32,60.81615277,,,,,,,,,,,0.6314,0,,,,,,,,,,,,,,m,0,0.6314,,,,,,,,0.154629661,-0.2527778,0,0,0,,0,115,115,159,1,CUDDY,C,old,z,./images/CUDDY.png,,,,,,,,,,,,,,,,,,,,,,,,,,,,,,,,,,,
,,,,,,,,,,,,,,,,,6111117cc879aaabc0231495,19,2022-02-12_13h27.31.969,lexical_decision_task_DD_L3,2021.2.3,Win32,60.81615277,,,,,,,,,,,0.7682,1,,,,,,,,,,,,,,m,1,0.7682,,,,,,,,0.154629661,-0.2527778,0,0,0,,0,116,116,45,1,KITTEN,LB,old,m,./images/KITTENLB.png,,,,,,,,,,,,,,,,,,,,,,,,,,,,,,,,,,,
,,,,,,,,,,,,,,,,,6111117cc879aaabc0231495,19,2022-02-12_13h27.31.969,lexical_decision_task_DD_L3,2021.2.3,Win32,60.81615277,,,,,,,,,,,1.3683,1,,,,,,,,,,,,,,z,1,1.3683,,,,,,,,0.154629661,-0.2527778,0,0,0,,0,117,117,152,1,FRAIN,LB,old,z,./images/FRAINLB.png,,,,,,,,,,,,,,,,,,,,,,,,,,,,,,,,,,,
,,,,,,,,,,,,,,,,,6111117cc879aaabc0231495,19,2022-02-12_13h27.31.969,lexical_decision_task_DD_L3,2021.2.3,Win32,60.81615277,,,,,,,,,,,0.8194,1,,,,,,,,,,,,,,z,1,0.8194,,,,,,,,0.154629661,-0.2527778,0,0,0,,0,118,118,85,1,CHULK,HB,old,z,./images/CHULKHB.png,,,,,,,,,,,,,,,,,,,,,,,,,,,,,,,,,,,
,,,,,,,,,,,,,,,,,6111117cc879aaabc0231495,19,2022-02-12_13h27.31.969,lexical_decision_task_DD_L3,2021.2.3,Win32,60.81615277,,,,,,,,,,,0.6189,1,,,,,,,,,,,,,,m,1,0.6189,,,,,,,,0.154629661,-0.2527778,0,0,0,,0,119,119,40,1,SWING,C,old,m,./images/SWING.png,,,,,,,,,,,,,,,,,,,,,,,,,,,,,,,,,,,
,,,,,,,,,,,,,,,,,6111117cc879aaabc0231495,19,2022-02-12_13h27.31.969,lexical_decision_task_DD_L3,2021.2.3,Win32,60.81615277,,,,,,,,,,,0.9505,1,,,,,,,,,,,,,,z,1,0.9505,,,,,,,,0.154629661,-0.2527778,0,0,0,,0,120,120,130,1,CRILL,HB,old,z,./images/CRILLHB.png,,,,,,,,,,,,,,,,,,,,,,,,,,,,,,,,,,,
,,,,,,,,,,,,,,,,,6111117cc879aaabc0231495,19,2022-02-12_13h27.31.969,lexical_decision_task_DD_L3,2021.2.3,Win32,60.81615277,,,,,,,,,,,1.9572,1,,,,,,,,,,,,,,z,1,1.9572,,,,,,,,0.154629661,-0.2527778,0,0,0,,0,121,121,91,1,SHENS,HB,old,z,./images/SHENSHB.png,,,,,,,,,,,,,,,,,,,,,,,,,,,,,,,,,,,
,,,,,,,,,,,,,,,,,6111117cc879aaabc0231495,19,2022-02-12_13h27.31.969,lexical_decision_task_DD_L3,2021.2.3,Win32,60.81615277,,,,,,,,,,,0.846,1,,,,,,,,,,,,,,m,1,0.846,,,,,,,,0.154629661,-0.2527778,0,0,0,,0,122,122,43,1,MOSQUE,C,old,m,./images/MOSQUE.png,,,,,,,,,,,,,,,,,,,,,,,,,,,,,,,,,,,
,,,,,,,,,,,,,,,,,6111117cc879aaabc0231495,19,2022-02-12_13h27.31.969,lexical_decision_task_DD_L3,2021.2.3,Win32,60.81615277,,,,,,,,,,,0.6022,1,,,,,,,,,,,,,,m,1,0.6022,,,,,,,,0.154629661,-0.2527778,0,0,0,,0,123,123,63,1,MIRROR,LB,old,m,./images/MIRRORLB.png,,,,,,,,,,,,,,,,,,,,,,,,,,,,,,,,,,,
,,,,,,,,,,,,,,,,,6111117cc879aaabc0231495,19,2022-02-12_13h27.31.969,lexical_decision_task_DD_L3,2021.2.3,Win32,60.81615277,,,,,,,,,,,0.7928,1,,,,,,,,,,,,,,z,1,0.7928,,,,,,,,0.154629661,-0.2527778,0,0,0,,0,124,124,161,1,BLAPS,LB,old,z,./images/BLAPSLB.png,,,,,,,,,,,,,,,,,,,,,,,,,,,,,,,,,,,
,,,,,,,,,,,,,,,,,6111117cc879aaabc0231495,19,2022-02-12_13h27.31.969,lexical_decision_task_DD_L3,2021.2.3,Win32,60.81615277,,,,,,,,,,,0.7868,1,,,,,,,,,,,,,,z,1,0.7868,,,,,,,,0.154629661,-0.2527778,0,0,0,space,0,125,125,153,1,CLUPS,C,old,z,./images/CLUPS.png,15.6323,,,,,,,,,,,,,,,,,,,,,,,,,,,,,,,,,,
,,,,,,,,,,,,,,,,,6111117cc879aaabc0231495,19,2022-02-12_13h27.31.969,lexical_decision_task_DD_L3,2021.2.3,Win32,60.81615277,,,,,,,,,,,0.7352,1,,,,,,,,,,,,,,m,1,0.7352,,,,,,,,0.154629661,-0.2527778,0,0,0,,0,126,126,6,1,SQUARE,LB,old,m,./images/SQUARELB.png,,,,,,,,,,,,,,,,,,,,,,,,,,,,,,,,,,,
,,,,,,,,,,,,,,,,,6111117cc879aaabc0231495,19,2022-02-12_13h27.31.969,lexical_decision_task_DD_L3,2021.2.3,Win32,60.81615277,,,,,,,,,,,0.5685,1,,,,,,,,,,,,,,z,1,0.5685,,,,,,,,0.154629661,-0.2527778,0,0,0,,0,127,127,126,1,GUELS,C,old,z,./images/GUELS.png,,,,,,,,,,,,,,,,,,,,,,,,,,,,,,,,,,,
,,,,,,,,,,,,,,,,,6111117cc879aaabc0231495,19,2022-02-12_13h27.31.969,lexical_decision_task_DD_L3,2021.2.3,Win32,60.81615277,,,,,,,,,,,0.8411,1,,,,,,,,,,,,,,m,1,0.8411,,,,,,,,0.154629661,-0.2527778,0,0,0,,0,128,128,11,1,BONNET,HB,old,m,./images/BONNETHB.png,,,,,,,,,,,,,,,,,,,,,,,,,,,,,,,,,,,
,,,,,,,,,,,,,,,,,6111117cc879aaabc0231495,19,2022-02-12_13h27.31.969,lexical_decision_task_DD_L3,2021.2.3,Win32,60.81615277,,,,,,,,,,,0.7752,1,,,,,,,,,,,,,,z,1,0.7752,,,,,,,,0.154629661,-0.2527778,0,0,0,,0,129,129,148,1,JOMS,HB,old,z,./images/JOMSHB.png,,,,,,,,,,,,,,,,,,,,,,,,,,,,,,,,,,,
,,,,,,,,,,,,,,,,,6111117cc879aaabc0231495,19,2022-02-12_13h27.31.969,lexical_decision_task_DD_L3,2021.2.3,Win32,60.81615277,,,,,,,,,,,0.6454,1,,,,,,,,,,,,,,z,1,0.6454,,,,,,,,0.154629661,-0.2527778,0,0,0,,0,130,130,164,1,SGREW,LB,old,z,./images/SGREWLB.png,,,,,,,,,,,,,,,,,,,,,,,,,,,,,,,,,,,
,,,,,,,,,,,,,,,,,6111117cc879aaabc0231495,19,2022-02-12_13h27.31.969,lexical_decision_task_DD_L3,2021.2.3,Win32,60.81615277,,,,,,,,,,,0.9537,1,,,,,,,,,,,,,,z,1,0.9537,,,,,,,,0.154629661,-0.2527778,0,0,0,,0,131,131,160,1,VEETS,HB,old,z,./images/VEETSHB.png,,,,,,,,,,,,,,,,,,,,,,,,,,,,,,,,,,,
,,,,,,,,,,,,,,,,,6111117cc879aaabc0231495,19,2022-02-12_13h27.31.969,lexical_decision_task_DD_L3,2021.2.3,Win32,60.81615277,,,,,,,,,,,1.5281,1,,,,,,,,,,,,,,z,1,1.5281,,,,,,,,0.154629661,-0.2527778,0,0,0,,0,132,132,94,1,BLANS,HB,old,z,./images/BLANSHB.png,,,,,,,,,,,,,,,,,,,,,,,,,,,,,,,,,,,
,,,,,,,,,,,,,,,,,6111117cc879aaabc0231495,19,2022-02-12_13h27.31.969,lexical_decision_task_DD_L3,2021.2.3,Win32,60.81615277,,,,,,,,,,,0.6048,1,,,,,,,,,,,,,,m,1,0.6048,,,,,,,,0.154629661,-0.2527778,0,0,0,,0,133,133,60,1,TWINS,LB,old,m,./images/TWINSLB.png,,,,,,,,,,,,,,,,,,,,,,,,,,,,,,,,,,,
,,,,,,,,,,,,,,,,,6111117cc879aaabc0231495,19,2022-02-12_13h27.31.969,lexical_decision_task_DD_L3,2021.2.3,Win32,60.81615277,,,,,,,,,,,1.4576,1,,,,,,,,,,,,,,z,1,1.4576,,,,,,,,0.154629661,-0.2527778,0,0,0,,0,134,134,157,1,INLER,HB,old,z,./images/INLERHB.png,,,,,,,,,,,,,,,,,,,,,,,,,,,,,,,,,,,
,,,,,,,,,,,,,,,,,6111117cc879aaabc0231495,19,2022-02-12_13h27.31.969,lexical_decision_task_DD_L3,2021.2.3,Win32,60.81615277,,,,,,,,,,,0.6225,1,,,,,,,,,,,,,,m,1,0.6225,,,,,,,,0.154629661,-0.2527778,0,0,0,,0,135,135,83,1,JUNGLE,HB,old,m,./images/JUNGLEHB.png,,,,,,,,,,,,,,,,,,,,,,,,,,,,,,,,,,,
,,,,,,,,,,,,,,,,,6111117cc879aaabc0231495,19,2022-02-12_13h27.31.969,lexical_decision_task_DD_L3,2021.2.3,Win32,60.81615277,,,,,,,,,,,0.6804,1,,,,,,,,,,,,,,z,1,0.6804,,,,,,,,0.154629661,-0.2527778,0,0,0,,0,136,136,105,1,MOKER,C,old,z,./images/MOKER.png,,,,,,,,,,,,,,,,,,,,,,,,,,,,,,,,,,,
,,,,,,,,,,,,,,,,,6111117cc879aaabc0231495,19,2022-02-12_13h27.31.969,lexical_decision_task_DD_L3,2021.2.3,Win32,60.81615277,,,,,,,,,,,0.9531,1,,,,,,,,,,,,,,z,1,0.9531,,,,,,,,0.154629661,-0.2527778,0,0,0,,0,137,137,143,1,MONGS,LB,old,z,./images/MONGSLB.png,,,,,,,,,,,,,,,,,,,,,,,,,,,,,,,,,,,
,,,,,,,,,,,,,,,,,6111117cc879aaabc0231495,19,2022-02-12_13h27.31.969,lexical_decision_task_DD_L3,2021.2.3,Win32,60.81615277,,,,,,,,,,,0.6049,1,,,,,,,,,,,,,,m,1,0.6049,,,,,,,,0.154629661,-0.2527778,0,0,0,,0,138,138,30,1,STORM,LB,old,m,./images/STORMLB.png,,,,,,,,,,,,,,,,,,,,,,,,,,,,,,,,,,,
,,,,,,,,,,,,,,,,,6111117cc879aaabc0231495,19,2022-02-12_13h27.31.969,lexical_decision_task_DD_L3,2021.2.3,Win32,60.81615277,,,,,,,,,,,0.8505,1,,,,,,,,,,,,,,z,1,0.8505,,,,,,,,0.154629661,-0.2527778,0,0,0,,0,139,139,99,1,BACKY,C,old,z,./images/BACKY.png,,,,,,,,,,,,,,,,,,,,,,,,,,,,,,,,,,,
,,,,,,,,,,,,,,,,,6111117cc879aaabc0231495,19,2022-02-12_13h27.31.969,lexical_decision_task_DD_L3,2021.2.3,Win32,60.81615277,,,,,,,,,,,0.5989,1,,,,,,,,,,,,,,m,1,0.5989,,,,,,,,0.154629661,-0.2527778,0,0,0,,0,140,140,1,1,PLANK,C,old,m,./images/PLANK.png,,,,,,,,,,,,,,,,,,,,,,,,,,,,,,,,,,,
,,,,,,,,,,,,,,,,,6111117cc879aaabc0231495,19,2022-02-12_13h27.31.969,lexical_decision_task_DD_L3,2021.2.3,Win32,60.81615277,,,,,,,,,,,0.801,0,,,,,,,,,,,,,,z,0,0.801,,,,,,,,0.154629661,-0.2527778,0,0,0,,0,141,141,26,1,SMOKER,HB,old,m,./images/SMOKERHB.png,,,,,,,,,,,,,,,,,,,,,,,,,,,,,,,,,,,
,,,,,,,,,,,,,,,,,6111117cc879aaabc0231495,19,2022-02-12_13h27.31.969,lexical_decision_task_DD_L3,2021.2.3,Win32,60.81615277,,,,,,,,,,,0.6088,1,,,,,,,,,,,,,,m,1,0.6088,,,,,,,,0.154629661,-0.2527778,0,0,0,,0,142,142,42,1,FOLDER,LB,old,m,./images/FOLDERLB.png,,,,,,,,,,,,,,,,,,,,,,,,,,,,,,,,,,,
,,,,,,,,,,,,,,,,,6111117cc879aaabc0231495,19,2022-02-12_13h27.31.969,lexical_decision_task_DD_L3,2021.2.3,Win32,60.81615277,,,,,,,,,,,0.8788,1,,,,,,,,,,,,,,z,1,0.8788,,,,,,,,0.154629661,-0.2527778,0,0,0,,0,143,143,155,1,CANGY,LB,old,z,./images/CANGYLB.png,,,,,,,,,,,,,,,,,,,,,,,,,,,,,,,,,,,
,,,,,,,,,,,,,,,,,6111117cc879aaabc0231495,19,2022-02-12_13h27.31.969,lexical_decision_task_DD_L3,2021.2.3,Win32,60.81615277,,,,,,,,,,,0.7886,1,,,,,,,,,,,,,,z,1,0.7886,,,,,,,,0.154629661,-0.2527778,0,0,0,,0,144,144,110,1,CRUNK,LB,old,z,./images/CRUNKLB.png,,,,,,,,,,,,,,,,,,,,,,,,,,,,,,,,,,,
,,,,,,,,,,,,,,,,,6111117cc879aaabc0231495,19,2022-02-12_13h27.31.969,lexical_decision_task_DD_L3,2021.2.3,Win32,60.81615277,,,,,,,,,,,0.6238,1,,,,,,,,,,,,,,z,1,0.6238,,,,,,,,0.154629661,-0.2527778,0,0,0,,0,145,145,138,1,PLICE,C,old,z,./images/PLICE.png,,,,,,,,,,,,,,,,,,,,,,,,,,,,,,,,,,,
,,,,,,,,,,,,,,,,,6111117cc879aaabc0231495,19,2022-02-12_13h27.31.969,lexical_decision_task_DD_L3,2021.2.3,Win32,60.81615277,,,,,,,,,,,0.8968,1,,,,,,,,,,,,,,z,1,0.8968,,,,,,,,0.154629661,-0.2527778,0,0,0,,0,146,146,100,1,DRIBS,HB,old,z,./images/DRIBSHB.png,,,,,,,,,,,,,,,,,,,,,,,,,,,,,,,,,,,
,,,,,,,,,,,,,,,,,6111117cc879aaabc0231495,19,2022-02-12_13h27.31.969,lexical_decision_task_DD_L3,2021.2.3,Win32,60.81615277,,,,,,,,,,,0.5808,1,,,,,,,,,,,,,,m,1,0.5808,,,,,,,,0.154629661,-0.2527778,0,0,0,,0,147,147,25,1,WRIST,C,old,m,./images/WRIST.png,,,,,,,,,,,,,,,,,,,,,,,,,,,,,,,,,,,
,,,,,,,,,,,,,,,,,6111117cc879aaabc0231495,19,2022-02-12_13h27.31.969,lexical_decision_task_DD_L3,2021.2.3,Win32,60.81615277,,,,,,,,,,,0.6993,1,,,,,,,,,,,,,,z,1,0.6993,,,,,,,,0.154629661,-0.2527778,0,0,0,,0,148,148,145,1,LAMEL,HB,old,z,./images/LAMELHB.png,,,,,,,,,,,,,,,,,,,,,,,,,,,,,,,,,,,
,,,,,,,,,,,,,,,,,6111117cc879aaabc0231495,19,2022-02-12_13h27.31.969,lexical_decision_task_DD_L3,2021.2.3,Win32,60.81615277,,,,,,,,,,,0.5776,1,,,,,,,,,,,,,,m,1,0.5776,,,,,,,,0.154629661,-0.2527778,0,0,0,,0,149,149,24,1,SCREW,LB,old,m,./images/SCREWLB.png,,,,,,,,,,,,,,,,,,,,,,,,,,,,,,,,,,,
,,,,,,,,,,,,,,,,,6111117cc879aaabc0231495,19,2022-02-12_13h27.31.969,lexical_decision_task_DD_L3,2021.2.3,Win32,60.81615277,,,,,,,,,,,0.8372,1,,,,,,,,,,,,,,m,1,0.8372,,,,,,,,0.154629661,-0.2527778,0,0,0,,0,150,150,35,1,PEACH,HB,old,m,./images/PEACHHB.png,,,,,,,,,,,,,,,,,,,,,,,,,,,,,,,,,,,
,,,,,,,,,,,,,,,,,6111117cc879aaabc0231495,19,2022-02-12_13h27.31.969,lexical_decision_task_DD_L3,2021.2.3,Win32,60.81615277,,,,,,,,,,,0.8581,1,,,,,,,,,,,,,,z,1,0.8581,,,,,,,,0.154629661,-0.2527778,0,0,0,,0,151,151,106,1,CLUMS,HB,old,z,./images/CLUMSHB.png,,,,,,,,,,,,,,,,,,,,,,,,,,,,,,,,,,,
,,,,,,,,,,,,,,,,,6111117cc879aaabc0231495,19,2022-02-12_13h27.31.969,lexical_decision_task_DD_L3,2021.2.3,Win32,60.81615277,,,,,,,,,,,0.671,1,,,,,,,,,,,,,,m,1,0.671,,,,,,,,0.154629661,-0.2527778,0,0,0,,0,152,152,12,1,SHORE,LB,old,m,./images/SHORELB.png,,,,,,,,,,,,,,,,,,,,,,,,,,,,,,,,,,,
,,,,,,,,,,,,,,,,,6111117cc879aaabc0231495,19,2022-02-12_13h27.31.969,lexical_decision_task_DD_L3,2021.2.3,Win32,60.81615277,,,,,,,,,,,0.704,1,,,,,,,,,,,,,,m,1,0.704,,,,,,,,0.154629661,-0.2527778,0,0,0,,0,153,153,5,1,PASTA,HB,old,m,./images/PASTAHB.png,,,,,,,,,,,,,,,,,,,,,,,,,,,,,,,,,,,
,,,,,,,,,,,,,,,,,6111117cc879aaabc0231495,19,2022-02-12_13h27.31.969,lexical_decision_task_DD_L3,2021.2.3,Win32,60.81615277,,,,,,,,,,,0.735,1,,,,,,,,,,,,,,z,1,0.735,,,,,,,,0.154629661,-0.2527778,0,0,0,,0,154,154,92,1,PAIMS,LB,old,z,./images/PAIMSLB.png,,,,,,,,,,,,,,,,,,,,,,,,,,,,,,,,,,,
,,,,,,,,,,,,,,,,,6111117cc879aaabc0231495,19,2022-02-12_13h27.31.969,lexical_decision_task_DD_L3,2021.2.3,Win32,60.81615277,,,,,,,,,,,1.1987,1,,,,,,,,,,,,,,m,1,1.1987,,,,,,,,0.154629661,-0.2527778,0,0,0,,0,155,155,56,1,PACKET,HB,old,m,./images/PACKETHB.png,,,,,,,,,,,,,,,,,,,,,,,,,,,,,,,,,,,
,,,,,,,,,,,,,,,,,6111117cc879aaabc0231495,19,2022-02-12_13h27.31.969,lexical_decision_task_DD_L3,2021.2.3,Win32,60.81615277,,,,,,,,,,,0.5882,1,,,,,,,,,,,,,,m,1,0.5882,,,,,,,,0.154629661,-0.2527778,0,0,0,,0,156,156,77,1,COUCH,HB,old,m,./images/COUCHHB.png,,,,,,,,,,,,,,,,,,,,,,,,,,,,,,,,,,,
,,,,,,,,,,,,,,,,,6111117cc879aaabc0231495,19,2022-02-12_13h27.31.969,lexical_decision_task_DD_L3,2021.2.3,Win32,60.81615277,,,,,,,,,,,0.7895,1,,,,,,,,,,,,,,z,1,0.7895,,,,,,,,0.154629661,-0.2527778,0,0,0,,0,157,157,118,1,BAVEL,HB,old,z,./images/BAVELHB.png,,,,,,,,,,,,,,,,,,,,,,,,,,,,,,,,,,,
,,,,,,,,,,,,,,,,,6111117cc879aaabc0231495,19,2022-02-12_13h27.31.969,lexical_decision_task_DD_L3,2021.2.3,Win32,60.81615277,,,,,,,,,,,0.6673,1,,,,,,,,,,,,,,z,1,0.6673,,,,,,,,0.154629661,-0.2527778,0,0,0,,0,158,158,132,1,SCIFF,C,old,z,./images/SCIFF.png,,,,,,,,,,,,,,,,,,,,,,,,,,,,,,,,,,,
,,,,,,,,,,,,,,,,,6111117cc879aaabc0231495,19,2022-02-12_13h27.31.969,lexical_decision_task_DD_L3,2021.2.3,Win32,60.81615277,,,,,,,,,,,0.6983,1,,,,,,,,,,,,,,m,1,0.6983,,,,,,,,0.154629661,-0.2527778,0,0,0,,0,159,159,80,1,WEASEL,HB,old,m,./images/WEASELHB.png,,,,,,,,,,,,,,,,,,,,,,,,,,,,,,,,,,,
,,,,,,,,,,,,,,,,,6111117cc879aaabc0231495,19,2022-02-12_13h27.31.969,lexical_decision_task_DD_L3,2021.2.3,Win32,60.81615277,,,,,,,,,,,0.716,1,,,,,,,,,,,,,,m,1,0.716,,,,,,,,0.154629661,-0.2527778,0,0,0,,0,160,160,76,1,INFANT,C,old,m,./images/INFANT.png,,,,,,,,,,,,,,,,,,,,,,,,,,,,,,,,,,,
,,,,,,,,,,,,,,,,,6111117cc879aaabc0231495,19,2022-02-12_13h27.31.969,lexical_decision_task_DD_L3,2021.2.3,Win32,60.81615277,,,,,,,,,,,0.7231,1,,,,,,,,,,,,,,z,1,0.7231,,,,,,,,0.154629661,-0.2527778,0,0,0,,0,161,161,140,1,DOVET,LB,old,z,./images/DOVETLB.png,,,,,,,,,,,,,,,,,,,,,,,,,,,,,,,,,,,
,,,,,,,,,,,,,,,,,6111117cc879aaabc0231495,19,2022-02-12_13h27.31.969,lexical_decision_task_DD_L3,2021.2.3,Win32,60.81615277,,,,,,,,,,,0.597,1,,,,,,,,,,,,,,z,1,0.597,,,,,,,,0.154629661,-0.2527778,0,0,0,,0,162,162,98,1,BAMPS,LB,old,z,./images/BAMPSLB.png,,,,,,,,,,,,,,,,,,,,,,,,,,,,,,,,,,,
,,,,,,,,,,,,,,,,,6111117cc879aaabc0231495,19,2022-02-12_13h27.31.969,lexical_decision_task_DD_L3,2021.2.3,Win32,60.81615277,,,,,,,,,,,0.6819,1,,,,,,,,,,,,,,z,1,0.6819,,,,,,,,0.154629661,-0.2527778,0,0,0,,0,163,163,146,1,MOOST,LB,old,z,./images/MOOSTLB.png,,,,,,,,,,,,,,,,,,,,,,,,,,,,,,,,,,,
,,,,,,,,,,,,,,,,,6111117cc879aaabc0231495,19,2022-02-12_13h27.31.969,lexical_decision_task_DD_L3,2021.2.3,Win32,60.81615277,,,,,,,,,,,0.6877,1,,,,,,,,,,,,,,m,1,0.6877,,,,,,,,0.154629661,-0.2527778,0,0,0,,0,164,164,2,1,BEARD,HB,old,m,./images/BEARDHB.png,,,,,,,,,,,,,,,,,,,,,,,,,,,,,,,,,,,
,,,,,,,,,,,,,,,,,6111117cc879aaabc0231495,19,2022-02-12_13h27.31.969,lexical_decision_task_DD_L3,2021.2.3,Win32,60.81615277,,,,,,,,,,,0.6626,1,,,,,,,,,,,,,,m,1,0.6626,,,,,,,,0.154629661,-0.2527778,0,0,0,,0,165,165,39,1,SHELF,LB,old,m,./images/SHELFLB.png,,,,,,,,,,,,,,,,,,,,,,,,,,,,,,,,,,,
,,,,,,,,,,,,,,,,,6111117cc879aaabc0231495,19,2022-02-12_13h27.31.969,lexical_decision_task_DD_L3,2021.2.3,Win32,60.81615277,,,,,,,,,,,0.8923,1,,,,,,,,,,,,,,m,1,0.8923,,,,,,,,0.154629661,-0.2527778,0,0,0,,0,166,166,32,1,BARREL,HB,old,m,./images/BARRELHB.png,,,,,,,,,,,,,,,,,,,,,,,,,,,,,,,,,,,
,,,,,,,,,,,,,,,,,6111117cc879aaabc0231495,19,2022-02-12_13h27.31.969,lexical_decision_task_DD_L3,2021.2.3,Win32,60.81615277,,,,,,,,,,,0.8562,1,,,,,,,,,,,,,,m,1,0.8562,,,,,,,,0.154629661,-0.2527778,0,0,0,,0,167,167,37,1,BIRTH,C,old,m,./images/BIRTH.png,,,,,,,,,,,,,,,,,,,,,,,,,,,,,,,,,,,
,,,,,,,,,,,,,,,,,6111117cc879aaabc0231495,19,2022-02-12_13h27.31.969,lexical_decision_task_DD_L3,2021.2.3,Win32,60.81615277,,,,,,,,,,,,,,,,,,,,,,,,,,,,,,,,,,,,,,,,,,,,,,,,How likely will it be that you will recognize the words presented clearly on a scale of 0 (not likely) to 100 (most likely)?,,,,,-0.010185159,-0.436111139,1,0,0,jol_adv,4,5.1691,0,0,0,0,1,,,,,,,,,,,,,,,,,,,,,
,,,,,,,,,,,,,,,,,6111117cc879aaabc0231495,19,2022-02-12_13h27.31.969,lexical_decision_task_DD_L3,2021.2.3,Win32,60.81615277,,,,,,,,,,,,,,,,,,,,,,,,,,,,,,,,,,,,,,,,,,,,,,,,How likely will it be that you will recognize the words presented slighly blurred on a scale of 0 (not likely) to 100 (most likely)?,,,,,,,,,,,3,4.8505,0,1,1,1,1,,,,,,,,,,,,,,,,,,,,,
,,,,,,,,,,,,,,,,,6111117cc879aaabc0231495,19,2022-02-12_13h27.31.969,lexical_decision_task_DD_L3,2021.2.3,Win32,60.81615277,,,,,,,,,,,,,,,,,,,,,,,,,,,,,,,,,,,,,,,,,,,,,,,,How likely will it be that you will recognize the words presented very blurred on a scale of 0 (not likely) to 100 (most likely)?,,,,,,,,,,,3,1.2964,0,2,2,2,1,,,,,,,,,,,,,,,,,,,,,
space,16.2692,-0.047222197,-0.200000021,0,0,0,,,,,,1,test,"In the next phase you will be presented with the words from the the first phase. Your job is to decide whether you remember seeing the word or not. If you remember seeing the word press ""old"" or type ""m"". If you do not remember seeing the word press ""new"" or type ""z"". Please press the space bar or click on continue to begin. ",,,6111117cc879aaabc0231495,19,2022-02-12_13h27.31.969,lexical_decision_task_DD_L3,2021.2.3,Win32,60.81615277,,,,,,,,,,,,,,,,,,,,,,,,,,,,,,,,,,,,,,,,,,,,,,,,,,,,,,,,,,,,,,,,,,0,0,0,0,1,,,,,,,,,,,,,,,,
space,2.5737,-0.041666641,-0.240740819,0,0,0,,,,,,1,test,"In the next phase you will be presented with the words from the the first phase. Your job is to decide whether you remember seeing the word or not. If you remember seeing the word press ""old"" or type ""m"". If you do not remember seeing the word press ""new"" or type ""z"". Please press the space bar or click on continue to begin. ",,,6111117cc879aaabc0231495,19,2022-02-12_13h27.31.969,lexical_decision_task_DD_L3,2021.2.3,Win32,60.81615277,,,,,,,,,,,,,,,,,,,,,,,,,,,,,,,,,,,,,,,,,,,,,,,,,,,,,,,,,,,,,,,,,,1,0,1,0,1,,,,,,,,,,,,,,,,
space,0.8751,-0.041666641,-0.240740819,0,0,0,,,,,,1,test,"In the next phase you will be presented with the words from the the first phase. Your job is to decide whether you remember seeing the word or not. If you remember seeing the word press ""old"" or type ""m"". If you do not remember seeing the word press ""new"" or type ""z"". Please press the space bar or click on continue to begin. ",,,6111117cc879aaabc0231495,19,2022-02-12_13h27.31.969,lexical_decision_task_DD_L3,2021.2.3,Win32,60.81615277,,,,,,,,,,,,,,,,,,,,,,,,,,,,,,,,,,,,,,,,,,,,,,,,,,,,,,,,,,,,,,,,,,2,0,2,0,1,,,,,,,,,,,,,,,,
,,-0.068518494,-0.42129638,1,0,0,,,,,,1,test,"In the next phase you will be presented with the words from the the first phase. Your job is to decide whether you remember seeing the word or not. If you remember seeing the word press ""old"" or type ""m"". If you do not remember seeing the word press ""new"" or type ""z"". Please press the space bar or click on continue to begin. ",,,6111117cc879aaabc0231495,19,2022-02-12_13h27.31.969,lexical_decision_task_DD_L3,2021.2.3,Win32,60.81615277,,,,,,,,,,,,,,,,,,,,,,,,,,,,,,,,,,,,,,,,,,,,,,,,,,,,,,,,,,,,,,,,,,3,0,3,0,1,instr_done_button,,,,,,,,,,,,,,,
,,0.01759262,-0.366666692,1,0,0,,,,,,1,test,"In the next phase you will be presented with the words from the the first phase. Your job is to decide whether you remember seeing the word or not. If you remember seeing the word press ""old"" or type ""m"". If you do not remember seeing the word press ""new"" or type ""z"". Please press the space bar or click on continue to begin. ",,,6111117cc879aaabc0231495,19,2022-02-12_13h27.31.969,lexical_decision_task_DD_L3,2021.2.3,Win32,60.81615277,,,,,,,,,,,,,,,,,,,,,,,,,,,,,,,,,,,,,,,,,,,,,,,,,,,,,,,,,,,,,,,,,,4,0,4,0,1,instr_done_button,,,,,,,,,,,,,,,
,,,,,,,,,,,,,,,,,6111117cc879aaabc0231495,19,2022-02-12_13h27.31.969,lexical_decision_task_DD_L3,2021.2.3,Win32,60.81615277,,,,,,,,,,,2.9311,1,,,,,,,,,,,,,,,,,,,,,,,,-0.076851828,-0.499074104,0,0,0,,,,,,,PENCE,C,m,m,./images/PENCE.png,,,,,,,,,,,,,,,,,,,,,m,1,2.9311,,,,,,,,0,0,0,16,1
,,,,,,,,,,,,,,,,,6111117cc879aaabc0231495,19,2022-02-12_13h27.31.969,lexical_decision_task_DD_L3,2021.2.3,Win32,60.81615277,,,,,,,,,,,1.2625,1,,,,,,,,,,,,,,,,,,,,,,,,-0.076851828,-0.499074104,0,0,0,,,,,,,MIRROR,LB,m,m,./images/MIRRORLB.png,,,,,,,,,,,,,,,,,,,,,m,1,1.2625,,,,,,,,0,1,1,63,1
,,,,,,,,,,,,,,,,,6111117cc879aaabc0231495,19,2022-02-12_13h27.31.969,lexical_decision_task_DD_L3,2021.2.3,Win32,60.81615277,,,,,,,,,,,0.676,1,,,,,,,,,,,,,,,,,,,,,,,,-0.076851828,-0.499074104,0,0,0,,,,,,,POODLE,LB,m,m,./images/POODLELB.png,,,,,,,,,,,,,,,,,,,,,m,1,0.676,,,,,,,,0,2,2,81,1
,,,,,,,,,,,,,,,,,6111117cc879aaabc0231495,19,2022-02-12_13h27.31.969,lexical_decision_task_DD_L3,2021.2.3,Win32,60.81615277,,,,,,,,,,,0.5549,1,,,,,,,,,,,,,,,,,,,,,,,,-0.076851828,-0.499074104,0,0,0,,,,,,,SNACK,C,m,m,./images/SNACK.png,,,,,,,,,,,,,,,,,,,,,m,1,0.5549,,,,,,,,0,3,3,73,1
,,,,,,,,,,,,,,,,,6111117cc879aaabc0231495,19,2022-02-12_13h27.31.969,lexical_decision_task_DD_L3,2021.2.3,Win32,60.81615277,,,,,,,,,,,1.6928,1,,,,,,,,,,,,,,,,,,,,,,,,-0.076851828,-0.499074104,0,0,0,,,,,,,HOCKEY,HB,z,m,./images/HOCKEYHB.png,,,,,,,,,,,,,,,,,,,,,z,1,1.6928,,,,,,,,0,4,4,116,1
,,,,,,,,,,,,,,,,,6111117cc879aaabc0231495,19,2022-02-12_13h27.31.969,lexical_decision_task_DD_L3,2021.2.3,Win32,60.81615277,,,,,,,,,,,0.6951,1,,,,,,,,,,,,,,,,,,,,,,,,-0.076851828,-0.499074104,0,0,0,,,,,,,SAUNA,LB,z,m,./images/SAUNALB.png,,,,,,,,,,,,,,,,,,,,,z,1,0.6951,,,,,,,,0,5,5,117,1
,,,,,,,,,,,,,,,,,6111117cc879aaabc0231495,19,2022-02-12_13h27.31.969,lexical_decision_task_DD_L3,2021.2.3,Win32,60.81615277,,,,,,,,,,,1.3245,1,,,,,,,,,,,,,,,,,,,,,,,,-0.076851828,-0.499074104,0,0,0,,,,,,,DRILL,LB,z,m,./images/DRILLLB.png,,,,,,,,,,,,,,,,,,,,,z,1,1.3245,,,,,,,,0,6,6,165,1
,,,,,,,,,,,,,,,,,6111117cc879aaabc0231495,19,2022-02-12_13h27.31.969,lexical_decision_task_DD_L3,2021.2.3,Win32,60.81615277,,,,,,,,,,,0.6843,1,,,,,,,,,,,,,,,,,,,,,,,,-0.076851828,-0.499074104,0,0,0,,,,,,,CANDLE,C,m,m,./images/CANDLE.png,,,,,,,,,,,,,,,,,,,,,m,1,0.6843,,,,,,,,0,7,7,61,1
,,,,,,,,,,,,,,,,,6111117cc879aaabc0231495,19,2022-02-12_13h27.31.969,lexical_decision_task_DD_L3,2021.2.3,Win32,60.81615277,,,,,,,,,,,1.5833,1,,,,,,,,,,,,,,,,,,,,,,,,-0.076851828,-0.499074104,0,0,0,,,,,,,CRATER,LB,z,m,./images/CRATERLB.png,,,,,,,,,,,,,,,,,,,,,z,1,1.5833,,,,,,,,0,8,8,87,1
,,,,,,,,,,,,,,,,,6111117cc879aaabc0231495,19,2022-02-12_13h27.31.969,lexical_decision_task_DD_L3,2021.2.3,Win32,60.81615277,,,,,,,,,,,0.9193,1,,,,,,,,,,,,,,,,,,,,,,,,-0.076851828,-0.499074104,0,0,0,,,,,,,STATUE,LB,z,m,./images/STATUELB.png,,,,,,,,,,,,,,,,,,,,,z,1,0.9193,,,,,,,,0,9,9,150,1
,,,,,,,,,,,,,,,,,6111117cc879aaabc0231495,19,2022-02-12_13h27.31.969,lexical_decision_task_DD_L3,2021.2.3,Win32,60.81615277,,,,,,,,,,,1.211,1,,,,,,,,,,,,,,,,,,,,,,,,-0.076851828,-0.499074104,0,0,0,,,,,,,BOILER,LB,z,m,./images/BOILERLB.png,,,,,,,,,,,,,,,,,,,,,z,1,1.211,,,,,,,,0,10,10,120,1
,,,,,,,,,,,,,,,,,6111117cc879aaabc0231495,19,2022-02-12_13h27.31.969,lexical_decision_task_DD_L3,2021.2.3,Win32,60.81615277,,,,,,,,,,,1.1172,1,,,,,,,,,,,,,,,,,,,,,,,,-0.076851828,-0.499074104,0,0,0,,,,,,,DANCER,LB,z,m,./images/DANCERLB.png,,,,,,,,,,,,,,,,,,,,,z,1,1.1172,,,,,,,,0,11,11,105,1
,,,,,,,,,,,,,,,,,6111117cc879aaabc0231495,19,2022-02-12_13h27.31.969,lexical_decision_task_DD_L3,2021.2.3,Win32,60.81615277,,,,,,,,,,,0.5177,1,,,,,,,,,,,,,,,,,,,,,,,,-0.076851828,-0.499074104,0,0,0,,,,,,,LITTER,LB,m,m,./images/LITTERLB.png,,,,,,,,,,,,,,,,,,,,,m,1,0.5177,,,,,,,,0,12,12,78,1
,,,,,,,,,,,,,,,,,6111117cc879aaabc0231495,19,2022-02-12_13h27.31.969,lexical_decision_task_DD_L3,2021.2.3,Win32,60.81615277,,,,,,,,,,,1.0031,0,,,,,,,,,,,,,,,,,,,,,,,,-0.076851828,-0.499074104,0,0,0,,,,,,,LLAMA,HB,z,m,./images/LLAMAHB.png,,,,,,,,,,,,,,,,,,,,,m,0,1.0031,,,,,,,,0,13,13,119,1
,,,,,,,,,,,,,,,,,6111117cc879aaabc0231495,19,2022-02-12_13h27.31.969,lexical_decision_task_DD_L3,2021.2.3,Win32,60.81615277,,,,,,,,,,,0.6512,0,,,,,,,,,,,,,,,,,,,,,,,,-0.076851828,-0.499074104,0,0,0,,,,,,,FENCE,HB,z,m,./images/FENCEHB.png,,,,,,,,,,,,,,,,,,,,,m,0,0.6512,,,,,,,,0,14,14,98,1
,,,,,,,,,,,,,,,,,6111117cc879aaabc0231495,19,2022-02-12_13h27.31.969,lexical_decision_task_DD_L3,2021.2.3,Win32,60.81615277,,,,,,,,,,,1.1593,1,,,,,,,,,,,,,,,,,,,,,,,,-0.076851828,-0.499074104,0,0,0,,,,,,,DOUGH,C,m,m,./images/DOUGH.png,,,,,,,,,,,,,,,,,,,,,m,1,1.1593,,,,,,,,0,15,15,19,1
,,,,,,,,,,,,,,,,,6111117cc879aaabc0231495,19,2022-02-12_13h27.31.969,lexical_decision_task_DD_L3,2021.2.3,Win32,60.81615277,,,,,,,,,,,0.6725,0,,,,,,,,,,,,,,,,,,,,,,,,-0.076851828,-0.499074104,0,0,0,,,,,,,STREAM,HB,z,m,./images/STREAMHB.png,,,,,,,,,,,,,,,,,,,,,m,0,0.6725,,,,,,,,0,16,16,125,1
,,,,,,,,,,,,,,,,,6111117cc879aaabc0231495,19,2022-02-12_13h27.31.969,lexical_decision_task_DD_L3,2021.2.3,Win32,60.81615277,,,,,,,,,,,1.441,1,,,,,,,,,,,,,,,,,,,,,,,,-0.076851828,-0.499074104,0,0,0,,,,,,,RULER,C,z,m,./images/RULER.png,,,,,,,,,,,,,,,,,,,,,z,1,1.441,,,,,,,,0,17,17,163,1
,,,,,,,,,,,,,,,,,6111117cc879aaabc0231495,19,2022-02-12_13h27.31.969,lexical_decision_task_DD_L3,2021.2.3,Win32,60.81615277,,,,,,,,,,,0.751,0,,,,,,,,,,,,,,,,,,,,,,,,-0.076851828,-0.499074104,0,0,0,,,,,,,PARCEL,LB,z,m,./images/PARCELLB.png,,,,,,,,,,,,,,,,,,,,,m,0,0.751,,,,,,,,0,18,18,102,1
,,,,,,,,,,,,,,,,,6111117cc879aaabc0231495,19,2022-02-12_13h27.31.969,lexical_decision_task_DD_L3,2021.2.3,Win32,60.81615277,,,,,,,,,,,0.7686,1,,,,,,,,,,,,,,,,,,,,,,,,-0.076851828,-0.499074104,0,0,0,,,,,,,CRUMB,HB,m,m,./images/CRUMBHB.png,,,,,,,,,,,,,,,,,,,,,m,1,0.7686,,,,,,,,0,19,19,29,1
,,,,,,,,,,,,,,,,,6111117cc879aaabc0231495,19,2022-02-12_13h27.31.969,lexical_decision_task_DD_L3,2021.2.3,Win32,60.81615277,,,,,,,,,,,0.8704,0,,,,,,,,,,,,,,,,,,,,,,,,-0.076851828,-0.499074104,0,0,0,,,,,,,DONKEY,C,z,m,./images/DONKEY.png,,,,,,,,,,,,,,,,,,,,,m,0,0.8704,,,,,,,,0,20,20,103,1
,,,,,,,,,,,,,,,,,6111117cc879aaabc0231495,19,2022-02-12_13h27.31.969,lexical_decision_task_DD_L3,2021.2.3,Win32,60.81615277,,,,,,,,,,,0.7599,1,,,,,,,,,,,,,,,,,,,,,,,,-0.076851828,-0.499074104,0,0,0,,,,,,,MOOSE,LB,m,m,./images/MOOSELB.png,,,,,,,,,,,,,,,,,,,,,m,1,0.7599,,,,,,,,0,21,21,57,1
,,,,,,,,,,,,,,,,,6111117cc879aaabc0231495,19,2022-02-12_13h27.31.969,lexical_decision_task_DD_L3,2021.2.3,Win32,60.81615277,,,,,,,,,,,0.9016,0,,,,,,,,,,,,,,,,,,,,,,,,-0.076851828,-0.499074104,0,0,0,,,,,,,COOKER,LB,m,m,./images/COOKERLB.png,,,,,,,,,,,,,,,,,,,,,z,0,0.9016,,,,,,,,0,22,22,69,1
,,,,,,,,,,,,,,,,,6111117cc879aaabc0231495,19,2022-02-12_13h27.31.969,lexical_decision_task_DD_L3,2021.2.3,Win32,60.81615277,,,,,,,,,,,0.5784,0,,,,,,,,,,,,,,,,,,,,,,,,-0.076851828,-0.499074104,0,0,0,,,,,,,FLASK,LB,z,m,./images/FLASKLB.png,,,,,,,,,,,,,,,,,,,,,m,0,0.5784,,,,,,,,0,23,23,156,1
,,,,,,,,,,,,,,,,,6111117cc879aaabc0231495,19,2022-02-12_13h27.31.969,lexical_decision_task_DD_L3,2021.2.3,Win32,60.81615277,,,,,,,,,,,0.5875,1,,,,,,,,,,,,,,,,,,,,,,,,-0.076851828,-0.499074104,0,0,0,,,,,,,SWING,C,m,m,./images/SWING.png,,,,,,,,,,,,,,,,,,,,,m,1,0.5875,,,,,,,,0,24,24,40,1
,,,,,,,,,,,,,,,,,6111117cc879aaabc0231495,19,2022-02-12_13h27.31.969,lexical_decision_task_DD_L3,2021.2.3,Win32,60.81615277,,,,,,,,,,,0.917,1,,,,,,,,,,,,,,,,,,,,,,,,-0.076851828,-0.499074104,0,0,0,,,,,,,CARPET,HB,m,m,./images/CARPETHB.png,,,,,,,,,,,,,,,,,,,,,m,1,0.917,,,,,,,,0,25,25,53,1
,,,,,,,,,,,,,,,,,6111117cc879aaabc0231495,19,2022-02-12_13h27.31.969,lexical_decision_task_DD_L3,2021.2.3,Win32,60.81615277,,,,,,,,,,,1.0291,1,,,,,,,,,,,,,,,,,,,,,,,,-0.076851828,-0.499074104,0,0,0,,,,,,,PILOT,HB,z,m,./images/PILOTHB.png,,,,,,,,,,,,,,,,,,,,,z,1,1.0291,,,,,,,,0,26,26,134,1
,,,,,,,,,,,,,,,,,6111117cc879aaabc0231495,19,2022-02-12_13h27.31.969,lexical_decision_task_DD_L3,2021.2.3,Win32,60.81615277,,,,,,,,,,,0.7181,0,,,,,,,,,,,,,,,,,,,,,,,,-0.076851828,-0.499074104,0,0,0,,,,,,,MAMMAL,HB,z,m,./images/MAMMALHB.png,,,,,,,,,,,,,,,,,,,,,m,0,0.7181,,,,,,,,0,27,27,146,1
,,,,,,,,,,,,,,,,,6111117cc879aaabc0231495,19,2022-02-12_13h27.31.969,lexical_decision_task_DD_L3,2021.2.3,Win32,60.81615277,,,,,,,,,,,0.6933,1,,,,,,,,,,,,,,,,,,,,,,,,-0.076851828,-0.499074104,0,0,0,,,,,,,WALRUS,HB,m,m,./images/WALRUSHB.png,,,,,,,,,,,,,,,,,,,,,m,1,0.6933,,,,,,,,0,28,28,23,1
,,,,,,,,,,,,,,,,,6111117cc879aaabc0231495,19,2022-02-12_13h27.31.969,lexical_decision_task_DD_L3,2021.2.3,Win32,60.81615277,,,,,,,,,,,0.8438,0,,,,,,,,,,,,,,,,,,,,,,,,-0.076851828,-0.499074104,0,0,0,,,,,,,CHAIN,LB,z,m,./images/CHAINLB.png,,,,,,,,,,,,,,,,,,,,,m,0,0.8438,,,,,,,,0,29,29,126,1
,,,,,,,,,,,,,,,,,6111117cc879aaabc0231495,19,2022-02-12_13h27.31.969,lexical_decision_task_DD_L3,2021.2.3,Win32,60.81615277,,,,,,,,,,,0.6505,1,,,,,,,,,,,,,,,,,,,,,,,,-0.076851828,-0.499074104,0,0,0,,,,,,,MAGGOT,LB,m,m,./images/MAGGOTLB.png,,,,,,,,,,,,,,,,,,,,,m,1,0.6505,,,,,,,,0,30,30,33,1
,,,,,,,,,,,,,,,,,6111117cc879aaabc0231495,19,2022-02-12_13h27.31.969,lexical_decision_task_DD_L3,2021.2.3,Win32,60.81615277,,,,,,,,,,,0.8728,1,,,,,,,,,,,,,,,,,,,,,,,,-0.076851828,-0.499074104,0,0,0,,,,,,,PEBBLE,C,z,m,./images/PEBBLE.png,,,,,,,,,,,,,,,,,,,,,z,1,0.8728,,,,,,,,0,31,31,166,1
,,,,,,,,,,,,,,,,,6111117cc879aaabc0231495,19,2022-02-12_13h27.31.969,lexical_decision_task_DD_L3,2021.2.3,Win32,60.81615277,,,,,,,,,,,0.6262,1,,,,,,,,,,,,,,,,,,,,,,,,-0.076851828,-0.499074104,0,0,0,,,,,,,DRUMS,C,m,m,./images/DRUMS.png,,,,,,,,,,,,,,,,,,,,,m,1,0.6262,,,,,,,,0,32,32,49,1
,,,,,,,,,,,,,,,,,6111117cc879aaabc0231495,19,2022-02-12_13h27.31.969,lexical_decision_task_DD_L3,2021.2.3,Win32,60.81615277,,,,,,,,,,,0.8515,0,,,,,,,,,,,,,,,,,,,,,,,,-0.076851828,-0.499074104,0,0,0,,,,,,,SPINE,HB,z,m,./images/SPINEHB.png,,,,,,,,,,,,,,,,,,,,,m,0,0.8515,,,,,,,,0,33,33,149,1
,,,,,,,,,,,,,,,,,6111117cc879aaabc0231495,19,2022-02-12_13h27.31.969,lexical_decision_task_DD_L3,2021.2.3,Win32,60.81615277,,,,,,,,,,,0.8074,1,,,,,,,,,,,,,,,,,,,,,,,,-0.076851828,-0.499074104,0,0,0,,,,,,,SWEAT,LB,m,m,./images/SWEATLB.png,,,,,,,,,,,,,,,,,,,,,m,1,0.8074,,,,,,,,0,34,34,66,1
,,,,,,,,,,,,,,,,,6111117cc879aaabc0231495,19,2022-02-12_13h27.31.969,lexical_decision_task_DD_L3,2021.2.3,Win32,60.81615277,,,,,,,,,,,0.8838,0,,,,,,,,,,,,,,,,,,,,,,,,-0.076851828,-0.499074104,0,0,0,,,,,,,PISTOL,HB,z,m,./images/PISTOLHB.png,,,,,,,,,,,,,,,,,,,,,m,0,0.8838,,,,,,,,0,35,35,113,1
,,,,,,,,,,,,,,,,,6111117cc879aaabc0231495,19,2022-02-12_13h27.31.969,lexical_decision_task_DD_L3,2021.2.3,Win32,60.81615277,,,,,,,,,,,0.6525,1,,,,,,,,,,,,,,,,,,,,,,,,-0.076851828,-0.499074104,0,0,0,,,,,,,INFANT,C,m,m,./images/INFANT.png,,,,,,,,,,,,,,,,,,,,,m,1,0.6525,,,,,,,,0,36,36,76,1
,,,,,,,,,,,,,,,,,6111117cc879aaabc0231495,19,2022-02-12_13h27.31.969,lexical_decision_task_DD_L3,2021.2.3,Win32,60.81615277,,,,,,,,,,,0.6207,1,,,,,,,,,,,,,,,,,,,,,,,,-0.076851828,-0.499074104,0,0,0,,,,,,,BANNER,C,m,m,./images/BANNER.png,,,,,,,,,,,,,,,,,,,,,m,1,0.6207,,,,,,,,0,37,37,52,1
,,,,,,,,,,,,,,,,,6111117cc879aaabc0231495,19,2022-02-12_13h27.31.969,lexical_decision_task_DD_L3,2021.2.3,Win32,60.81615277,,,,,,,,,,,0.7853,1,,,,,,,,,,,,,,,,,,,,,,,,-0.076851828,-0.499074104,0,0,0,,,,,,,RAZOR,C,z,m,./images/RAZOR.png,,,,,,,,,,,,,,,,,,,,,z,1,0.7853,,,,,,,,0,38,38,118,1
,,,,,,,,,,,,,,,,,6111117cc879aaabc0231495,19,2022-02-12_13h27.31.969,lexical_decision_task_DD_L3,2021.2.3,Win32,60.81615277,,,,,,,,,,,0.8728,1,,,,,,,,,,,,,,,,,,,,,,,,-0.076851828,-0.499074104,0,0,0,,,,,,,FINGER,LB,m,m,./images/FINGERLB.png,,,,,,,,,,,,,,,,,,,,,m,1,0.8728,,,,,,,,0,39,39,3,1
,,,,,,,,,,,,,,,,,6111117cc879aaabc0231495,19,2022-02-12_13h27.31.969,lexical_decision_task_DD_L3,2021.2.3,Win32,60.81615277,,,,,,,,,,,0.8404,1,,,,,,,,,,,,,,,,,,,,,,,,-0.076851828,-0.499074104,0,0,0,,,,,,,GARDEN,C,z,m,./images/GARDEN.png,,,,,,,,,,,,,,,,,,,,,z,1,0.8404,,,,,,,,0,40,40,94,1
,,,,,,,,,,,,,,,,,6111117cc879aaabc0231495,19,2022-02-12_13h27.31.969,lexical_decision_task_DD_L3,2021.2.3,Win32,60.81615277,,,,,,,,,,,0.8412,0,,,,,,,,,,,,,,,,,,,,,,,,-0.076851828,-0.499074104,0,0,0,space,,,,,,CLIFF,HB,z,m,./images/CLIFFHB.png,1.3534,,,,,,,,,,,,,,,,,,,,m,0,0.8412,,,,,,,,0,41,41,92,1
,,,,,,,,,,,,,,,,,6111117cc879aaabc0231495,19,2022-02-12_13h27.31.969,lexical_decision_task_DD_L3,2021.2.3,Win32,60.81615277,,,,,,,,,,,0.5814,1,,,,,,,,,,,,,,,,,,,,,,,,-0.076851828,-0.499074104,0,0,0,,,,,,,SHORE,LB,m,m,./images/SHORELB.png,,,,,,,,,,,,,,,,,,,,,m,1,0.5814,,,,,,,,0,42,42,12,1
,,,,,,,,,,,,,,,,,6111117cc879aaabc0231495,19,2022-02-12_13h27.31.969,lexical_decision_task_DD_L3,2021.2.3,Win32,60.81615277,,,,,,,,,,,0.8631,1,,,,,,,,,,,,,,,,,,,,,,,,-0.076851828,-0.499074104,0,0,0,,,,,,,TOWEL,C,z,m,./images/TOWEL.png,,,,,,,,,,,,,,,,,,,,,z,1,0.8631,,,,,,,,0,43,43,85,1
,,,,,,,,,,,,,,,,,6111117cc879aaabc0231495,19,2022-02-12_13h27.31.969,lexical_decision_task_DD_L3,2021.2.3,Win32,60.81615277,,,,,,,,,,,1.14,1,,,,,,,,,,,,,,,,,,,,,,,,-0.076851828,-0.499074104,0,0,0,,,,,,,GRAPE,C,z,m,./images/GRAPE.png,,,,,,,,,,,,,,,,,,,,,z,1,1.14,,,,,,,,0,44,44,100,1
,,,,,,,,,,,,,,,,,6111117cc879aaabc0231495,19,2022-02-12_13h27.31.969,lexical_decision_task_DD_L3,2021.2.3,Win32,60.81615277,,,,,,,,,,,0.7973,1,,,,,,,,,,,,,,,,,,,,,,,,-0.076851828,-0.499074104,0,0,0,,,,,,,MUSCLE,C,m,m,./images/MUSCLE.png,,,,,,,,,,,,,,,,,,,,,m,1,0.7973,,,,,,,,0,45,45,4,1
,,,,,,,,,,,,,,,,,6111117cc879aaabc0231495,19,2022-02-12_13h27.31.969,lexical_decision_task_DD_L3,2021.2.3,Win32,60.81615277,,,,,,,,,,,0.5493,1,,,,,,,,,,,,,,,,,,,,,,,,-0.076851828,-0.499074104,0,0,0,,,,,,,SPORT,LB,m,m,./images/SPORTLB.png,,,,,,,,,,,,,,,,,,,,,m,1,0.5493,,,,,,,,0,46,46,48,1
,,,,,,,,,,,,,,,,,6111117cc879aaabc0231495,19,2022-02-12_13h27.31.969,lexical_decision_task_DD_L3,2021.2.3,Win32,60.81615277,,,,,,,,,,,0.7273,1,,,,,,,,,,,,,,,,,,,,,,,,-0.076851828,-0.499074104,0,0,0,,,,,,,BLOKE,LB,z,m,./images/BLOKELB.png,,,,,,,,,,,,,,,,,,,,,z,1,0.7273,,,,,,,,0,47,47,96,1
,,,,,,,,,,,,,,,,,6111117cc879aaabc0231495,19,2022-02-12_13h27.31.969,lexical_decision_task_DD_L3,2021.2.3,Win32,60.81615277,,,,,,,,,,,1.179,1,,,,,,,,,,,,,,,,,,,,,,,,-0.076851828,-0.499074104,0,0,0,,,,,,,BRIDE,C,z,m,./images/BRIDE.png,,,,,,,,,,,,,,,,,,,,,z,1,1.179,,,,,,,,0,48,48,148,1
,,,,,,,,,,,,,,,,,6111117cc879aaabc0231495,19,2022-02-12_13h27.31.969,lexical_decision_task_DD_L3,2021.2.3,Win32,60.81615277,,,,,,,,,,,1.0342,1,,,,,,,,,,,,,,,,,,,,,,,,-0.076851828,-0.499074104,0,0,0,,,,,,,CURRY,LB,z,m,./images/CURRYLB.png,,,,,,,,,,,,,,,,,,,,,z,1,1.0342,,,,,,,,0,49,49,144,1
,,,,,,,,,,,,,,,,,6111117cc879aaabc0231495,19,2022-02-12_13h27.31.969,lexical_decision_task_DD_L3,2021.2.3,Win32,60.81615277,,,,,,,,,,,0.6785,1,,,,,,,,,,,,,,,,,,,,,,,,-0.076851828,-0.499074104,0,0,0,,,,,,,SQUARE,LB,m,m,./images/SQUARELB.png,,,,,,,,,,,,,,,,,,,,,m,1,0.6785,,,,,,,,0,50,50,6,1
,,,,,,,,,,,,,,,,,6111117cc879aaabc0231495,19,2022-02-12_13h27.31.969,lexical_decision_task_DD_L3,2021.2.3,Win32,60.81615277,,,,,,,,,,,0.5727,1,,,,,,,,,,,,,,,,,,,,,,,,-0.076851828,-0.499074104,0,0,0,,,,,,,SCREW,LB,m,m,./images/SCREWLB.png,,,,,,,,,,,,,,,,,,,,,m,1,0.5727,,,,,,,,0,51,51,24,1
,,,,,,,,,,,,,,,,,6111117cc879aaabc0231495,19,2022-02-12_13h27.31.969,lexical_decision_task_DD_L3,2021.2.3,Win32,60.81615277,,,,,,,,,,,1.1103,0,,,,,,,,,,,,,,,,,,,,,,,,-0.076851828,-0.499074104,0,0,0,,,,,,,MONKEY,LB,z,m,./images/MONKEYLB.png,,,,,,,,,,,,,,,,,,,,,m,0,1.1103,,,,,,,,0,52,52,129,1
,,,,,,,,,,,,,,,,,6111117cc879aaabc0231495,19,2022-02-12_13h27.31.969,lexical_decision_task_DD_L3,2021.2.3,Win32,60.81615277,,,,,,,,,,,0.8706,1,,,,,,,,,,,,,,,,,,,,,,,,-0.076851828,-0.499074104,0,0,0,,,,,,,ARROW,LB,z,m,./images/ARROWLB.png,,,,,,,,,,,,,,,,,,,,,z,1,0.8706,,,,,,,,0,53,53,153,1
,,,,,,,,,,,,,,,,,6111117cc879aaabc0231495,19,2022-02-12_13h27.31.969,lexical_decision_task_DD_L3,2021.2.3,Win32,60.81615277,,,,,,,,,,,1.3433,1,,,,,,,,,,,,,,,,,,,,,,,,-0.076851828,-0.499074104,0,0,0,,,,,,,GLOVE,C,z,m,./images/GLOVE.png,,,,,,,,,,,,,,,,,,,,,z,1,1.3433,,,,,,,,0,54,54,157,1
,,,,,,,,,,,,,,,,,6111117cc879aaabc0231495,19,2022-02-12_13h27.31.969,lexical_decision_task_DD_L3,2021.2.3,Win32,60.81615277,,,,,,,,,,,0.8228,1,,,,,,,,,,,,,,,,,,,,,,,,-0.076851828,-0.499074104,0,0,0,,,,,,,TWINS,LB,m,m,./images/TWINSLB.png,,,,,,,,,,,,,,,,,,,,,m,1,0.8228,,,,,,,,0,55,55,60,1
,,,,,,,,,,,,,,,,,6111117cc879aaabc0231495,19,2022-02-12_13h27.31.969,lexical_decision_task_DD_L3,2021.2.3,Win32,60.81615277,,,,,,,,,,,0.7011,1,,,,,,,,,,,,,,,,,,,,,,,,-0.076851828,-0.499074104,0,0,0,,,,,,,WRIST,C,m,m,./images/WRIST.png,,,,,,,,,,,,,,,,,,,,,m,1,0.7011,,,,,,,,0,56,56,25,1
,,,,,,,,,,,,,,,,,6111117cc879aaabc0231495,19,2022-02-12_13h27.31.969,lexical_decision_task_DD_L3,2021.2.3,Win32,60.81615277,,,,,,,,,,,1.1565,1,,,,,,,,,,,,,,,,,,,,,,,,-0.076851828,-0.499074104,0,0,0,,,,,,,BERRY,HB,m,m,./images/BERRYHB.png,,,,,,,,,,,,,,,,,,,,,m,1,1.1565,,,,,,,,0,57,57,47,1
,,,,,,,,,,,,,,,,,6111117cc879aaabc0231495,19,2022-02-12_13h27.31.969,lexical_decision_task_DD_L3,2021.2.3,Win32,60.81615277,,,,,,,,,,,1.2863,1,,,,,,,,,,,,,,,,,,,,,,,,-0.076851828,-0.499074104,0,0,0,,,,,,,BIRTH,C,m,m,./images/BIRTH.png,,,,,,,,,,,,,,,,,,,,,m,1,1.2863,,,,,,,,0,58,58,37,1
,,,,,,,,,,,,,,,,,6111117cc879aaabc0231495,19,2022-02-12_13h27.31.969,lexical_decision_task_DD_L3,2021.2.3,Win32,60.81615277,,,,,,,,,,,1.1169,1,,,,,,,,,,,,,,,,,,,,,,,,-0.076851828,-0.499074104,0,0,0,,,,,,,STORM,LB,m,m,./images/STORMLB.png,,,,,,,,,,,,,,,,,,,,,m,1,1.1169,,,,,,,,0,59,59,30,1
,,,,,,,,,,,,,,,,,6111117cc879aaabc0231495,19,2022-02-12_13h27.31.969,lexical_decision_task_DD_L3,2021.2.3,Win32,60.81615277,,,,,,,,,,,1.06,1,,,,,,,,,,,,,,,,,,,,,,,,-0.076851828,-0.499074104,0,0,0,,,,,,,KITTEN,LB,m,m,./images/KITTENLB.png,,,,,,,,,,,,,,,,,,,,,m,1,1.06,,,,,,,,0,60,60,45,1
,,,,,,,,,,,,,,,,,6111117cc879aaabc0231495,19,2022-02-12_13h27.31.969,lexical_decision_task_DD_L3,2021.2.3,Win32,60.81615277,,,,,,,,,,,1.2835,1,,,,,,,,,,,,,,,,,,,,,,,,-0.076851828,-0.499074104,0,0,0,,,,,,,JELLY,C,m,m,./images/JELLY.png,,,,,,,,,,,,,,,,,,,,,m,1,1.2835,,,,,,,,0,61,61,64,1
,,,,,,,,,,,,,,,,,6111117cc879aaabc0231495,19,2022-02-12_13h27.31.969,lexical_decision_task_DD_L3,2021.2.3,Win32,60.81615277,,,,,,,,,,,0.6837,1,,,,,,,,,,,,,,,,,,,,,,,,-0.076851828,-0.499074104,0,0,0,,,,,,,BELLY,C,m,m,./images/BELLY.png,,,,,,,,,,,,,,,,,,,,,m,1,0.6837,,,,,,,,0,62,62,10,1
,,,,,,,,,,,,,,,,,6111117cc879aaabc0231495,19,2022-02-12_13h27.31.969,lexical_decision_task_DD_L3,2021.2.3,Win32,60.81615277,,,,,,,,,,,0.7274,1,,,,,,,,,,,,,,,,,,,,,,,,-0.076851828,-0.499074104,0,0,0,,,,,,,PEARL,C,m,m,./images/PEARL.png,,,,,,,,,,,,,,,,,,,,,m,1,0.7274,,,,,,,,0,63,63,46,1
,,,,,,,,,,,,,,,,,6111117cc879aaabc0231495,19,2022-02-12_13h27.31.969,lexical_decision_task_DD_L3,2021.2.3,Win32,60.81615277,,,,,,,,,,,0.6443,0,,,,,,,,,,,,,,,,,,,,,,,,-0.076851828,-0.499074104,0,0,0,,,,,,,CLOTH,HB,z,m,./images/CLOTHHB.png,,,,,,,,,,,,,,,,,,,,,m,0,0.6443,,,,,,,,0,64,64,107,1
,,,,,,,,,,,,,,,,,6111117cc879aaabc0231495,19,2022-02-12_13h27.31.969,lexical_decision_task_DD_L3,2021.2.3,Win32,60.81615277,,,,,,,,,,,0.7966,1,,,,,,,,,,,,,,,,,,,,,,,,-0.076851828,-0.499074104,0,0,0,,,,,,,BANANA,C,z,m,./images/BANANA.png,,,,,,,,,,,,,,,,,,,,,z,1,0.7966,,,,,,,,0,65,65,154,1
,,,,,,,,,,,,,,,,,6111117cc879aaabc0231495,19,2022-02-12_13h27.31.969,lexical_decision_task_DD_L3,2021.2.3,Win32,60.81615277,,,,,,,,,,,0.8939,1,,,,,,,,,,,,,,,,,,,,,,,,-0.076851828,-0.499074104,0,0,0,,,,,,,CLOWN,C,z,m,./images/CLOWN.png,,,,,,,,,,,,,,,,,,,,,z,1,0.8939,,,,,,,,0,66,66,106,1
,,,,,,,,,,,,,,,,,6111117cc879aaabc0231495,19,2022-02-12_13h27.31.969,lexical_decision_task_DD_L3,2021.2.3,Win32,60.81615277,,,,,,,,,,,0.5977,1,,,,,,,,,,,,,,,,,,,,,,,,-0.076851828,-0.499074104,0,0,0,,,,,,,PEACH,HB,m,m,./images/PEACHHB.png,,,,,,,,,,,,,,,,,,,,,m,1,0.5977,,,,,,,,0,67,67,35,1
,,,,,,,,,,,,,,,,,6111117cc879aaabc0231495,19,2022-02-12_13h27.31.969,lexical_decision_task_DD_L3,2021.2.3,Win32,60.81615277,,,,,,,,,,,1.0303,1,,,,,,,,,,,,,,,,,,,,,,,,-0.076851828,-0.499074104,0,0,0,,,,,,,JUMPER,HB,z,m,./images/JUMPERHB.png,,,,,,,,,,,,,,,,,,,,,z,1,1.0303,,,,,,,,0,68,68,158,1
,,,,,,,,,,,,,,,,,6111117cc879aaabc0231495,19,2022-02-12_13h27.31.969,lexical_decision_task_DD_L3,2021.2.3,Win32,60.81615277,,,,,,,,,,,0.9287,1,,,,,,,,,,,,,,,,,,,,,,,,-0.076851828,-0.499074104,0,0,0,,,,,,,VALLEY,HB,z,m,./images/VALLEYHB.png,,,,,,,,,,,,,,,,,,,,,z,1,0.9287,,,,,,,,0,69,69,152,1
,,,,,,,,,,,,,,,,,6111117cc879aaabc0231495,19,2022-02-12_13h27.31.969,lexical_decision_task_DD_L3,2021.2.3,Win32,60.81615277,,,,,,,,,,,0.7684,1,,,,,,,,,,,,,,,,,,,,,,,,-0.076851828,-0.499074104,0,0,0,,,,,,,STEAK,C,z,m,./images/STEAK.png,,,,,,,,,,,,,,,,,,,,,z,1,0.7684,,,,,,,,0,70,70,115,1
,,,,,,,,,,,,,,,,,6111117cc879aaabc0231495,19,2022-02-12_13h27.31.969,lexical_decision_task_DD_L3,2021.2.3,Win32,60.81615277,,,,,,,,,,,0.8843,0,,,,,,,,,,,,,,,,,,,,,,,,-0.076851828,-0.499074104,0,0,0,,,,,,,LAGOON,HB,z,m,./images/LAGOONHB.png,,,,,,,,,,,,,,,,,,,,,m,0,0.8843,,,,,,,,0,71,71,131,1
,,,,,,,,,,,,,,,,,6111117cc879aaabc0231495,19,2022-02-12_13h27.31.969,lexical_decision_task_DD_L3,2021.2.3,Win32,60.81615277,,,,,,,,,,,1.073,1,,,,,,,,,,,,,,,,,,,,,,,,-0.076851828,-0.499074104,0,0,0,,,,,,,BRUSH,HB,z,m,./images/BRUSHHB.png,,,,,,,,,,,,,,,,,,,,,z,1,1.073,,,,,,,,0,72,72,143,1
,,,,,,,,,,,,,,,,,6111117cc879aaabc0231495,19,2022-02-12_13h27.31.969,lexical_decision_task_DD_L3,2021.2.3,Win32,60.81615277,,,,,,,,,,,0.7384,1,,,,,,,,,,,,,,,,,,,,,,,,-0.076851828,-0.499074104,0,0,0,,,,,,,BOXER,C,z,m,./images/BOXER.png,,,,,,,,,,,,,,,,,,,,,z,1,0.7384,,,,,,,,0,73,73,88,1
,,,,,,,,,,,,,,,,,6111117cc879aaabc0231495,19,2022-02-12_13h27.31.969,lexical_decision_task_DD_L3,2021.2.3,Win32,60.81615277,,,,,,,,,,,0.6719,0,,,,,,,,,,,,,,,,,,,,,,,,-0.076851828,-0.499074104,0,0,0,,,,,,,PIMPLE,HB,m,m,./images/PIMPLEHB.png,,,,,,,,,,,,,,,,,,,,,z,0,0.6719,,,,,,,,0,74,74,71,1
,,,,,,,,,,,,,,,,,6111117cc879aaabc0231495,19,2022-02-12_13h27.31.969,lexical_decision_task_DD_L3,2021.2.3,Win32,60.81615277,,,,,,,,,,,0.7352,1,,,,,,,,,,,,,,,,,,,,,,,,-0.076851828,-0.499074104,0,0,0,,,,,,,CANDY,LB,z,m,./images/CANDYLB.png,,,,,,,,,,,,,,,,,,,,,z,1,0.7352,,,,,,,,0,75,75,123,1
,,,,,,,,,,,,,,,,,6111117cc879aaabc0231495,19,2022-02-12_13h27.31.969,lexical_decision_task_DD_L3,2021.2.3,Win32,60.81615277,,,,,,,,,,,0.7996,1,,,,,,,,,,,,,,,,,,,,,,,,-0.076851828,-0.499074104,0,0,0,,,,,,,MOSQUE,C,m,m,./images/MOSQUE.png,,,,,,,,,,,,,,,,,,,,,m,1,0.7996,,,,,,,,0,76,76,43,1
,,,,,,,,,,,,,,,,,6111117cc879aaabc0231495,19,2022-02-12_13h27.31.969,lexical_decision_task_DD_L3,2021.2.3,Win32,60.81615277,,,,,,,,,,,0.6753,1,,,,,,,,,,,,,,,,,,,,,,,,-0.076851828,-0.499074104,0,0,0,,,,,,,SLOPE,LB,z,m,./images/SLOPELB.png,,,,,,,,,,,,,,,,,,,,,z,1,0.6753,,,,,,,,0,77,77,114,1
,,,,,,,,,,,,,,,,,6111117cc879aaabc0231495,19,2022-02-12_13h27.31.969,lexical_decision_task_DD_L3,2021.2.3,Win32,60.81615277,,,,,,,,,,,0.8785,1,,,,,,,,,,,,,,,,,,,,,,,,-0.076851828,-0.499074104,0,0,0,,,,,,,STAIN,LB,z,m,./images/STAINLB.png,,,,,,,,,,,,,,,,,,,,,z,1,0.8785,,,,,,,,0,78,78,90,1
,,,,,,,,,,,,,,,,,6111117cc879aaabc0231495,19,2022-02-12_13h27.31.969,lexical_decision_task_DD_L3,2021.2.3,Win32,60.81615277,,,,,,,,,,,1.051,1,,,,,,,,,,,,,,,,,,,,,,,,-0.076851828,-0.499074104,0,0,0,,,,,,,CASINO,C,z,m,./images/CASINO.png,,,,,,,,,,,,,,,,,,,,,z,1,1.051,,,,,,,,0,79,79,112,1
,,,,,,,,,,,,,,,,,6111117cc879aaabc0231495,19,2022-02-12_13h27.31.969,lexical_decision_task_DD_L3,2021.2.3,Win32,60.81615277,,,,,,,,,,,0.6855,1,,,,,,,,,,,,,,,,,,,,,,,,-0.076851828,-0.499074104,0,0,0,,,,,,,CRUST,C,m,m,./images/CRUST.png,,,,,,,,,,,,,,,,,,,,,m,1,0.6855,,,,,,,,0,80,80,79,1
,,,,,,,,,,,,,,,,,6111117cc879aaabc0231495,19,2022-02-12_13h27.31.969,lexical_decision_task_DD_L3,2021.2.3,Win32,60.81615277,,,,,,,,,,,0.6514,1,,,,,,,,,,,,,,,,,,,,,,,,-0.076851828,-0.499074104,0,0,0,,,,,,,CANOE,C,z,m,./images/CANOE.png,,,,,,,,,,,,,,,,,,,,,z,1,0.6514,,,,,,,,0,81,81,142,1
,,,,,,,,,,,,,,,,,6111117cc879aaabc0231495,19,2022-02-12_13h27.31.969,lexical_decision_task_DD_L3,2021.2.3,Win32,60.81615277,,,,,,,,,,,1.0553,0,,,,,,,,,,,,,,,,,,,,,,,,-0.076851828,-0.499074104,0,0,0,,,,,,,GRAIN,LB,m,m,./images/GRAINLB.png,,,,,,,,,,,,,,,,,,,,,z,0,1.0553,,,,,,,,0,82,82,75,1
,,,,,,,,,,,,,,,,,6111117cc879aaabc0231495,19,2022-02-12_13h27.31.969,lexical_decision_task_DD_L3,2021.2.3,Win32,60.81615277,,,,,,,,,,,0.9083,1,,,,,,,,,,,,,,,,,,,,,,,,-0.076851828,-0.499074104,0,0,0,space,,,,,,STOOL,C,z,m,./images/STOOL.png,1.8667,,,,,,,,,,,,,,,,,,,,z,1,0.9083,,,,,,,,0,83,83,127,1
,,,,,,,,,,,,,,,,,6111117cc879aaabc0231495,19,2022-02-12_13h27.31.969,lexical_decision_task_DD_L3,2021.2.3,Win32,60.81615277,,,,,,,,,,,1.1182,1,,,,,,,,,,,,,,,,,,,,,,,,-0.076851828,-0.499074104,0,0,0,,,,,,,HAMMER,LB,z,m,./images/HAMMERLB.png,,,,,,,,,,,,,,,,,,,,,z,1,1.1182,,,,,,,,0,84,84,159,1
,,,,,,,,,,,,,,,,,6111117cc879aaabc0231495,19,2022-02-12_13h27.31.969,lexical_decision_task_DD_L3,2021.2.3,Win32,60.81615277,,,,,,,,,,,0.6225,1,,,,,,,,,,,,,,,,,,,,,,,,-0.076851828,-0.499074104,0,0,0,,,,,,,PLANK,C,m,m,./images/PLANK.png,,,,,,,,,,,,,,,,,,,,,m,1,0.6225,,,,,,,,0,85,85,1,1
,,,,,,,,,,,,,,,,,6111117cc879aaabc0231495,19,2022-02-12_13h27.31.969,lexical_decision_task_DD_L3,2021.2.3,Win32,60.81615277,,,,,,,,,,,0.7849,1,,,,,,,,,,,,,,,,,,,,,,,,-0.076851828,-0.499074104,0,0,0,,,,,,,MUMMY,C,z,m,./images/MUMMY.png,,,,,,,,,,,,,,,,,,,,,z,1,0.7849,,,,,,,,0,86,86,130,1
,,,,,,,,,,,,,,,,,6111117cc879aaabc0231495,19,2022-02-12_13h27.31.969,lexical_decision_task_DD_L3,2021.2.3,Win32,60.81615277,,,,,,,,,,,0.6204,1,,,,,,,,,,,,,,,,,,,,,,,,-0.076851828,-0.499074104,0,0,0,,,,,,,JUNGLE,HB,m,m,./images/JUNGLEHB.png,,,,,,,,,,,,,,,,,,,,,m,1,0.6204,,,,,,,,0,87,87,83,1
,,,,,,,,,,,,,,,,,6111117cc879aaabc0231495,19,2022-02-12_13h27.31.969,lexical_decision_task_DD_L3,2021.2.3,Win32,60.81615277,,,,,,,,,,,0.5847,1,,,,,,,,,,,,,,,,,,,,,,,,-0.076851828,-0.499074104,0,0,0,,,,,,,MELON,C,m,m,./images/MELON.png,,,,,,,,,,,,,,,,,,,,,m,1,0.5847,,,,,,,,0,88,88,22,1
,,,,,,,,,,,,,,,,,6111117cc879aaabc0231495,19,2022-02-12_13h27.31.969,lexical_decision_task_DD_L3,2021.2.3,Win32,60.81615277,,,,,,,,,,,0.736,0,,,,,,,,,,,,,,,,,,,,,,,,-0.076851828,-0.499074104,0,0,0,,,,,,,SNAKE,C,z,m,./images/SNAKE.png,,,,,,,,,,,,,,,,,,,,,m,0,0.736,,,,,,,,0,89,89,124,1
,,,,,,,,,,,,,,,,,6111117cc879aaabc0231495,19,2022-02-12_13h27.31.969,lexical_decision_task_DD_L3,2021.2.3,Win32,60.81615277,,,,,,,,,,,0.8873,1,,,,,,,,,,,,,,,,,,,,,,,,-0.076851828,-0.499074104,0,0,0,,,,,,,WALNUT,LB,z,m,./images/WALNUTLB.png,,,,,,,,,,,,,,,,,,,,,z,1,0.8873,,,,,,,,0,90,90,84,1
,,,,,,,,,,,,,,,,,6111117cc879aaabc0231495,19,2022-02-12_13h27.31.969,lexical_decision_task_DD_L3,2021.2.3,Win32,60.81615277,,,,,,,,,,,0.8193,1,,,,,,,,,,,,,,,,,,,,,,,,-0.076851828,-0.499074104,0,0,0,,,,,,,BAKER,LB,z,m,./images/BAKERLB.png,,,,,,,,,,,,,,,,,,,,,z,1,0.8193,,,,,,,,0,91,91,147,1
,,,,,,,,,,,,,,,,,6111117cc879aaabc0231495,19,2022-02-12_13h27.31.969,lexical_decision_task_DD_L3,2021.2.3,Win32,60.81615277,,,,,,,,,,,0.7755,1,,,,,,,,,,,,,,,,,,,,,,,,-0.076851828,-0.499074104,0,0,0,,,,,,,MUFFIN,C,m,m,./images/MUFFIN.png,,,,,,,,,,,,,,,,,,,,,m,1,0.7755,,,,,,,,0,92,92,55,1
,,,,,,,,,,,,,,,,,6111117cc879aaabc0231495,19,2022-02-12_13h27.31.969,lexical_decision_task_DD_L3,2021.2.3,Win32,60.81615277,,,,,,,,,,,0.6731,1,,,,,,,,,,,,,,,,,,,,,,,,-0.076851828,-0.499074104,0,0,0,,,,,,,RHINO,LB,m,m,./images/RHINOLB.png,,,,,,,,,,,,,,,,,,,,,m,1,0.6731,,,,,,,,0,93,93,9,1
,,,,,,,,,,,,,,,,,6111117cc879aaabc0231495,19,2022-02-12_13h27.31.969,lexical_decision_task_DD_L3,2021.2.3,Win32,60.81615277,,,,,,,,,,,1.3613,0,,,,,,,,,,,,,,,,,,,,,,,,-0.076851828,-0.499074104,0,0,0,,,,,,,BURIAL,HB,m,m,./images/BURIALHB.png,,,,,,,,,,,,,,,,,,,,,z,0,1.3613,,,,,,,,0,94,94,59,1
,,,,,,,,,,,,,,,,,6111117cc879aaabc0231495,19,2022-02-12_13h27.31.969,lexical_decision_task_DD_L3,2021.2.3,Win32,60.81615277,,,,,,,,,,,0.8402,1,,,,,,,,,,,,,,,,,,,,,,,,-0.076851828,-0.499074104,0,0,0,,,,,,,JAGUAR,LB,m,m,./images/JAGUARLB.png,,,,,,,,,,,,,,,,,,,,,m,1,0.8402,,,,,,,,0,95,95,18,1
,,,,,,,,,,,,,,,,,6111117cc879aaabc0231495,19,2022-02-12_13h27.31.969,lexical_decision_task_DD_L3,2021.2.3,Win32,60.81615277,,,,,,,,,,,0.7421,1,,,,,,,,,,,,,,,,,,,,,,,,-0.076851828,-0.499074104,0,0,0,,,,,,,BARREL,HB,m,m,./images/BARRELHB.png,,,,,,,,,,,,,,,,,,,,,m,1,0.7421,,,,,,,,0,96,96,32,1
,,,,,,,,,,,,,,,,,6111117cc879aaabc0231495,19,2022-02-12_13h27.31.969,lexical_decision_task_DD_L3,2021.2.3,Win32,60.81615277,,,,,,,,,,,0.8008,1,,,,,,,,,,,,,,,,,,,,,,,,-0.076851828,-0.499074104,0,0,0,,,,,,,CRADLE,HB,m,m,./images/CRADLEHB.png,,,,,,,,,,,,,,,,,,,,,m,1,0.8008,,,,,,,,0,97,97,20,1
,,,,,,,,,,,,,,,,,6111117cc879aaabc0231495,19,2022-02-12_13h27.31.969,lexical_decision_task_DD_L3,2021.2.3,Win32,60.81615277,,,,,,,,,,,0.7049,1,,,,,,,,,,,,,,,,,,,,,,,,-0.076851828,-0.499074104,0,0,0,,,,,,,MOTOR,C,m,m,./images/MOTOR.png,,,,,,,,,,,,,,,,,,,,,m,1,0.7049,,,,,,,,0,98,98,13,1
,,,,,,,,,,,,,,,,,6111117cc879aaabc0231495,19,2022-02-12_13h27.31.969,lexical_decision_task_DD_L3,2021.2.3,Win32,60.81615277,,,,,,,,,,,0.6845,1,,,,,,,,,,,,,,,,,,,,,,,,-0.076851828,-0.499074104,0,0,0,,,,,,,FALCON,C,m,m,./images/FALCON.png,,,,,,,,,,,,,,,,,,,,,m,1,0.6845,,,,,,,,0,99,99,28,1
,,,,,,,,,,,,,,,,,6111117cc879aaabc0231495,19,2022-02-12_13h27.31.969,lexical_decision_task_DD_L3,2021.2.3,Win32,60.81615277,,,,,,,,,,,0.6696,1,,,,,,,,,,,,,,,,,,,,,,,,-0.076851828,-0.499074104,0,0,0,,,,,,,BISHOP,C,z,m,./images/BISHOP.png,,,,,,,,,,,,,,,,,,,,,z,1,0.6696,,,,,,,,0,100,100,133,1
,,,,,,,,,,,,,,,,,6111117cc879aaabc0231495,19,2022-02-12_13h27.31.969,lexical_decision_task_DD_L3,2021.2.3,Win32,60.81615277,,,,,,,,,,,0.7848,0,,,,,,,,,,,,,,,,,,,,,,,,-0.076851828,-0.499074104,0,0,0,,,,,,,FLESH,LB,z,m,./images/FLESHLB.png,,,,,,,,,,,,,,,,,,,,,m,0,0.7848,,,,,,,,0,101,101,108,1
,,,,,,,,,,,,,,,,,6111117cc879aaabc0231495,19,2022-02-12_13h27.31.969,lexical_decision_task_DD_L3,2021.2.3,Win32,60.81615277,,,,,,,,,,,0.6628,1,,,,,,,,,,,,,,,,,,,,,,,,-0.076851828,-0.499074104,0,0,0,,,,,,,CHERRY,LB,z,m,./images/CHERRYLB.png,,,,,,,,,,,,,,,,,,,,,z,1,0.6628,,,,,,,,0,102,102,138,1
,,,,,,,,,,,,,,,,,6111117cc879aaabc0231495,19,2022-02-12_13h27.31.969,lexical_decision_task_DD_L3,2021.2.3,Win32,60.81615277,,,,,,,,,,,0.7014,1,,,,,,,,,,,,,,,,,,,,,,,,-0.076851828,-0.499074104,0,0,0,,,,,,,ONION,LB,m,m,./images/ONIONLB.png,,,,,,,,,,,,,,,,,,,,,m,1,0.7014,,,,,,,,0,103,103,51,1
,,,,,,,,,,,,,,,,,6111117cc879aaabc0231495,19,2022-02-12_13h27.31.969,lexical_decision_task_DD_L3,2021.2.3,Win32,60.81615277,,,,,,,,,,,0.6739,1,,,,,,,,,,,,,,,,,,,,,,,,-0.076851828,-0.499074104,0,0,0,,,,,,,MIDGET,C,z,m,./images/MIDGET.png,,,,,,,,,,,,,,,,,,,,,z,1,0.6739,,,,,,,,0,104,104,160,1
,,,,,,,,,,,,,,,,,6111117cc879aaabc0231495,19,2022-02-12_13h27.31.969,lexical_decision_task_DD_L3,2021.2.3,Win32,60.81615277,,,,,,,,,,,0.9018,1,,,,,,,,,,,,,,,,,,,,,,,,-0.076851828,-0.499074104,0,0,0,,,,,,,SHIELD,LB,z,m,./images/SHIELDLB.png,,,,,,,,,,,,,,,,,,,,,z,1,0.9018,,,,,,,,0,105,105,132,1
,,,,,,,,,,,,,,,,,6111117cc879aaabc0231495,19,2022-02-12_13h27.31.969,lexical_decision_task_DD_L3,2021.2.3,Win32,60.81615277,,,,,,,,,,,0.7393,1,,,,,,,,,,,,,,,,,,,,,,,,-0.076851828,-0.499074104,0,0,0,,,,,,,WHISKY,HB,z,m,./images/WHISKYHB.png,,,,,,,,,,,,,,,,,,,,,z,1,0.7393,,,,,,,,0,106,106,167,1
,,,,,,,,,,,,,,,,,6111117cc879aaabc0231495,19,2022-02-12_13h27.31.969,lexical_decision_task_DD_L3,2021.2.3,Win32,60.81615277,,,,,,,,,,,0.668,1,,,,,,,,,,,,,,,,,,,,,,,,-0.076851828,-0.499074104,0,0,0,,,,,,,CANYON,C,m,m,./images/CANYON.png,,,,,,,,,,,,,,,,,,,,,m,1,0.668,,,,,,,,0,107,107,34,1
,,,,,,,,,,,,,,,,,6111117cc879aaabc0231495,19,2022-02-12_13h27.31.969,lexical_decision_task_DD_L3,2021.2.3,Win32,60.81615277,,,,,,,,,,,0.5854,1,,,,,,,,,,,,,,,,,,,,,,,,-0.076851828,-0.499074104,0,0,0,,,,,,,STRING,HB,m,m,./images/STRINGHB.png,,,,,,,,,,,,,,,,,,,,,m,1,0.5854,,,,,,,,0,108,108,41,1
,,,,,,,,,,,,,,,,,6111117cc879aaabc0231495,19,2022-02-12_13h27.31.969,lexical_decision_task_DD_L3,2021.2.3,Win32,60.81615277,,,,,,,,,,,0.5889,1,,,,,,,,,,,,,,,,,,,,,,,,-0.076851828,-0.499074104,0,0,0,,,,,,,SHELF,LB,m,m,./images/SHELFLB.png,,,,,,,,,,,,,,,,,,,,,m,1,0.5889,,,,,,,,0,109,109,39,1
,,,,,,,,,,,,,,,,,6111117cc879aaabc0231495,19,2022-02-12_13h27.31.969,lexical_decision_task_DD_L3,2021.2.3,Win32,60.81615277,,,,,,,,,,,1.2013,1,,,,,,,,,,,,,,,,,,,,,,,,-0.076851828,-0.499074104,0,0,0,,,,,,,PARADE,HB,z,m,./images/PARADEHB.png,,,,,,,,,,,,,,,,,,,,,z,1,1.2013,,,,,,,,0,110,110,101,1
,,,,,,,,,,,,,,,,,6111117cc879aaabc0231495,19,2022-02-12_13h27.31.969,lexical_decision_task_DD_L3,2021.2.3,Win32,60.81615277,,,,,,,,,,,0.9177,1,,,,,,,,,,,,,,,,,,,,,,,,-0.076851828,-0.499074104,0,0,0,,,,,,,FARMER,HB,m,m,./images/FARMERHB.png,,,,,,,,,,,,,,,,,,,,,m,1,0.9177,,,,,,,,0,111,111,65,1
,,,,,,,,,,,,,,,,,6111117cc879aaabc0231495,19,2022-02-12_13h27.31.969,lexical_decision_task_DD_L3,2021.2.3,Win32,60.81615277,,,,,,,,,,,0.8908,1,,,,,,,,,,,,,,,,,,,,,,,,-0.076851828,-0.499074104,0,0,0,,,,,,,NOOSE,LB,m,m,./images/NOOSELB.png,,,,,,,,,,,,,,,,,,,,,m,1,0.8908,,,,,,,,0,112,112,72,1
,,,,,,,,,,,,,,,,,6111117cc879aaabc0231495,19,2022-02-12_13h27.31.969,lexical_decision_task_DD_L3,2021.2.3,Win32,60.81615277,,,,,,,,,,,1.2881,1,,,,,,,,,,,,,,,,,,,,,,,,-0.076851828,-0.499074104,0,0,0,,,,,,,DESERT,C,z,m,./images/DESERT.png,,,,,,,,,,,,,,,,,,,,,z,1,1.2881,,,,,,,,0,113,113,136,1
,,,,,,,,,,,,,,,,,6111117cc879aaabc0231495,19,2022-02-12_13h27.31.969,lexical_decision_task_DD_L3,2021.2.3,Win32,60.81615277,,,,,,,,,,,1.295,1,,,,,,,,,,,,,,,,,,,,,,,,-0.076851828,-0.499074104,0,0,0,,,,,,,BUTTER,LB,z,m,./images/BUTTERLB.png,,,,,,,,,,,,,,,,,,,,,z,1,1.295,,,,,,,,0,114,114,111,1
,,,,,,,,,,,,,,,,,6111117cc879aaabc0231495,19,2022-02-12_13h27.31.969,lexical_decision_task_DD_L3,2021.2.3,Win32,60.81615277,,,,,,,,,,,0.6515,1,,,,,,,,,,,,,,,,,,,,,,,,-0.076851828,-0.499074104,0,0,0,,,,,,,BEARD,HB,m,m,./images/BEARDHB.png,,,,,,,,,,,,,,,,,,,,,m,1,0.6515,,,,,,,,0,115,115,2,1
,,,,,,,,,,,,,,,,,6111117cc879aaabc0231495,19,2022-02-12_13h27.31.969,lexical_decision_task_DD_L3,2021.2.3,Win32,60.81615277,,,,,,,,,,,0.6612,1,,,,,,,,,,,,,,,,,,,,,,,,-0.076851828,-0.499074104,0,0,0,,,,,,,BUBBLE,HB,z,m,./images/BUBBLEHB.png,,,,,,,,,,,,,,,,,,,,,z,1,0.6612,,,,,,,,0,116,116,155,1
,,,,,,,,,,,,,,,,,6111117cc879aaabc0231495,19,2022-02-12_13h27.31.969,lexical_decision_task_DD_L3,2021.2.3,Win32,60.81615277,,,,,,,,,,,1.5005,1,,,,,,,,,,,,,,,,,,,,,,,,-0.076851828,-0.499074104,0,0,0,,,,,,,URINE,C,m,m,./images/URINE.png,,,,,,,,,,,,,,,,,,,,,m,1,1.5005,,,,,,,,0,117,117,70,1
,,,,,,,,,,,,,,,,,6111117cc879aaabc0231495,19,2022-02-12_13h27.31.969,lexical_decision_task_DD_L3,2021.2.3,Win32,60.81615277,,,,,,,,,,,0.8526,0,,,,,,,,,,,,,,,,,,,,,,,,-0.076851828,-0.499074104,0,0,0,,,,,,,BONNET,HB,m,m,./images/BONNETHB.png,,,,,,,,,,,,,,,,,,,,,z,0,0.8526,,,,,,,,0,118,118,11,1
,,,,,,,,,,,,,,,,,6111117cc879aaabc0231495,19,2022-02-12_13h27.31.969,lexical_decision_task_DD_L3,2021.2.3,Win32,60.81615277,,,,,,,,,,,0.8927,1,,,,,,,,,,,,,,,,,,,,,,,,-0.076851828,-0.499074104,0,0,0,,,,,,,MALLET,HB,m,m,./images/MALLETHB.png,,,,,,,,,,,,,,,,,,,,,m,1,0.8927,,,,,,,,0,119,119,50,1
,,,,,,,,,,,,,,,,,6111117cc879aaabc0231495,19,2022-02-12_13h27.31.969,lexical_decision_task_DD_L3,2021.2.3,Win32,60.81615277,,,,,,,,,,,0.6186,1,,,,,,,,,,,,,,,,,,,,,,,,-0.076851828,-0.499074104,0,0,0,,,,,,,PURSE,HB,m,m,./images/PURSEHB.png,,,,,,,,,,,,,,,,,,,,,m,1,0.6186,,,,,,,,0,120,120,62,1
,,,,,,,,,,,,,,,,,6111117cc879aaabc0231495,19,2022-02-12_13h27.31.969,lexical_decision_task_DD_L3,2021.2.3,Win32,60.81615277,,,,,,,,,,,0.7683,1,,,,,,,,,,,,,,,,,,,,,,,,-0.076851828,-0.499074104,0,0,0,,,,,,,PLANET,HB,z,m,./images/PLANETHB.png,,,,,,,,,,,,,,,,,,,,,z,1,0.7683,,,,,,,,0,121,121,164,1
,,,,,,,,,,,,,,,,,6111117cc879aaabc0231495,19,2022-02-12_13h27.31.969,lexical_decision_task_DD_L3,2021.2.3,Win32,60.81615277,,,,,,,,,,,0.8208,0,,,,,,,,,,,,,,,,,,,,,,,,-0.076851828,-0.499074104,0,0,0,,,,,,,BUNNY,C,z,m,./images/BUNNY.png,,,,,,,,,,,,,,,,,,,,,m,0,0.8208,,,,,,,,0,122,122,97,1
,,,,,,,,,,,,,,,,,6111117cc879aaabc0231495,19,2022-02-12_13h27.31.969,lexical_decision_task_DD_L3,2021.2.3,Win32,60.81615277,,,,,,,,,,,0.6349,1,,,,,,,,,,,,,,,,,,,,,,,,-0.076851828,-0.499074104,0,0,0,,,,,,,GRANNY,HB,z,m,./images/GRANNYHB.png,,,,,,,,,,,,,,,,,,,,,z,1,0.6349,,,,,,,,0,123,123,104,1
,,,,,,,,,,,,,,,,,6111117cc879aaabc0231495,19,2022-02-12_13h27.31.969,lexical_decision_task_DD_L3,2021.2.3,Win32,60.81615277,,,,,,,,,,,0.9692,0,,,,,,,,,,,,,,,,,,,,,,,,-0.076851828,-0.499074104,0,0,0,,,,,,,PASTA,HB,m,m,./images/PASTAHB.png,,,,,,,,,,,,,,,,,,,,,z,0,0.9692,,,,,,,,0,124,124,5,1
,,,,,,,,,,,,,,,,,6111117cc879aaabc0231495,19,2022-02-12_13h27.31.969,lexical_decision_task_DD_L3,2021.2.3,Win32,60.81615277,,,,,,,,,,,1.135,1,,,,,,,,,,,,,,,,,,,,,,,,-0.076851828,-0.499074104,0,0,0,space,,,,,,PAINT,C,m,m,./images/PAINT.png,420.1319,,,,,,,,,,,,,,,,,,,,m,1,1.135,,,,,,,,0,125,125,7,1
,,,,,,,,,,,,,,,,,6111117cc879aaabc0231495,19,2022-02-12_13h27.31.969,lexical_decision_task_DD_L3,2021.2.3,Win32,60.81615277,,,,,,,,,,,0.9257,0,,,,,,,,,,,,,,,,,,,,,,,,-0.076851828,-0.499074104,0,0,0,,,,,,,FOLDER,LB,m,m,./images/FOLDERLB.png,,,,,,,,,,,,,,,,,,,,,z,0,0.9257,,,,,,,,0,126,126,42,1
,,,,,,,,,,,,,,,,,6111117cc879aaabc0231495,19,2022-02-12_13h27.31.969,lexical_decision_task_DD_L3,2021.2.3,Win32,60.81615277,,,,,,,,,,,0.633,1,,,,,,,,,,,,,,,,,,,,,,,,-0.076851828,-0.499074104,0,0,0,,,,,,,SUNSET,C,m,m,./images/SUNSET.png,,,,,,,,,,,,,,,,,,,,,m,1,0.633,,,,,,,,0,127,127,82,1
,,,,,,,,,,,,,,,,,6111117cc879aaabc0231495,19,2022-02-12_13h27.31.969,lexical_decision_task_DD_L3,2021.2.3,Win32,60.81615277,,,,,,,,,,,0.6609,1,,,,,,,,,,,,,,,,,,,,,,,,-0.076851828,-0.499074104,0,0,0,,,,,,,SAUCE,LB,z,m,./images/SAUCELB.png,,,,,,,,,,,,,,,,,,,,,z,1,0.6609,,,,,,,,0,128,128,135,1
,,,,,,,,,,,,,,,,,6111117cc879aaabc0231495,19,2022-02-12_13h27.31.969,lexical_decision_task_DD_L3,2021.2.3,Win32,60.81615277,,,,,,,,,,,0.878,1,,,,,,,,,,,,,,,,,,,,,,,,-0.076851828,-0.499074104,0,0,0,,,,,,,HEATER,HB,z,m,./images/HEATERHB.png,,,,,,,,,,,,,,,,,,,,,z,1,0.878,,,,,,,,0,129,129,140,1
,,,,,,,,,,,,,,,,,6111117cc879aaabc0231495,19,2022-02-12_13h27.31.969,lexical_decision_task_DD_L3,2021.2.3,Win32,60.81615277,,,,,,,,,,,0.882,1,,,,,,,,,,,,,,,,,,,,,,,,-0.076851828,-0.499074104,0,0,0,,,,,,,WAGON,C,z,m,./images/WAGON.png,,,,,,,,,,,,,,,,,,,,,z,1,0.882,,,,,,,,0,130,130,91,1
,,,,,,,,,,,,,,,,,6111117cc879aaabc0231495,19,2022-02-12_13h27.31.969,lexical_decision_task_DD_L3,2021.2.3,Win32,60.81615277,,,,,,,,,,,0.8299,1,,,,,,,,,,,,,,,,,,,,,,,,-0.076851828,-0.499074104,0,0,0,,,,,,,ARTIST,C,z,m,./images/ARTIST.png,,,,,,,,,,,,,,,,,,,,,z,1,0.8299,,,,,,,,0,131,131,145,1
