key_resp.keys,instr_done_touch.x,instr_done_touch.y,instr_done_touch.leftButton,instr_done_touch.midButton,instr_done_touch.rightButton,instr_done_touch.clicked_name,instruction_pages.thisRepN,instruction_pages.thisTrialN,instruction_pages.thisN,instruction_pages.thisIndex,instruction_pages.ran,pageN,phase,instruct_text,has_image,instruct_image,participant,age,date,expName,psychopyVersion,OS,frameRate,response.keys,response.corr,touch_resp.x,touch_resp.y,touch_resp.leftButton,touch_resp.midButton,touch_resp.rightButton,touch_resp.time,touch_resp.clicked_name,rt,corr,practrials.thisRepN,practrials.thisTrialN,practrials.thisN,practrials.thisIndex,practrials.ran,TrialID,Target,corrAns,end_of_practice_trials_pages.thisRepN,end_of_practice_trials_pages.thisTrialN,end_of_practice_trials_pages.thisN,end_of_practice_trials_pages.thisIndex,end_of_practice_trials_pages.ran,key_resp_2.keys,key_resp_2.corr,targ_click.x,targ_click.y,targ_click.leftButton,targ_click.midButton,targ_click.rightButton,targ_click.time,targ_click.clicked_name,break_done_touch.x,break_done_touch.y,break_done_touch.leftButton,break_done_touch.midButton,break_done_touch.rightButton,break_done_keyboard.keys,maintrials.thisRepN,maintrials.thisTrialN,maintrials.thisN,maintrials.thisIndex,maintrials.ran,string,blur,study,lex,stim_path,break_done_touch.clicked_name,mouse_2.x,mouse_2.y,mouse_2.leftButton,mouse_2.midButton,mouse_2.rightButton,mouse_2.clicked_name,slider.response,slider.rt,trials.thisRepN,trials.thisTrialN,trials.thisN,trials.thisIndex,trials.ran,test_instructions.thisRepN,test_instructions.thisTrialN,test_instructions.thisN,test_instructions.thisIndex,test_instructions.ran,key_resp_3.keys,key_resp_3.corr,test_click.x,test_click.y,test_click.leftButton,test_click.midButton,test_click.rightButton,test_click.time,test_click.clicked_name,test_phase.thisRepN,test_phase.thisTrialN,test_phase.thisN,test_phase.thisIndex,test_phase.ran
,0.046296318,-0.402662118,1,0,0,instr_done_button,0,0,0,0,1,1,instructions,"INSTRUCTIONS
At the start of each trial, look at the plus sign  (+) in the center of the screen.  This tells you that a trial is about to begin and where to look. Second, the plus sign will disappear and a string of letters will appear. Your task is to determine if the string of letters is a word or not. If the item is a word press the M key (on keyboard)  or touch the word button (phone/tablet).  If the item is not a word,  press the  Z key (on keyboard)  or touch the nonword button (on phone/tablet). 
Press the space bar or touch  continue.",0,,6111753718d92612abc8f41c,31,2022-02-12_14h24.04.209,lexical_decision_task_DD_L3,2021.2.3,Linux aarch64,59.9880024,,,,,,,,,,,,,,,,,,,,,,,,,,,,,,,,,,,,,,,,,,,,,,,,,,,,,,,,,,,,,,,,,,,,,,,,,,,,,,,,,,
,0.03425928,-0.418402831,1,0,0,instr_done_button,0,1,1,1,1,2,instructions,"If your device has a keyboard, press the 'Z' key for nonwords and the 'M' key for words.





Press the space bar or touch the button below to continue.",0,keyboard-example.gif,6111753718d92612abc8f41c,31,2022-02-12_14h24.04.209,lexical_decision_task_DD_L3,2021.2.3,Linux aarch64,59.9880024,,,,,,,,,,,,,,,,,,,,,,,,,,,,,,,,,,,,,,,,,,,,,,,,,,,,,,,,,,,,,,,,,,,,,,,,,,,,,,,,,,
,0.066666683,-0.398032506,1,0,0,instr_done_button,0,2,2,2,1,3,instructions,"If you are using a touchscreen only device, use the buttons on the screen. Do not use the mouse.





Press the space bar or touch the button below to continue.",0,touchscreen-example.gif,6111753718d92612abc8f41c,31,2022-02-12_14h24.04.209,lexical_decision_task_DD_L3,2021.2.3,Linux aarch64,59.9880024,,,,,,,,,,,,,,,,,,,,,,,,,,,,,,,,,,,,,,,,,,,,,,,,,,,,,,,,,,,,,,,,,,,,,,,,,,,,,,,,,,
,0.092592597,-0.410995483,1,0,0,instr_done_button,0,3,3,3,1,4,instructions,"It is very important that you respond as quickly and accurately as possible, as each letter string will only be on the screen for two seconds. If you do not respond within this time, the message 'Too slow!' will be displayed and the experiment will progress to the next letter string. The first 20 trials will be practice trials and you will receive feedback on your answers. 

Press the space bar or touch the button below to start the practice trials.",0,,6111753718d92612abc8f41c,31,2022-02-12_14h24.04.209,lexical_decision_task_DD_L3,2021.2.3,Linux aarch64,59.9880024,,,,,,,,,,,,,,,,,,,,,,,,,,,,,,,,,,,,,,,,,,,,,,,,,,,,,,,,,,,,,,,,,,,,,,,,,,,,,,,,,,
,,,,,,,,,,,,,,,,,6111753718d92612abc8f41c,31,2022-02-12_14h24.04.209,lexical_decision_task_DD_L3,2021.2.3,Linux aarch64,59.9880024,,0,0.385185242,-0.274884303,1,0,0,3.2308,button_right,3.2308,1,0,0,0,1,1,1001,ADJUST,m,,,,,,,,,,,,,,,,,,,,,,,,,,,,,,,,,,,,,,,,,,,,,,,,,,,,,,,,,,,,,,,
,,,,,,,,,,,,,,,,,6111753718d92612abc8f41c,31,2022-02-12_14h24.04.209,lexical_decision_task_DD_L3,2021.2.3,Linux aarch64,59.9880024,,0,-0.378703703,-0.299884399,1,0,0,1.5553,button_left,1.5553,1,0,1,1,8,1,1001,ASLERT,z,,,,,,,,,,,,,,,,,,,,,,,,,,,,,,,,,,,,,,,,,,,,,,,,,,,,,,,,,,,,,,,
,,,,,,,,,,,,,,,,,6111753718d92612abc8f41c,31,2022-02-12_14h24.04.209,lexical_decision_task_DD_L3,2021.2.3,Linux aarch64,59.9880024,,0,0.383333445,-0.294328849,1,0,0,1.4432,button_right,1.4432,1,0,2,2,7,1,1001,VOLUME,m,,,,,,,,,,,,,,,,,,,,,,,,,,,,,,,,,,,,,,,,,,,,,,,,,,,,,,,,,,,,,,,
,,,,,,,,,,,,,,,,,6111753718d92612abc8f41c,31,2022-02-12_14h24.04.209,lexical_decision_task_DD_L3,2021.2.3,Linux aarch64,59.9880024,,0,-0.372222205,-0.297106504,1,0,0,1.4882,button_left,1.4882,1,0,3,3,15,1,1001,WHAISE,z,,,,,,,,,,,,,,,,,,,,,,,,,,,,,,,,,,,,,,,,,,,,,,,,,,,,,,,,,,,,,,,
,,,,,,,,,,,,,,,,,6111753718d92612abc8f41c,31,2022-02-12_14h24.04.209,lexical_decision_task_DD_L3,2021.2.3,Linux aarch64,59.9880024,,0,0.386111101,-0.284143527,1,0,0,2.1063,button_right,2.1063,1,0,4,4,2,1,1001,ALMOND,m,,,,,,,,,,,,,,,,,,,,,,,,,,,,,,,,,,,,,,,,,,,,,,,,,,,,,,,,,,,,,,,
,,,,,,,,,,,,,,,,,6111753718d92612abc8f41c,31,2022-02-12_14h24.04.209,lexical_decision_task_DD_L3,2021.2.3,Linux aarch64,59.9880024,,0,-0.33518518,-0.311921438,1,0,0,1.4898,button_left,1.4898,1,0,5,5,9,1,1001,FARINY,z,,,,,,,,,,,,,,,,,,,,,,,,,,,,,,,,,,,,,,,,,,,,,,,,,,,,,,,,,,,,,,,
,,,,,,,,,,,,,,,,,6111753718d92612abc8f41c,31,2022-02-12_14h24.04.209,lexical_decision_task_DD_L3,2021.2.3,Linux aarch64,59.9880024,,0,0.405555566,-0.262847265,1,0,0,1.1439,button_right,1.1439,1,0,6,6,0,1,1001,UTOPIA,m,,,,,,,,,,,,,,,,,,,,,,,,,,,,,,,,,,,,,,,,,,,,,,,,,,,,,,,,,,,,,,,
,,,,,,,,,,,,,,,,,6111753718d92612abc8f41c,31,2022-02-12_14h24.04.209,lexical_decision_task_DD_L3,2021.2.3,Linux aarch64,59.9880024,,0,0.402777831,-0.276736259,1,0,0,1.6919,button_right,1.6919,1,0,7,7,6,1,1001,ZOMBIE,m,,,,,,,,,,,,,,,,,,,,,,,,,,,,,,,,,,,,,,,,,,,,,,,,,,,,,,,,,,,,,,,
,,,,,,,,,,,,,,,,,6111753718d92612abc8f41c,31,2022-02-12_14h24.04.209,lexical_decision_task_DD_L3,2021.2.3,Linux aarch64,59.9880024,,0,-0.364814808,-0.296180566,1,0,0,1.8387,button_left,1.8387,1,0,8,8,10,1,1001,INLADE,z,,,,,,,,,,,,,,,,,,,,,,,,,,,,,,,,,,,,,,,,,,,,,,,,,,,,,,,,,,,,,,,
,,,,,,,,,,,,,,,,,6111753718d92612abc8f41c,31,2022-02-12_14h24.04.209,lexical_decision_task_DD_L3,2021.2.3,Linux aarch64,59.9880024,,0,-0.337037037,-0.303587993,1,0,0,1.3927,button_left,1.3927,1,0,9,9,12,1,1001,SPRINY,z,,,,,,,,,,,,,,,,,,,,,,,,,,,,,,,,,,,,,,,,,,,,,,,,,,,,,,,,,,,,,,,
,,,,,,,,,,,,,,,,,6111753718d92612abc8f41c,31,2022-02-12_14h24.04.209,lexical_decision_task_DD_L3,2021.2.3,Linux aarch64,59.9880024,,0,0.379629612,-0.274884303,1,0,0,1.4235,button_right,1.4235,1,0,10,10,3,1,1001,MATRIX,m,,,,,,,,,,,,,,,,,,,,,,,,,,,,,,,,,,,,,,,,,,,,,,,,,,,,,,,,,,,,,,,
,,,,,,,,,,,,,,,,,6111753718d92612abc8f41c,31,2022-02-12_14h24.04.209,lexical_decision_task_DD_L3,2021.2.3,Linux aarch64,59.9880024,,0,-0.38055555,-0.28229181,1,0,0,1.0142,button_left,1.0142,1,0,11,11,13,1,1001,ROUPET,z,,,,,,,,,,,,,,,,,,,,,,,,,,,,,,,,,,,,,,,,,,,,,,,,,,,,,,,,,,,,,,,
,,,,,,,,,,,,,,,,,6111753718d92612abc8f41c,31,2022-02-12_14h24.04.209,lexical_decision_task_DD_L3,2021.2.3,Linux aarch64,59.9880024,,0,-0.355555554,-0.291550954,1,0,0,1.1157,button_left,1.1157,1,0,12,12,11,1,1001,RASHET,z,,,,,,,,,,,,,,,,,,,,,,,,,,,,,,,,,,,,,,,,,,,,,,,,,,,,,,,,,,,,,,,
,,,,,,,,,,,,,,,,,6111753718d92612abc8f41c,31,2022-02-12_14h24.04.209,lexical_decision_task_DD_L3,2021.2.3,Linux aarch64,59.9880024,,0,-0.338888884,-0.289699078,1,0,0,1.3392,button_left,1.3392,1,0,13,13,14,1,1001,THRALE,z,,,,,,,,,,,,,,,,,,,,,,,,,,,,,,,,,,,,,,,,,,,,,,,,,,,,,,,,,,,,,,,
,,,,,,,,,,,,,,,,,6111753718d92612abc8f41c,31,2022-02-12_14h24.04.209,lexical_decision_task_DD_L3,2021.2.3,Linux aarch64,59.9880024,,0,0.390740792,-0.276736259,1,0,0,1.0723,button_right,1.0723,1,0,14,14,5,1,1001,OBTAIN,m,,,,,,,,,,,,,,,,,,,,,,,,,,,,,,,,,,,,,,,,,,,,,,,,,,,,,,,,,,,,,,,
,,,,,,,,,,,,,,,,,6111753718d92612abc8f41c,31,2022-02-12_14h24.04.209,lexical_decision_task_DD_L3,2021.2.3,Linux aarch64,59.9880024,,0,0.385185242,-0.285995404,1,0,0,2.5405,button_right,2.5405,1,0,15,15,4,1,1001,SQUEAK,m,,,,,,,,,,,,,,,,,,,,,,,,,,,,,,,,,,,,,,,,,,,,,,,,,,,,,,,,,,,,,,,
,0.060185194,-0.400810242,1,0,0,instr_done_button,,,,,,1,end_of_practice,"You have completed the practice trials. During the experimental trials, you will not receive feedback. 
Before you begin, please ensure that you are in a comfortable and quiet location and will not be disturbed for about 15 minutes, as we cannot use your data if you do not complete all the trials. 
 When you are ready to start the experimental trials, please press space or touch the button below.",,,6111753718d92612abc8f41c,31,2022-02-12_14h24.04.209,lexical_decision_task_DD_L3,2021.2.3,Linux aarch64,59.9880024,,,,,,,,,,,,,,,,,,,,0,0,0,0,1,,,,,,,,,,,,,,,,,,,,,,,,,,,,,,,,,,,,,,,,,,,,,,,,,,,,,,,,,,
,,,,,,,,,,,,,,,,,6111753718d92612abc8f41c,31,2022-02-12_14h24.04.209,lexical_decision_task_DD_L3,2021.2.3,Linux aarch64,59.9880024,,,,,,,,,,1.5598,1,,,,,,,,,,,,,,,0,0.365740856,-0.27118055,1,0,0,1.5598,button_right_main,0.365740856,-0.27118055,1,0,0,,0,0,0,38,1,LADDER,HB,old,m,./images/LADDERHB.png,,,,,,,,,,,,,,,,,,,,,,,,,,,,,,,,,
,,,,,,,,,,,,,,,,,6111753718d92612abc8f41c,31,2022-02-12_14h24.04.209,lexical_decision_task_DD_L3,2021.2.3,Linux aarch64,59.9880024,,,,,,,,,,1.4022,1,,,,,,,,,,,,,,,0,-0.385185182,-0.286921342,1,0,0,1.4022,button_left_main,-0.385185182,-0.286921342,1,0,0,,0,1,1,140,1,DOVET,LB,old,z,./images/DOVETLB.png,,,,,,,,,,,,,,,,,,,,,,,,,,,,,,,,,
,,,,,,,,,,,,,,,,,6111753718d92612abc8f41c,31,2022-02-12_14h24.04.209,lexical_decision_task_DD_L3,2021.2.3,Linux aarch64,59.9880024,,,,,,,,,,0.7095,1,,,,,,,,,,,,,,,0,0.383333445,-0.293402831,1,0,0,0.7095,button_right_main,0.383333445,-0.293402831,1,0,0,,0,2,2,39,1,SHELF,LB,old,m,./images/SHELFLB.png,,,,,,,,,,,,,,,,,,,,,,,,,,,,,,,,,
,,,,,,,,,,,,,,,,,6111753718d92612abc8f41c,31,2022-02-12_14h24.04.209,lexical_decision_task_DD_L3,2021.2.3,Linux aarch64,59.9880024,,,,,,,,,,1.7277,1,,,,,,,,,,,,,,,0,-0.345370352,-0.302662055,1,0,0,1.7277,button_left_main,-0.345370352,-0.302662055,1,0,0,,0,3,3,112,1,MYING,HB,old,z,./images/MYINGHB.png,,,,,,,,,,,,,,,,,,,,,,,,,,,,,,,,,
,,,,,,,,,,,,,,,,,6111753718d92612abc8f41c,31,2022-02-12_14h24.04.209,lexical_decision_task_DD_L3,2021.2.3,Linux aarch64,59.9880024,,,,,,,,,,0.8769,1,,,,,,,,,,,,,,,0,-0.364814808,-0.288773139,1,0,0,0.8769,button_left_main,-0.364814808,-0.288773139,1,0,0,,0,4,4,86,1,AIFED,LB,old,z,./images/AIFEDLB.png,,,,,,,,,,,,,,,,,,,,,,,,,,,,,,,,,
,,,,,,,,,,,,,,,,,6111753718d92612abc8f41c,31,2022-02-12_14h24.04.209,lexical_decision_task_DD_L3,2021.2.3,Linux aarch64,59.9880024,,,,,,,,,,1.4488,1,,,,,,,,,,,,,,,0,-0.368518511,-0.280439854,1,0,0,1.4488,button_left_main,-0.368518511,-0.280439854,1,0,0,,0,5,5,106,1,CLUMS,HB,old,z,./images/CLUMSHB.png,,,,,,,,,,,,,,,,,,,,,,,,,,,,,,,,,
,,,,,,,,,,,,,,,,,6111753718d92612abc8f41c,31,2022-02-12_14h24.04.209,lexical_decision_task_DD_L3,2021.2.3,Linux aarch64,59.9880024,,,,,,,,,,0.9946,1,,,,,,,,,,,,,,,0,0.391666651,-0.261921326,1,0,0,0.9946,button_right_main,0.391666651,-0.261921326,1,0,0,,0,6,6,81,1,POODLE,LB,old,m,./images/POODLELB.png,,,,,,,,,,,,,,,,,,,,,,,,,,,,,,,,,
,,,,,,,,,,,,,,,,,6111753718d92612abc8f41c,31,2022-02-12_14h24.04.209,lexical_decision_task_DD_L3,2021.2.3,Linux aarch64,59.9880024,,,,,,,,,,0.961,1,,,,,,,,,,,,,,,0,0.383333445,-0.286921342,1,0,0,0.961,button_right_main,0.383333445,-0.286921342,1,0,0,,0,7,7,61,1,CANDLE,C,old,m,./images/CANDLE.png,,,,,,,,,,,,,,,,,,,,,,,,,,,,,,,,,
,,,,,,,,,,,,,,,,,6111753718d92612abc8f41c,31,2022-02-12_14h24.04.209,lexical_decision_task_DD_L3,2021.2.3,Linux aarch64,59.9880024,,,,,,,,,,0.8603,1,,,,,,,,,,,,,,,0,0.400000016,-0.247106473,1,0,0,0.8603,button_right_main,0.400000016,-0.247106473,1,0,0,,0,8,8,83,1,JUNGLE,HB,old,m,./images/JUNGLEHB.png,,,,,,,,,,,,,,,,,,,,,,,,,,,,,,,,,
,,,,,,,,,,,,,,,,,6111753718d92612abc8f41c,31,2022-02-12_14h24.04.209,lexical_decision_task_DD_L3,2021.2.3,Linux aarch64,59.9880024,,,,,,,,,,1.1766,1,,,,,,,,,,,,,,,0,-0.370370368,-0.273032427,1,0,0,1.1766,button_left_main,-0.370370368,-0.273032427,1,0,0,,0,9,9,88,1,GLUSH,HB,old,z,./images/GLUSHHB.png,,,,,,,,,,,,,,,,,,,,,,,,,,,,,,,,,
,,,,,,,,,,,,,,,,,6111753718d92612abc8f41c,31,2022-02-12_14h24.04.209,lexical_decision_task_DD_L3,2021.2.3,Linux aarch64,59.9880024,,,,,,,,,,0.8446,1,,,,,,,,,,,,,,,0,0.371296406,-0.290625016,1,0,0,0.8446,button_right_main,0.371296406,-0.290625016,1,0,0,,0,10,10,78,1,LITTER,LB,old,m,./images/LITTERLB.png,,,,,,,,,,,,,,,,,,,,,,,,,,,,,,,,,
,,,,,,,,,,,,,,,,,6111753718d92612abc8f41c,31,2022-02-12_14h24.04.209,lexical_decision_task_DD_L3,2021.2.3,Linux aarch64,59.9880024,,,,,,,,,,0.8959,1,,,,,,,,,,,,,,,0,-0.358333329,-0.28784736,1,0,0,0.8959,button_left_main,-0.358333329,-0.28784736,1,0,0,,0,11,11,98,1,BAMPS,LB,old,z,./images/BAMPSLB.png,,,,,,,,,,,,,,,,,,,,,,,,,,,,,,,,,
,,,,,,,,,,,,,,,,,6111753718d92612abc8f41c,31,2022-02-12_14h24.04.209,lexical_decision_task_DD_L3,2021.2.3,Linux aarch64,59.9880024,,,,,,,,,,0.7198,1,,,,,,,,,,,,,,,0,0.38055555,-0.277662039,1,0,0,0.7198,button_right_main,0.38055555,-0.277662039,1,0,0,,0,12,12,28,1,FALCON,C,old,m,./images/FALCON.png,,,,,,,,,,,,,,,,,,,,,,,,,,,,,,,,,
,,,,,,,,,,,,,,,,,6111753718d92612abc8f41c,31,2022-02-12_14h24.04.209,lexical_decision_task_DD_L3,2021.2.3,Linux aarch64,59.9880024,,,,,,,,,,1.0297,1,,,,,,,,,,,,,,,0,-0.366666665,-0.281365792,1,0,0,1.0297,button_left_main,-0.366666665,-0.281365792,1,0,0,,0,13,13,127,1,NINDY,HB,old,z,./images/NINDYHB.png,,,,,,,,,,,,,,,,,,,,,,,,,,,,,,,,,
,,,,,,,,,,,,,,,,,6111753718d92612abc8f41c,31,2022-02-12_14h24.04.209,lexical_decision_task_DD_L3,2021.2.3,Linux aarch64,59.9880024,,,,,,,,,,1.0625,1,,,,,,,,,,,,,,,0,-0.378703703,-0.274884303,1,0,0,1.0625,button_left_main,-0.378703703,-0.274884303,1,0,0,,0,14,14,87,1,TRING,C,old,z,./images/TRING.png,,,,,,,,,,,,,,,,,,,,,,,,,,,,,,,,,
,,,,,,,,,,,,,,,,,6111753718d92612abc8f41c,31,2022-02-12_14h24.04.209,lexical_decision_task_DD_L3,2021.2.3,Linux aarch64,59.9880024,,,,,,,,,,1.1614,1,,,,,,,,,,,,,,,0,-0.374074072,-0.284143527,1,0,0,1.1614,button_left_main,-0.374074072,-0.284143527,1,0,0,,0,15,15,130,1,CRILL,HB,old,z,./images/CRILLHB.png,,,,,,,,,,,,,,,,,,,,,,,,,,,,,,,,,
,,,,,,,,,,,,,,,,,6111753718d92612abc8f41c,31,2022-02-12_14h24.04.209,lexical_decision_task_DD_L3,2021.2.3,Linux aarch64,59.9880024,,,,,,,,,,0.8135,1,,,,,,,,,,,,,,,0,0.407407522,-0.252662182,1,0,0,0.8135,button_right_main,0.407407522,-0.252662182,1,0,0,,0,16,16,57,1,MOOSE,LB,old,m,./images/MOOSELB.png,,,,,,,,,,,,,,,,,,,,,,,,,,,,,,,,,
,,,,,,,,,,,,,,,,,6111753718d92612abc8f41c,31,2022-02-12_14h24.04.209,lexical_decision_task_DD_L3,2021.2.3,Linux aarch64,59.9880024,,,,,,,,,,0.8327,1,,,,,,,,,,,,,,,0,0.401851892,-0.269328753,1,0,0,0.8327,button_right_main,0.401851892,-0.269328753,1,0,0,,0,17,17,70,1,URINE,C,old,m,./images/URINE.png,,,,,,,,,,,,,,,,,,,,,,,,,,,,,,,,,
,,,,,,,,,,,,,,,,,6111753718d92612abc8f41c,31,2022-02-12_14h24.04.209,lexical_decision_task_DD_L3,2021.2.3,Linux aarch64,59.9880024,,,,,,,,,,0.9124,1,,,,,,,,,,,,,,,0,-0.353703698,-0.297106504,1,0,0,0.9124,button_left_main,-0.353703698,-0.297106504,1,0,0,,0,18,18,129,1,PRANS,C,old,z,./images/PRANS.png,,,,,,,,,,,,,,,,,,,,,,,,,,,,,,,,,
,,,,,,,,,,,,,,,,,6111753718d92612abc8f41c,31,2022-02-12_14h24.04.209,lexical_decision_task_DD_L3,2021.2.3,Linux aarch64,59.9880024,,,,,,,,,,0.7629,1,,,,,,,,,,,,,,,0,0.394444466,-0.263773203,1,0,0,0.7629,button_right_main,0.394444466,-0.263773203,1,0,0,,0,19,19,49,1,DRUMS,C,old,m,./images/DRUMS.png,,,,,,,,,,,,,,,,,,,,,,,,,,,,,,,,,
,,,,,,,,,,,,,,,,,6111753718d92612abc8f41c,31,2022-02-12_14h24.04.209,lexical_decision_task_DD_L3,2021.2.3,Linux aarch64,59.9880024,,,,,,,,,,1.411,1,,,,,,,,,,,,,,,0,-0.376851847,-0.291550954,1,0,0,1.411,button_left_main,-0.376851847,-0.291550954,1,0,0,,0,20,20,124,1,TUNCH,HB,old,z,./images/TUNCHHB.png,,,,,,,,,,,,,,,,,,,,,,,,,,,,,,,,,
,,,,,,,,,,,,,,,,,6111753718d92612abc8f41c,31,2022-02-12_14h24.04.209,lexical_decision_task_DD_L3,2021.2.3,Linux aarch64,59.9880024,,,,,,,,,,0.9754,1,,,,,,,,,,,,,,,0,0.394444466,-0.285995404,1,0,0,0.9754,button_right_main,0.394444466,-0.285995404,1,0,0,,0,21,21,52,1,BANNER,C,old,m,./images/BANNER.png,,,,,,,,,,,,,,,,,,,,,,,,,,,,,,,,,
,,,,,,,,,,,,,,,,,6111753718d92612abc8f41c,31,2022-02-12_14h24.04.209,lexical_decision_task_DD_L3,2021.2.3,Linux aarch64,59.9880024,,,,,,,,,,1.0347,1,,,,,,,,,,,,,,,0,-0.381481479,-0.283217589,1,0,0,1.0347,button_left_main,-0.381481479,-0.283217589,1,0,0,,0,22,22,157,1,INLER,HB,old,z,./images/INLERHB.png,,,,,,,,,,,,,,,,,,,,,,,,,,,,,,,,,
,,,,,,,,,,,,,,,,,6111753718d92612abc8f41c,31,2022-02-12_14h24.04.209,lexical_decision_task_DD_L3,2021.2.3,Linux aarch64,59.9880024,,,,,,,,,,0.9339,1,,,,,,,,,,,,,,,0,0.391666651,-0.268402815,1,0,0,0.9339,button_right_main,0.391666651,-0.268402815,1,0,0,,0,23,23,79,1,CRUST,C,old,m,./images/CRUST.png,,,,,,,,,,,,,,,,,,,,,,,,,,,,,,,,,
,,,,,,,,,,,,,,,,,6111753718d92612abc8f41c,31,2022-02-12_14h24.04.209,lexical_decision_task_DD_L3,2021.2.3,Linux aarch64,59.9880024,,,,,,,,,,0.8852,1,,,,,,,,,,,,,,,0,0.390740792,-0.267476877,1,0,0,0.8852,button_right_main,0.390740792,-0.267476877,1,0,0,,0,24,24,41,1,STRING,HB,old,m,./images/STRINGHB.png,,,,,,,,,,,,,,,,,,,,,,,,,,,,,,,,,
,,,,,,,,,,,,,,,,,6111753718d92612abc8f41c,31,2022-02-12_14h24.04.209,lexical_decision_task_DD_L3,2021.2.3,Linux aarch64,59.9880024,,,,,,,,,,1.3475,1,,,,,,,,,,,,,,,0,0.41481487,-0.248958349,1,0,0,1.3475,button_right_main,0.41481487,-0.248958349,1,0,0,,0,25,25,17,1,SKIING,HB,old,m,./images/SKIINGHB.png,,,,,,,,,,,,,,,,,,,,,,,,,,,,,,,,,
,,,,,,,,,,,,,,,,,6111753718d92612abc8f41c,31,2022-02-12_14h24.04.209,lexical_decision_task_DD_L3,2021.2.3,Linux aarch64,59.9880024,,,,,,,,,,0.9765,1,,,,,,,,,,,,,,,0,-0.371296297,-0.283217589,1,0,0,0.9765,button_left_main,-0.371296297,-0.283217589,1,0,0,,0,26,26,118,1,BAVEL,HB,old,z,./images/BAVELHB.png,,,,,,,,,,,,,,,,,,,,,,,,,,,,,,,,,
,,,,,,,,,,,,,,,,,6111753718d92612abc8f41c,31,2022-02-12_14h24.04.209,lexical_decision_task_DD_L3,2021.2.3,Linux aarch64,59.9880024,,,,,,,,,,0.7477,1,,,,,,,,,,,,,,,0,0.392592589,-0.270254771,1,0,0,0.7477,button_right_main,0.392592589,-0.270254771,1,0,0,,0,27,27,19,1,DOUGH,C,old,m,./images/DOUGH.png,,,,,,,,,,,,,,,,,,,,,,,,,,,,,,,,,
,,,,,,,,,,,,,,,,,6111753718d92612abc8f41c,31,2022-02-12_14h24.04.209,lexical_decision_task_DD_L3,2021.2.3,Linux aarch64,59.9880024,,,,,,,,,,0.8923,1,,,,,,,,,,,,,,,0,-0.366666665,-0.285069466,1,0,0,0.8923,button_left_main,-0.366666665,-0.285069466,1,0,0,,0,28,28,125,1,MOOKY,LB,old,z,./images/MOOKYLB.png,,,,,,,,,,,,,,,,,,,,,,,,,,,,,,,,,
,,,,,,,,,,,,,,,,,6111753718d92612abc8f41c,31,2022-02-12_14h24.04.209,lexical_decision_task_DD_L3,2021.2.3,Linux aarch64,59.9880024,,,,,,,,,,0.8245,1,,,,,,,,,,,,,,,0,0.405555566,-0.27118055,1,0,0,0.8245,button_right_main,0.405555566,-0.27118055,1,0,0,,0,29,29,5,1,PASTA,HB,old,m,./images/PASTAHB.png,,,,,,,,,,,,,,,,,,,,,,,,,,,,,,,,,
,,,,,,,,,,,,,,,,,6111753718d92612abc8f41c,31,2022-02-12_14h24.04.209,lexical_decision_task_DD_L3,2021.2.3,Linux aarch64,59.9880024,,,,,,,,,,0.9277,1,,,,,,,,,,,,,,,0,0.408333381,-0.261921326,1,0,0,0.9277,button_right_main,0.408333381,-0.261921326,1,0,0,,0,30,30,1,1,PLANK,C,old,m,./images/PLANK.png,,,,,,,,,,,,,,,,,,,,,,,,,,,,,,,,,
,,,,,,,,,,,,,,,,,6111753718d92612abc8f41c,31,2022-02-12_14h24.04.209,lexical_decision_task_DD_L3,2021.2.3,Linux aarch64,59.9880024,,,,,,,,,,0.945,1,,,,,,,,,,,,,,,0,-0.355555554,-0.293402831,1,0,0,0.945,button_left_main,-0.355555554,-0.293402831,1,0,0,,0,31,31,151,1,TINKY,HB,old,z,./images/TINKYHB.png,,,,,,,,,,,,,,,,,,,,,,,,,,,,,,,,,
,,,,,,,,,,,,,,,,,6111753718d92612abc8f41c,31,2022-02-12_14h24.04.209,lexical_decision_task_DD_L3,2021.2.3,Linux aarch64,59.9880024,,,,,,,,,,0.9258,1,,,,,,,,,,,,,,,0,-0.365740736,-0.281365792,1,0,0,0.9258,button_left_main,-0.365740736,-0.281365792,1,0,0,,0,32,32,101,1,GLEET,LB,old,z,./images/GLEETLB.png,,,,,,,,,,,,,,,,,,,,,,,,,,,,,,,,,
,,,,,,,,,,,,,,,,,6111753718d92612abc8f41c,31,2022-02-12_14h24.04.209,lexical_decision_task_DD_L3,2021.2.3,Linux aarch64,59.9880024,,,,,,,,,,0.7943,1,,,,,,,,,,,,,,,0,0.391666651,-0.273958365,1,0,0,0.7943,button_right_main,0.391666651,-0.273958365,1,0,0,,0,33,33,31,1,QUILL,C,old,m,./images/QUILL.png,,,,,,,,,,,,,,,,,,,,,,,,,,,,,,,,,
,,,,,,,,,,,,,,,,,6111753718d92612abc8f41c,31,2022-02-12_14h24.04.209,lexical_decision_task_DD_L3,2021.2.3,Linux aarch64,59.9880024,,,,,,,,,,0.7614,1,,,,,,,,,,,,,,,0,0.406481504,-0.262847265,1,0,0,0.7614,button_right_main,0.406481504,-0.262847265,1,0,0,,0,34,34,27,1,ATTIC,LB,old,m,./images/ATTICLB.png,,,,,,,,,,,,,,,,,,,,,,,,,,,,,,,,,
,,,,,,,,,,,,,,,,,6111753718d92612abc8f41c,31,2022-02-12_14h24.04.209,lexical_decision_task_DD_L3,2021.2.3,Linux aarch64,59.9880024,,,,,,,,,,0.8613,1,,,,,,,,,,,,,,,0,-0.367592593,-0.285069466,1,0,0,0.8613,button_left_main,-0.367592593,-0.285069466,1,0,0,,0,35,35,131,1,NACES,LB,old,z,./images/NACESLB.png,,,,,,,,,,,,,,,,,,,,,,,,,,,,,,,,,
,,,,,,,,,,,,,,,,,6111753718d92612abc8f41c,31,2022-02-12_14h24.04.209,lexical_decision_task_DD_L3,2021.2.3,Linux aarch64,59.9880024,,,,,,,,,,0.6498,1,,,,,,,,,,,,,,,0,0.401851892,-0.264699221,1,0,0,0.6498,button_right_main,0.401851892,-0.264699221,1,0,0,,0,36,36,0,1,TOMATO,LB,old,m,./images/TOMATOLB.png,,,,,,,,,,,,,,,,,,,,,,,,,,,,,,,,,
,,,,,,,,,,,,,,,,,6111753718d92612abc8f41c,31,2022-02-12_14h24.04.209,lexical_decision_task_DD_L3,2021.2.3,Linux aarch64,59.9880024,,,,,,,,,,0.7906,1,,,,,,,,,,,,,,,0,0.409259319,-0.257291714,1,0,0,0.7906,button_right_main,0.409259319,-0.257291714,1,0,0,,0,37,37,12,1,SHORE,LB,old,m,./images/SHORELB.png,,,,,,,,,,,,,,,,,,,,,,,,,,,,,,,,,
,,,,,,,,,,,,,,,,,6111753718d92612abc8f41c,31,2022-02-12_14h24.04.209,lexical_decision_task_DD_L3,2021.2.3,Linux aarch64,59.9880024,,,,,,,,,,1.1781,1,,,,,,,,,,,,,,,0,0.393518527,-0.265625,1,0,0,1.1781,button_right_main,0.393518527,-0.265625,1,0,0,,0,38,38,69,1,COOKER,LB,old,m,./images/COOKERLB.png,,,,,,,,,,,,,,,,,,,,,,,,,,,,,,,,,
,,,,,,,,,,,,,,,,,6111753718d92612abc8f41c,31,2022-02-12_14h24.04.209,lexical_decision_task_DD_L3,2021.2.3,Linux aarch64,59.9880024,,,,,,,,,,1.1482,0,,,,,,,,,,,,,,,0,0.402777831,-0.257291714,1,0,0,1.1482,button_right_main,0.402777831,-0.257291714,1,0,0,,0,39,39,166,1,SHORY,HB,old,z,./images/SHORYHB.png,,,,,,,,,,,,,,,,,,,,,,,,,,,,,,,,,
,,,,,,,,,,,,,,,,,6111753718d92612abc8f41c,31,2022-02-12_14h24.04.209,lexical_decision_task_DD_L3,2021.2.3,Linux aarch64,59.9880024,,,,,,,,,,1.1755,1,,,,,,,,,,,,,,,0,-0.36944444,-0.281365792,1,0,0,1.1755,button_left_main,-0.36944444,-0.281365792,1,0,0,,0,40,40,154,1,THINT,HB,old,z,./images/THINTHB.png,,,,,,,,,,,,,,,,,,,,,,,,,,,,,,,,,
,,,,,,,,,,,,,,,,,6111753718d92612abc8f41c,31,2022-02-12_14h24.04.209,lexical_decision_task_DD_L3,2021.2.3,Linux aarch64,59.9880024,,,,,,,,,,0.9452,1,,,,,,,,,,,,,,,0,0.390740792,-0.270254771,1,0,0,0.9452,button_right_main,0.169444482,-0.36747694,1,0,0,,0,41,41,59,1,BURIAL,HB,old,m,./images/BURIALHB.png,break_done_button,,,,,,,,,,,,,,,,,,,,,,,,,,,,,,,,
,,,,,,,,,,,,,,,,,6111753718d92612abc8f41c,31,2022-02-12_14h24.04.209,lexical_decision_task_DD_L3,2021.2.3,Linux aarch64,59.9880024,,,,,,,,,,0.9762,1,,,,,,,,,,,,,,,0,0.387962977,-0.293402831,1,0,0,0.9762,button_right_main,0.387962977,-0.293402831,1,0,0,,0,42,42,16,1,PENCE,C,old,m,./images/PENCE.png,,,,,,,,,,,,,,,,,,,,,,,,,,,,,,,,,
,,,,,,,,,,,,,,,,,6111753718d92612abc8f41c,31,2022-02-12_14h24.04.209,lexical_decision_task_DD_L3,2021.2.3,Linux aarch64,59.9880024,,,,,,,,,,1.035,1,,,,,,,,,,,,,,,0,-0.362037033,-0.264699221,1,0,0,1.035,button_left_main,-0.362037033,-0.264699221,1,0,0,,0,43,43,159,1,CUDDY,C,old,z,./images/CUDDY.png,,,,,,,,,,,,,,,,,,,,,,,,,,,,,,,,,
,,,,,,,,,,,,,,,,,6111753718d92612abc8f41c,31,2022-02-12_14h24.04.209,lexical_decision_task_DD_L3,2021.2.3,Linux aarch64,59.9880024,,,,,,,,,,0.6593,1,,,,,,,,,,,,,,,0,0.387962977,-0.267476877,1,0,0,0.6593,button_right_main,0.387962977,-0.267476877,1,0,0,,0,44,44,45,1,KITTEN,LB,old,m,./images/KITTENLB.png,,,,,,,,,,,,,,,,,,,,,,,,,,,,,,,,,
,,,,,,,,,,,,,,,,,6111753718d92612abc8f41c,31,2022-02-12_14h24.04.209,lexical_decision_task_DD_L3,2021.2.3,Linux aarch64,59.9880024,,,,,,,,,,0.9129,1,,,,,,,,,,,,,,,0,-0.378703703,-0.252662182,1,0,0,0.9129,button_left_main,-0.378703703,-0.252662182,1,0,0,,0,45,45,155,1,CANGY,LB,old,z,./images/CANGYLB.png,,,,,,,,,,,,,,,,,,,,,,,,,,,,,,,,,
,,,,,,,,,,,,,,,,,6111753718d92612abc8f41c,31,2022-02-12_14h24.04.209,lexical_decision_task_DD_L3,2021.2.3,Linux aarch64,59.9880024,,,,,,,,,,0.7775,1,,,,,,,,,,,,,,,0,-0.372222205,-0.267476877,1,0,0,0.7775,button_left_main,-0.372222205,-0.267476877,1,0,0,,0,46,46,126,1,GUELS,C,old,z,./images/GUELS.png,,,,,,,,,,,,,,,,,,,,,,,,,,,,,,,,,
,,,,,,,,,,,,,,,,,6111753718d92612abc8f41c,31,2022-02-12_14h24.04.209,lexical_decision_task_DD_L3,2021.2.3,Linux aarch64,59.9880024,,,,,,,,,,0.8778,1,,,,,,,,,,,,,,,0,0.398148139,-0.255439838,1,0,0,0.8778,button_right_main,0.398148139,-0.255439838,1,0,0,,0,47,47,55,1,MUFFIN,C,old,m,./images/MUFFIN.png,,,,,,,,,,,,,,,,,,,,,,,,,,,,,,,,,
,,,,,,,,,,,,,,,,,6111753718d92612abc8f41c,31,2022-02-12_14h24.04.209,lexical_decision_task_DD_L3,2021.2.3,Linux aarch64,59.9880024,,,,,,,,,,0.7938,1,,,,,,,,,,,,,,,0,0.381481489,-0.26006945,1,0,0,0.7938,button_right_main,0.381481489,-0.26006945,1,0,0,,0,48,48,14,1,PICKLE,HB,old,m,./images/PICKLEHB.png,,,,,,,,,,,,,,,,,,,,,,,,,,,,,,,,,
,,,,,,,,,,,,,,,,,6111753718d92612abc8f41c,31,2022-02-12_14h24.04.209,lexical_decision_task_DD_L3,2021.2.3,Linux aarch64,59.9880024,,,,,,,,,,1.1091,1,,,,,,,,,,,,,,,0,-0.367592593,-0.280439854,1,0,0,1.1091,button_left_main,-0.367592593,-0.280439854,1,0,0,,0,49,49,110,1,CRUNK,LB,old,z,./images/CRUNKLB.png,,,,,,,,,,,,,,,,,,,,,,,,,,,,,,,,,
,,,,,,,,,,,,,,,,,6111753718d92612abc8f41c,31,2022-02-12_14h24.04.209,lexical_decision_task_DD_L3,2021.2.3,Linux aarch64,59.9880024,,,,,,,,,,1.3635,0,,,,,,,,,,,,,,,0,0.384259303,-0.265625,1,0,0,1.3635,button_right_main,0.384259303,-0.265625,1,0,0,,0,50,50,109,1,BURGE,HB,old,z,./images/BURGEHB.png,,,,,,,,,,,,,,,,,,,,,,,,,,,,,,,,,
,,,,,,,,,,,,,,,,,6111753718d92612abc8f41c,31,2022-02-12_14h24.04.209,lexical_decision_task_DD_L3,2021.2.3,Linux aarch64,59.9880024,,,,,,,,,,1.0976,1,,,,,,,,,,,,,,,0,-0.325925926,-0.300810178,1,0,0,1.0976,button_left_main,-0.325925926,-0.300810178,1,0,0,,0,51,51,85,1,CHULK,HB,old,z,./images/CHULKHB.png,,,,,,,,,,,,,,,,,,,,,,,,,,,,,,,,,
,,,,,,,,,,,,,,,,,6111753718d92612abc8f41c,31,2022-02-12_14h24.04.209,lexical_decision_task_DD_L3,2021.2.3,Linux aarch64,59.9880024,,,,,,,,,,0.9978,1,,,,,,,,,,,,,,,0,-0.36944444,-0.279513915,1,0,0,0.9978,button_left_main,-0.36944444,-0.279513915,1,0,0,,0,52,52,111,1,HOSSE,C,old,z,./images/HOSSE.png,,,,,,,,,,,,,,,,,,,,,,,,,,,,,,,,,
,,,,,,,,,,,,,,,,,6111753718d92612abc8f41c,31,2022-02-12_14h24.04.209,lexical_decision_task_DD_L3,2021.2.3,Linux aarch64,59.9880024,,,,,,,,,,0.9127,1,,,,,,,,,,,,,,,0,-0.36388889,-0.264699221,1,0,0,0.9127,button_left_main,-0.36388889,-0.264699221,1,0,0,,0,53,53,132,1,SCIFF,C,old,z,./images/SCIFF.png,,,,,,,,,,,,,,,,,,,,,,,,,,,,,,,,,
,,,,,,,,,,,,,,,,,6111753718d92612abc8f41c,31,2022-02-12_14h24.04.209,lexical_decision_task_DD_L3,2021.2.3,Linux aarch64,59.9880024,,,,,,,,,,0.7079,1,,,,,,,,,,,,,,,0,0.392592589,-0.253587961,1,0,0,0.7079,button_right_main,0.392592589,-0.253587961,1,0,0,,0,54,54,64,1,JELLY,C,old,m,./images/JELLY.png,,,,,,,,,,,,,,,,,,,,,,,,,,,,,,,,,
,,,,,,,,,,,,,,,,,6111753718d92612abc8f41c,31,2022-02-12_14h24.04.209,lexical_decision_task_DD_L3,2021.2.3,Linux aarch64,59.9880024,,,,,,,,,,0.8648,1,,,,,,,,,,,,,,,0,-0.366666665,-0.274884303,1,0,0,0.8648,button_left_main,-0.366666665,-0.274884303,1,0,0,,0,55,55,161,1,BLAPS,LB,old,z,./images/BLAPSLB.png,,,,,,,,,,,,,,,,,,,,,,,,,,,,,,,,,
,,,,,,,,,,,,,,,,,6111753718d92612abc8f41c,31,2022-02-12_14h24.04.209,lexical_decision_task_DD_L3,2021.2.3,Linux aarch64,59.9880024,,,,,,,,,,0.8925,1,,,,,,,,,,,,,,,0,-0.383333335,-0.257291714,1,0,0,0.8925,button_left_main,-0.383333335,-0.257291714,1,0,0,,0,56,56,147,1,ZOLES,C,old,z,./images/ZOLES.png,,,,,,,,,,,,,,,,,,,,,,,,,,,,,,,,,
,,,,,,,,,,,,,,,,,6111753718d92612abc8f41c,31,2022-02-12_14h24.04.209,lexical_decision_task_DD_L3,2021.2.3,Linux aarch64,59.9880024,,,,,,,,,,1.4098,1,,,,,,,,,,,,,,,0,0.382407427,-0.263773203,1,0,0,1.4098,button_right_main,0.382407427,-0.263773203,1,0,0,,0,57,57,7,1,PAINT,C,old,m,./images/PAINT.png,,,,,,,,,,,,,,,,,,,,,,,,,,,,,,,,,
,,,,,,,,,,,,,,,,,6111753718d92612abc8f41c,31,2022-02-12_14h24.04.209,lexical_decision_task_DD_L3,2021.2.3,Linux aarch64,59.9880024,,,,,,,,,,0.812,1,,,,,,,,,,,,,,,0,0.398148139,-0.263773203,1,0,0,0.812,button_right_main,0.398148139,-0.263773203,1,0,0,,0,58,58,76,1,INFANT,C,old,m,./images/INFANT.png,,,,,,,,,,,,,,,,,,,,,,,,,,,,,,,,,
,,,,,,,,,,,,,,,,,6111753718d92612abc8f41c,31,2022-02-12_14h24.04.209,lexical_decision_task_DD_L3,2021.2.3,Linux aarch64,59.9880024,,,,,,,,,,1.1275,1,,,,,,,,,,,,,,,0,-0.36944444,-0.288773139,1,0,0,1.1275,button_left_main,-0.36944444,-0.288773139,1,0,0,,0,59,59,133,1,POWDY,HB,old,z,./images/POWDYHB.png,,,,,,,,,,,,,,,,,,,,,,,,,,,,,,,,,
,,,,,,,,,,,,,,,,,6111753718d92612abc8f41c,31,2022-02-12_14h24.04.209,lexical_decision_task_DD_L3,2021.2.3,Linux aarch64,59.9880024,,,,,,,,,,0.7437,1,,,,,,,,,,,,,,,0,0.387962977,-0.272106489,1,0,0,0.7437,button_right_main,0.387962977,-0.272106489,1,0,0,,0,60,60,9,1,RHINO,LB,old,m,./images/RHINOLB.png,,,,,,,,,,,,,,,,,,,,,,,,,,,,,,,,,
,,,,,,,,,,,,,,,,,6111753718d92612abc8f41c,31,2022-02-12_14h24.04.209,lexical_decision_task_DD_L3,2021.2.3,Linux aarch64,59.9880024,,,,,,,,,,0.7784,1,,,,,,,,,,,,,,,0,0.385185242,-0.265625,1,0,0,0.7784,button_right_main,0.385185242,-0.265625,1,0,0,,0,61,61,22,1,MELON,C,old,m,./images/MELON.png,,,,,,,,,,,,,,,,,,,,,,,,,,,,,,,,,
,,,,,,,,,,,,,,,,,6111753718d92612abc8f41c,31,2022-02-12_14h24.04.209,lexical_decision_task_DD_L3,2021.2.3,Linux aarch64,59.9880024,,,,,,,,,,1.31,0,,,,,,,,,,,,,,,0,0.387037039,-0.254513899,1,0,0,1.31,button_right_main,0.387037039,-0.254513899,1,0,0,,0,62,62,139,1,BLEAR,HB,old,z,./images/BLEARHB.png,,,,,,,,,,,,,,,,,,,,,,,,,,,,,,,,,
,,,,,,,,,,,,,,,,,6111753718d92612abc8f41c,31,2022-02-12_14h24.04.209,lexical_decision_task_DD_L3,2021.2.3,Linux aarch64,59.9880024,,,,,,,,,,0.8997,1,,,,,,,,,,,,,,,0,0.387037039,-0.259143511,1,0,0,0.8997,button_right_main,0.387037039,-0.259143511,1,0,0,,0,63,63,26,1,SMOKER,HB,old,m,./images/SMOKERHB.png,,,,,,,,,,,,,,,,,,,,,,,,,,,,,,,,,
,,,,,,,,,,,,,,,,,6111753718d92612abc8f41c,31,2022-02-12_14h24.04.209,lexical_decision_task_DD_L3,2021.2.3,Linux aarch64,59.9880024,,,,,,,,,,0.8104,1,,,,,,,,,,,,,,,0,0.381481489,-0.257291714,1,0,0,0.8104,button_right_main,0.381481489,-0.257291714,1,0,0,,0,64,64,56,1,PACKET,HB,old,m,./images/PACKETHB.png,,,,,,,,,,,,,,,,,,,,,,,,,,,,,,,,,
,,,,,,,,,,,,,,,,,6111753718d92612abc8f41c,31,2022-02-12_14h24.04.209,lexical_decision_task_DD_L3,2021.2.3,Linux aarch64,59.9880024,,,,,,,,,,0.9765,1,,,,,,,,,,,,,,,0,0.402777831,-0.245254676,1,0,0,0.9765,button_right_main,0.402777831,-0.245254676,1,0,0,,0,65,65,50,1,MALLET,HB,old,m,./images/MALLETHB.png,,,,,,,,,,,,,,,,,,,,,,,,,,,,,,,,,
,,,,,,,,,,,,,,,,,6111753718d92612abc8f41c,31,2022-02-12_14h24.04.209,lexical_decision_task_DD_L3,2021.2.3,Linux aarch64,59.9880024,,,,,,,,,,0.9944,1,,,,,,,,,,,,,,,0,-0.373148143,-0.28229181,1,0,0,0.9944,button_left_main,-0.373148143,-0.28229181,1,0,0,,0,66,66,99,1,BACKY,C,old,z,./images/BACKY.png,,,,,,,,,,,,,,,,,,,,,,,,,,,,,,,,,
,,,,,,,,,,,,,,,,,6111753718d92612abc8f41c,31,2022-02-12_14h24.04.209,lexical_decision_task_DD_L3,2021.2.3,Linux aarch64,59.9880024,,,,,,,,,,0.7688,1,,,,,,,,,,,,,,,0,0.391666651,-0.266550938,1,0,0,0.7688,button_right_main,0.391666651,-0.266550938,1,0,0,,0,67,67,6,1,SQUARE,LB,old,m,./images/SQUARELB.png,,,,,,,,,,,,,,,,,,,,,,,,,,,,,,,,,
,,,,,,,,,,,,,,,,,6111753718d92612abc8f41c,31,2022-02-12_14h24.04.209,lexical_decision_task_DD_L3,2021.2.3,Linux aarch64,59.9880024,,,,,,,,,,0.9651,1,,,,,,,,,,,,,,,0,-0.350925922,-0.292476892,1,0,0,0.9651,button_left_main,-0.350925922,-0.292476892,1,0,0,,0,68,68,152,1,FRAIN,LB,old,z,./images/FRAINLB.png,,,,,,,,,,,,,,,,,,,,,,,,,,,,,,,,,
,,,,,,,,,,,,,,,,,6111753718d92612abc8f41c,31,2022-02-12_14h24.04.209,lexical_decision_task_DD_L3,2021.2.3,Linux aarch64,59.9880024,,,,,,,,,,1.6631,1,,,,,,,,,,,,,,,0,-0.375925908,-0.268402815,1,0,0,1.6631,button_left_main,-0.375925908,-0.268402815,1,0,0,,0,69,69,136,1,WERVE,HB,old,z,./images/WERVEHB.png,,,,,,,,,,,,,,,,,,,,,,,,,,,,,,,,,
,,,,,,,,,,,,,,,,,6111753718d92612abc8f41c,31,2022-02-12_14h24.04.209,lexical_decision_task_DD_L3,2021.2.3,Linux aarch64,59.9880024,,,,,,,,,,0.8618,1,,,,,,,,,,,,,,,0,-0.41759259,-0.248958349,1,0,0,0.8618,button_left_main,-0.41759259,-0.248958349,1,0,0,,0,70,70,143,1,MONGS,LB,old,z,./images/MONGSLB.png,,,,,,,,,,,,,,,,,,,,,,,,,,,,,,,,,
,,,,,,,,,,,,,,,,,6111753718d92612abc8f41c,31,2022-02-12_14h24.04.209,lexical_decision_task_DD_L3,2021.2.3,Linux aarch64,59.9880024,,,,,,,,,,1.427,1,,,,,,,,,,,,,,,0,-0.38611111,-0.261921326,1,0,0,1.427,button_left_main,-0.38611111,-0.261921326,1,0,0,,0,71,71,115,1,MAWNS,HB,old,z,./images/MAWNSHB.png,,,,,,,,,,,,,,,,,,,,,,,,,,,,,,,,,
,,,,,,,,,,,,,,,,,6111753718d92612abc8f41c,31,2022-02-12_14h24.04.209,lexical_decision_task_DD_L3,2021.2.3,Linux aarch64,59.9880024,,,,,,,,,,0.8599,1,,,,,,,,,,,,,,,0,0.402777831,-0.247106473,1,0,0,0.8599,button_right_main,0.402777831,-0.247106473,1,0,0,,0,72,72,54,1,TRIPOD,LB,old,m,./images/TRIPODLB.png,,,,,,,,,,,,,,,,,,,,,,,,,,,,,,,,,
,,,,,,,,,,,,,,,,,6111753718d92612abc8f41c,31,2022-02-12_14h24.04.209,lexical_decision_task_DD_L3,2021.2.3,Linux aarch64,59.9880024,,,,,,,,,,1.5147,1,,,,,,,,,,,,,,,0,-0.391666661,-0.262847265,1,0,0,1.5147,button_left_main,-0.391666661,-0.262847265,1,0,0,,0,73,73,100,1,DRIBS,HB,old,z,./images/DRIBSHB.png,,,,,,,,,,,,,,,,,,,,,,,,,,,,,,,,,
,,,,,,,,,,,,,,,,,6111753718d92612abc8f41c,31,2022-02-12_14h24.04.209,lexical_decision_task_DD_L3,2021.2.3,Linux aarch64,59.9880024,,,,,,,,,,0.827,1,,,,,,,,,,,,,,,0,0.386111101,-0.269328753,1,0,0,0.827,button_right_main,0.386111101,-0.269328753,1,0,0,,0,74,74,30,1,STORM,LB,old,m,./images/STORMLB.png,,,,,,,,,,,,,,,,,,,,,,,,,,,,,,,,,
,,,,,,,,,,,,,,,,,6111753718d92612abc8f41c,31,2022-02-12_14h24.04.209,lexical_decision_task_DD_L3,2021.2.3,Linux aarch64,59.9880024,,,,,,,,,,0.8583,1,,,,,,,,,,,,,,,0,0.405555566,-0.247106473,1,0,0,0.8583,button_right_main,0.405555566,-0.247106473,1,0,0,,0,75,75,25,1,WRIST,C,old,m,./images/WRIST.png,,,,,,,,,,,,,,,,,,,,,,,,,,,,,,,,,
,,,,,,,,,,,,,,,,,6111753718d92612abc8f41c,31,2022-02-12_14h24.04.209,lexical_decision_task_DD_L3,2021.2.3,Linux aarch64,59.9880024,,,,,,,,,,1.068,1,,,,,,,,,,,,,,,0,0.375,-0.269328753,1,0,0,1.068,button_right_main,0.375,-0.269328753,1,0,0,,0,76,76,11,1,BONNET,HB,old,m,./images/BONNETHB.png,,,,,,,,,,,,,,,,,,,,,,,,,,,,,,,,,
,,,,,,,,,,,,,,,,,6111753718d92612abc8f41c,31,2022-02-12_14h24.04.209,lexical_decision_task_DD_L3,2021.2.3,Linux aarch64,59.9880024,,,,,,,,,,0.6525,1,,,,,,,,,,,,,,,0,0.381481489,-0.266550938,1,0,0,0.6525,button_right_main,0.381481489,-0.266550938,1,0,0,,0,77,77,18,1,JAGUAR,LB,old,m,./images/JAGUARLB.png,,,,,,,,,,,,,,,,,,,,,,,,,,,,,,,,,
,,,,,,,,,,,,,,,,,6111753718d92612abc8f41c,31,2022-02-12_14h24.04.209,lexical_decision_task_DD_L3,2021.2.3,Linux aarch64,59.9880024,,,,,,,,,,1.0115,1,,,,,,,,,,,,,,,0,-0.373148143,-0.280439854,1,0,0,1.0115,button_left_main,-0.373148143,-0.280439854,1,0,0,,0,78,78,163,1,GAMBA,HB,old,z,./images/GAMBAHB.png,,,,,,,,,,,,,,,,,,,,,,,,,,,,,,,,,
,,,,,,,,,,,,,,,,,6111753718d92612abc8f41c,31,2022-02-12_14h24.04.209,lexical_decision_task_DD_L3,2021.2.3,Linux aarch64,59.9880024,,,,,,,,,,0.9247,1,,,,,,,,,,,,,,,0,-0.38611111,-0.257291714,1,0,0,0.9247,button_left_main,-0.38611111,-0.257291714,1,0,0,,0,79,79,150,1,NOOLS,C,old,z,./images/NOOLS.png,,,,,,,,,,,,,,,,,,,,,,,,,,,,,,,,,
,,,,,,,,,,,,,,,,,6111753718d92612abc8f41c,31,2022-02-12_14h24.04.209,lexical_decision_task_DD_L3,2021.2.3,Linux aarch64,59.9880024,,,,,,,,,,0.8124,1,,,,,,,,,,,,,,,0,0.390740792,-0.249884288,1,0,0,0.8124,button_right_main,0.390740792,-0.249884288,1,0,0,,0,80,80,2,1,BEARD,HB,old,m,./images/BEARDHB.png,,,,,,,,,,,,,,,,,,,,,,,,,,,,,,,,,
,,,,,,,,,,,,,,,,,6111753718d92612abc8f41c,31,2022-02-12_14h24.04.209,lexical_decision_task_DD_L3,2021.2.3,Linux aarch64,59.9880024,,,,,,,,,,0.9124,1,,,,,,,,,,,,,,,0,0.384259303,-0.267476877,1,0,0,0.9124,button_right_main,0.384259303,-0.267476877,1,0,0,,0,81,81,65,1,FARMER,HB,old,m,./images/FARMERHB.png,,,,,,,,,,,,,,,,,,,,,,,,,,,,,,,,,
,,,,,,,,,,,,,,,,,6111753718d92612abc8f41c,31,2022-02-12_14h24.04.209,lexical_decision_task_DD_L3,2021.2.3,Linux aarch64,59.9880024,,,,,,,,,,0.8929,1,,,,,,,,,,,,,,,0,0.386111101,-0.246180693,1,0,0,0.8929,button_right_main,0.386111101,-0.246180693,1,0,0,,0,82,82,32,1,BARREL,HB,old,m,./images/BARRELHB.png,,,,,,,,,,,,,,,,,,,,,,,,,,,,,,,,,
,,,,,,,,,,,,,,,,,6111753718d92612abc8f41c,31,2022-02-12_14h24.04.209,lexical_decision_task_DD_L3,2021.2.3,Linux aarch64,59.9880024,,,,,,,,,,0.8427,1,,,,,,,,,,,,,,,0,0.377777894,-0.260995388,1,0,0,0.8427,button_right_main,0.047222217,-0.386921406,1,0,0,,0,83,83,71,1,PIMPLE,HB,old,m,./images/PIMPLEHB.png,break_done_button,,,,,,,,,,,,,,,,,,,,,,,,,,,,,,,,
,,,,,,,,,,,,,,,,,6111753718d92612abc8f41c,31,2022-02-12_14h24.04.209,lexical_decision_task_DD_L3,2021.2.3,Linux aarch64,59.9880024,,,,,,,,,,0.9786,1,,,,,,,,,,,,,,,0,-0.361111104,-0.274884303,1,0,0,0.9786,button_left_main,-0.361111104,-0.274884303,1,0,0,,0,84,84,89,1,DRIEK,LB,old,z,./images/DRIEKLB.png,,,,,,,,,,,,,,,,,,,,,,,,,,,,,,,,,
,,,,,,,,,,,,,,,,,6111753718d92612abc8f41c,31,2022-02-12_14h24.04.209,lexical_decision_task_DD_L3,2021.2.3,Linux aarch64,59.9880024,,,,,,,,,,1.1106,1,,,,,,,,,,,,,,,0,-0.362037033,-0.291550954,1,0,0,1.1106,button_left_main,-0.362037033,-0.291550954,1,0,0,,0,85,85,128,1,GRIFT,LB,old,z,./images/GRIFTLB.png,,,,,,,,,,,,,,,,,,,,,,,,,,,,,,,,,
,,,,,,,,,,,,,,,,,6111753718d92612abc8f41c,31,2022-02-12_14h24.04.209,lexical_decision_task_DD_L3,2021.2.3,Linux aarch64,59.9880024,,,,,,,,,,0.9962,1,,,,,,,,,,,,,,,0,-0.378703703,-0.262847265,1,0,0,0.9962,button_left_main,-0.378703703,-0.262847265,1,0,0,,0,86,86,102,1,DULLE,C,old,z,./images/DULLE.png,,,,,,,,,,,,,,,,,,,,,,,,,,,,,,,,,
,,,,,,,,,,,,,,,,,6111753718d92612abc8f41c,31,2022-02-12_14h24.04.209,lexical_decision_task_DD_L3,2021.2.3,Linux aarch64,59.9880024,,,,,,,,,,0.7967,1,,,,,,,,,,,,,,,0,-0.354629626,-0.270254771,1,0,0,0.7967,button_left_main,-0.354629626,-0.270254771,1,0,0,,0,87,87,122,1,BLOOT,LB,old,z,./images/BLOOTLB.png,,,,,,,,,,,,,,,,,,,,,,,,,,,,,,,,,
,,,,,,,,,,,,,,,,,6111753718d92612abc8f41c,31,2022-02-12_14h24.04.209,lexical_decision_task_DD_L3,2021.2.3,Linux aarch64,59.9880024,,,,,,,,,,0.7294,1,,,,,,,,,,,,,,,0,0.404629628,-0.234143575,1,0,0,0.7294,button_right_main,0.404629628,-0.234143575,1,0,0,,0,88,88,40,1,SWING,C,old,m,./images/SWING.png,,,,,,,,,,,,,,,,,,,,,,,,,,,,,,,,,
,,,,,,,,,,,,,,,,,6111753718d92612abc8f41c,31,2022-02-12_14h24.04.209,lexical_decision_task_DD_L3,2021.2.3,Linux aarch64,59.9880024,,,,,,,,,,1.147,1,,,,,,,,,,,,,,,0,-0.370370368,-0.257291714,1,0,0,1.147,button_left_main,-0.370370368,-0.257291714,1,0,0,,0,89,89,158,1,EGECT,LB,old,z,./images/EGECTLB.png,,,,,,,,,,,,,,,,,,,,,,,,,,,,,,,,,
,,,,,,,,,,,,,,,,,6111753718d92612abc8f41c,31,2022-02-12_14h24.04.209,lexical_decision_task_DD_L3,2021.2.3,Linux aarch64,59.9880024,,,,,,,,,,0.8868,1,,,,,,,,,,,,,,,0,-0.356481483,-0.285069466,1,0,0,0.8868,button_left_main,-0.356481483,-0.285069466,1,0,0,,0,90,90,84,1,HAXES,C,old,z,./images/HAXES.png,,,,,,,,,,,,,,,,,,,,,,,,,,,,,,,,,
,,,,,,,,,,,,,,,,,6111753718d92612abc8f41c,31,2022-02-12_14h24.04.209,lexical_decision_task_DD_L3,2021.2.3,Linux aarch64,59.9880024,,,,,,,,,,0.86,1,,,,,,,,,,,,,,,0,0.38055555,-0.253587961,1,0,0,0.86,button_right_main,0.38055555,-0.253587961,1,0,0,,0,91,91,60,1,TWINS,LB,old,m,./images/TWINSLB.png,,,,,,,,,,,,,,,,,,,,,,,,,,,,,,,,,
,,,,,,,,,,,,,,,,,6111753718d92612abc8f41c,31,2022-02-12_14h24.04.209,lexical_decision_task_DD_L3,2021.2.3,Linux aarch64,59.9880024,,,,,,,,,,1.4512,1,,,,,,,,,,,,,,,0,0.379629612,-0.259143511,1,0,0,1.4512,button_right_main,0.379629612,-0.259143511,1,0,0,,0,92,92,74,1,CEMENT,HB,old,m,./images/CEMENTHB.png,,,,,,,,,,,,,,,,,,,,,,,,,,,,,,,,,
,,,,,,,,,,,,,,,,,6111753718d92612abc8f41c,31,2022-02-12_14h24.04.209,lexical_decision_task_DD_L3,2021.2.3,Linux aarch64,59.9880024,,,,,,,,,,1.9954,1,,,,,,,,,,,,,,,0,0.378703753,-0.258217732,1,0,0,1.9954,button_right_main,0.378703753,-0.258217732,1,0,0,,0,93,93,73,1,SNACK,C,old,m,./images/SNACK.png,,,,,,,,,,,,,,,,,,,,,,,,,,,,,,,,,
,,,,,,,,,,,,,,,,,6111753718d92612abc8f41c,31,2022-02-12_14h24.04.209,lexical_decision_task_DD_L3,2021.2.3,Linux aarch64,59.9880024,,,,,,,,,,1.1226,1,,,,,,,,,,,,,,,0,0.361111164,-0.270254771,1,0,0,1.1226,button_right_main,0.361111164,-0.270254771,1,0,0,,0,94,94,77,1,COUCH,HB,old,m,./images/COUCHHB.png,,,,,,,,,,,,,,,,,,,,,,,,,,,,,,,,,
,,,,,,,,,,,,,,,,,6111753718d92612abc8f41c,31,2022-02-12_14h24.04.209,lexical_decision_task_DD_L3,2021.2.3,Linux aarch64,59.9880024,,,,,,,,,,1.1272,1,,,,,,,,,,,,,,,0,-0.371296297,-0.250810226,1,0,0,1.1272,button_left_main,-0.371296297,-0.250810226,1,0,0,,0,95,95,123,1,SEDGE,C,old,z,./images/SEDGE.png,,,,,,,,,,,,,,,,,,,,,,,,,,,,,,,,,
,,,,,,,,,,,,,,,,,6111753718d92612abc8f41c,31,2022-02-12_14h24.04.209,lexical_decision_task_DD_L3,2021.2.3,Linux aarch64,59.9880024,,,,,,,,,,1.0472,1,,,,,,,,,,,,,,,0,-0.362037033,-0.283217589,1,0,0,1.0472,button_left_main,-0.362037033,-0.283217589,1,0,0,,0,96,96,121,1,CEERS,HB,old,z,./images/CEERSHB.png,,,,,,,,,,,,,,,,,,,,,,,,,,,,,,,,,
,,,,,,,,,,,,,,,,,6111753718d92612abc8f41c,31,2022-02-12_14h24.04.209,lexical_decision_task_DD_L3,2021.2.3,Linux aarch64,59.9880024,,,,,,,,,,0.8446,1,,,,,,,,,,,,,,,0,0.376851877,-0.248032411,1,0,0,0.8446,button_right_main,0.376851877,-0.248032411,1,0,0,,0,97,97,62,1,PURSE,HB,old,m,./images/PURSEHB.png,,,,,,,,,,,,,,,,,,,,,,,,,,,,,,,,,
,,,,,,,,,,,,,,,,,6111753718d92612abc8f41c,31,2022-02-12_14h24.04.209,lexical_decision_task_DD_L3,2021.2.3,Linux aarch64,59.9880024,,,,,,,,,,0.7803,1,,,,,,,,,,,,,,,0,0.359259288,-0.257291714,1,0,0,0.7803,button_right_main,0.359259288,-0.257291714,1,0,0,,0,98,98,3,1,FINGER,LB,old,m,./images/FINGERLB.png,,,,,,,,,,,,,,,,,,,,,,,,,,,,,,,,,
,,,,,,,,,,,,,,,,,6111753718d92612abc8f41c,31,2022-02-12_14h24.04.209,lexical_decision_task_DD_L3,2021.2.3,Linux aarch64,59.9880024,,,,,,,,,,0.8621,1,,,,,,,,,,,,,,,0,0.361111164,-0.255439838,1,0,0,0.8621,button_right_main,0.361111164,-0.255439838,1,0,0,,0,99,99,67,1,SAILOR,C,old,m,./images/SAILOR.png,,,,,,,,,,,,,,,,,,,,,,,,,,,,,,,,,
,,,,,,,,,,,,,,,,,6111753718d92612abc8f41c,31,2022-02-12_14h24.04.209,lexical_decision_task_DD_L3,2021.2.3,Linux aarch64,59.9880024,,,,,,,,,,0.9187,1,,,,,,,,,,,,,,,0,0.373148203,-0.249884288,1,0,0,0.9187,button_right_main,0.373148203,-0.249884288,1,0,0,,0,100,100,33,1,MAGGOT,LB,old,m,./images/MAGGOTLB.png,,,,,,,,,,,,,,,,,,,,,,,,,,,,,,,,,
,,,,,,,,,,,,,,,,,6111753718d92612abc8f41c,31,2022-02-12_14h24.04.209,lexical_decision_task_DD_L3,2021.2.3,Linux aarch64,59.9880024,,,,,,,,,,0.8838,1,,,,,,,,,,,,,,,0,-0.368518511,-0.27118055,1,0,0,0.8838,button_left_main,-0.368518511,-0.27118055,1,0,0,,0,101,101,93,1,SMONE,C,old,z,./images/SMONE.png,,,,,,,,,,,,,,,,,,,,,,,,,,,,,,,,,
,,,,,,,,,,,,,,,,,6111753718d92612abc8f41c,31,2022-02-12_14h24.04.209,lexical_decision_task_DD_L3,2021.2.3,Linux aarch64,59.9880024,,,,,,,,,,0.8806,1,,,,,,,,,,,,,,,0,0.388888915,-0.244328737,1,0,0,0.8806,button_right_main,0.388888915,-0.244328737,1,0,0,,0,102,102,80,1,WEASEL,HB,old,m,./images/WEASELHB.png,,,,,,,,,,,,,,,,,,,,,,,,,,,,,,,,,
,,,,,,,,,,,,,,,,,6111753718d92612abc8f41c,31,2022-02-12_14h24.04.209,lexical_decision_task_DD_L3,2021.2.3,Linux aarch64,59.9880024,,,,,,,,,,0.7287,1,,,,,,,,,,,,,,,0,0.406481504,-0.229513884,1,0,0,0.7287,button_right_main,0.406481504,-0.229513884,1,0,0,,0,103,103,21,1,KIDNEY,LB,old,m,./images/KIDNEYLB.png,,,,,,,,,,,,,,,,,,,,,,,,,,,,,,,,,
,,,,,,,,,,,,,,,,,6111753718d92612abc8f41c,31,2022-02-12_14h24.04.209,lexical_decision_task_DD_L3,2021.2.3,Linux aarch64,59.9880024,,,,,,,,,,0.9609,1,,,,,,,,,,,,,,,0,-0.375925908,-0.280439854,1,0,0,0.9609,button_left_main,-0.375925908,-0.280439854,1,0,0,,0,104,104,160,1,VEETS,HB,old,z,./images/VEETSHB.png,,,,,,,,,,,,,,,,,,,,,,,,,,,,,,,,,
,,,,,,,,,,,,,,,,,6111753718d92612abc8f41c,31,2022-02-12_14h24.04.209,lexical_decision_task_DD_L3,2021.2.3,Linux aarch64,59.9880024,,,,,,,,,,0.7279,1,,,,,,,,,,,,,,,0,0.374074062,-0.250810226,1,0,0,0.7279,button_right_main,0.374074062,-0.250810226,1,0,0,,0,105,105,42,1,FOLDER,LB,old,m,./images/FOLDERLB.png,,,,,,,,,,,,,,,,,,,,,,,,,,,,,,,,,
,,,,,,,,,,,,,,,,,6111753718d92612abc8f41c,31,2022-02-12_14h24.04.209,lexical_decision_task_DD_L3,2021.2.3,Linux aarch64,59.9880024,,,,,,,,,,0.7802,1,,,,,,,,,,,,,,,0,0.373148203,-0.248958349,1,0,0,0.7802,button_right_main,0.373148203,-0.248958349,1,0,0,,0,106,106,23,1,WALRUS,HB,old,m,./images/WALRUSHB.png,,,,,,,,,,,,,,,,,,,,,,,,,,,,,,,,,
,,,,,,,,,,,,,,,,,6111753718d92612abc8f41c,31,2022-02-12_14h24.04.209,lexical_decision_task_DD_L3,2021.2.3,Linux aarch64,59.9880024,,,,,,,,,,0.8795,1,,,,,,,,,,,,,,,0,-0.36944444,-0.285995404,1,0,0,0.8795,button_left_main,-0.36944444,-0.285995404,1,0,0,,0,107,107,91,1,SHENS,HB,old,z,./images/SHENSHB.png,,,,,,,,,,,,,,,,,,,,,,,,,,,,,,,,,
,,,,,,,,,,,,,,,,,6111753718d92612abc8f41c,31,2022-02-12_14h24.04.209,lexical_decision_task_DD_L3,2021.2.3,Linux aarch64,59.9880024,,,,,,,,,,1.3583,1,,,,,,,,,,,,,,,0,-0.381481479,-0.252662182,1,0,0,1.3583,button_left_main,-0.381481479,-0.252662182,1,0,0,,0,108,108,137,1,JOOST,LB,old,z,./images/JOOSTLB.png,,,,,,,,,,,,,,,,,,,,,,,,,,,,,,,,,
,,,,,,,,,,,,,,,,,6111753718d92612abc8f41c,31,2022-02-12_14h24.04.209,lexical_decision_task_DD_L3,2021.2.3,Linux aarch64,59.9880024,,,,,,,,,,0.7538,1,,,,,,,,,,,,,,,0,0.381481489,-0.257291714,1,0,0,0.7538,button_right_main,0.381481489,-0.257291714,1,0,0,,0,109,109,75,1,GRAIN,LB,old,m,./images/GRAINLB.png,,,,,,,,,,,,,,,,,,,,,,,,,,,,,,,,,
,,,,,,,,,,,,,,,,,6111753718d92612abc8f41c,31,2022-02-12_14h24.04.209,lexical_decision_task_DD_L3,2021.2.3,Linux aarch64,59.9880024,,,,,,,,,,1.9521,1,,,,,,,,,,,,,,,0,0.387037039,-0.253587961,1,0,0,1.9521,button_right_main,0.387037039,-0.253587961,1,0,0,,0,110,110,37,1,BIRTH,C,old,m,./images/BIRTH.png,,,,,,,,,,,,,,,,,,,,,,,,,,,,,,,,,
,,,,,,,,,,,,,,,,,6111753718d92612abc8f41c,31,2022-02-12_14h24.04.209,lexical_decision_task_DD_L3,2021.2.3,Linux aarch64,59.9880024,,,,,,,,,,1.3598,1,,,,,,,,,,,,,,,0,0.391666651,-0.241550922,1,0,0,1.3598,button_right_main,0.391666651,-0.241550922,1,0,0,,0,111,111,68,1,TORCH,HB,old,m,./images/TORCHHB.png,,,,,,,,,,,,,,,,,,,,,,,,,,,,,,,,,
,,,,,,,,,,,,,,,,,6111753718d92612abc8f41c,31,2022-02-12_14h24.04.209,lexical_decision_task_DD_L3,2021.2.3,Linux aarch64,59.9880024,,,,,,,,,,0.9774,1,,,,,,,,,,,,,,,0,-0.376851847,-0.288773139,1,0,0,0.9774,button_left_main,-0.376851847,-0.288773139,1,0,0,,0,112,112,164,1,SGREW,LB,old,z,./images/SGREWLB.png,,,,,,,,,,,,,,,,,,,,,,,,,,,,,,,,,
,,,,,,,,,,,,,,,,,6111753718d92612abc8f41c,31,2022-02-12_14h24.04.209,lexical_decision_task_DD_L3,2021.2.3,Linux aarch64,59.9880024,,,,,,,,,,0.8104,1,,,,,,,,,,,,,,,0,-0.377777775,-0.290625016,1,0,0,0.8104,button_left_main,-0.377777775,-0.290625016,1,0,0,,0,113,113,90,1,NEAST,C,old,z,./images/NEAST.png,,,,,,,,,,,,,,,,,,,,,,,,,,,,,,,,,
,,,,,,,,,,,,,,,,,6111753718d92612abc8f41c,31,2022-02-12_14h24.04.209,lexical_decision_task_DD_L3,2021.2.3,Linux aarch64,59.9880024,,,,,,,,,,0.7959,1,,,,,,,,,,,,,,,0,-0.375925908,-0.281365792,1,0,0,0.7959,button_left_main,-0.375925908,-0.281365792,1,0,0,,0,114,114,153,1,CLUPS,C,old,z,./images/CLUPS.png,,,,,,,,,,,,,,,,,,,,,,,,,,,,,,,,,
,,,,,,,,,,,,,,,,,6111753718d92612abc8f41c,31,2022-02-12_14h24.04.209,lexical_decision_task_DD_L3,2021.2.3,Linux aarch64,59.9880024,,,,,,,,,,0.7447,1,,,,,,,,,,,,,,,0,0.375925938,-0.252662182,1,0,0,0.7447,button_right_main,0.375925938,-0.252662182,1,0,0,,0,115,115,66,1,SWEAT,LB,old,m,./images/SWEATLB.png,,,,,,,,,,,,,,,,,,,,,,,,,,,,,,,,,
,,,,,,,,,,,,,,,,,6111753718d92612abc8f41c,31,2022-02-12_14h24.04.209,lexical_decision_task_DD_L3,2021.2.3,Linux aarch64,59.9880024,,,,,,,,,,0.7812,1,,,,,,,,,,,,,,,0,-0.351851851,-0.292476892,1,0,0,0.7812,button_left_main,-0.351851851,-0.292476892,1,0,0,,0,116,116,119,1,PAFER,LB,old,z,./images/PAFERLB.png,,,,,,,,,,,,,,,,,,,,,,,,,,,,,,,,,
,,,,,,,,,,,,,,,,,6111753718d92612abc8f41c,31,2022-02-12_14h24.04.209,lexical_decision_task_DD_L3,2021.2.3,Linux aarch64,59.9880024,,,,,,,,,,0.845,1,,,,,,,,,,,,,,,0,-0.375925908,-0.285995404,1,0,0,0.845,button_left_main,-0.375925908,-0.285995404,1,0,0,,0,117,117,148,1,JOMS,HB,old,z,./images/JOMSHB.png,,,,,,,,,,,,,,,,,,,,,,,,,,,,,,,,,
,,,,,,,,,,,,,,,,,6111753718d92612abc8f41c,31,2022-02-12_14h24.04.209,lexical_decision_task_DD_L3,2021.2.3,Linux aarch64,59.9880024,,,,,,,,,,0.9446,1,,,,,,,,,,,,,,,0,0.41481487,-0.226736148,1,0,0,0.9446,button_right_main,0.41481487,-0.226736148,1,0,0,,0,118,118,20,1,CRADLE,HB,old,m,./images/CRADLEHB.png,,,,,,,,,,,,,,,,,,,,,,,,,,,,,,,,,
,,,,,,,,,,,,,,,,,6111753718d92612abc8f41c,31,2022-02-12_14h24.04.209,lexical_decision_task_DD_L3,2021.2.3,Linux aarch64,59.9880024,,,,,,,,,,0.8797,1,,,,,,,,,,,,,,,0,-0.365740736,-0.281365792,1,0,0,0.8797,button_left_main,-0.365740736,-0.281365792,1,0,0,,0,119,119,146,1,MOOST,LB,old,z,./images/MOOSTLB.png,,,,,,,,,,,,,,,,,,,,,,,,,,,,,,,,,
,,,,,,,,,,,,,,,,,6111753718d92612abc8f41c,31,2022-02-12_14h24.04.209,lexical_decision_task_DD_L3,2021.2.3,Linux aarch64,59.9880024,,,,,,,,,,1.0125,1,,,,,,,,,,,,,,,0,-0.382407407,-0.279513915,1,0,0,1.0125,button_left_main,-0.382407407,-0.279513915,1,0,0,,0,120,120,142,1,PLASK,HB,old,z,./images/PLASKHB.png,,,,,,,,,,,,,,,,,,,,,,,,,,,,,,,,,
,,,,,,,,,,,,,,,,,6111753718d92612abc8f41c,31,2022-02-12_14h24.04.209,lexical_decision_task_DD_L3,2021.2.3,Linux aarch64,59.9880024,,,,,,,,,,0.8766,1,,,,,,,,,,,,,,,0,0.408333381,-0.240625143,1,0,0,0.8766,button_right_main,0.408333381,-0.240625143,1,0,0,,0,121,121,8,1,TULIP,HB,old,m,./images/TULIPHB.png,,,,,,,,,,,,,,,,,,,,,,,,,,,,,,,,,
,,,,,,,,,,,,,,,,,6111753718d92612abc8f41c,31,2022-02-12_14h24.04.209,lexical_decision_task_DD_L3,2021.2.3,Linux aarch64,59.9880024,,,,,,,,,,0.7951,1,,,,,,,,,,,,,,,0,-0.355555554,-0.297106504,1,0,0,0.7951,button_left_main,-0.355555554,-0.297106504,1,0,0,,0,122,122,96,1,KEAMS,C,old,z,./images/KEAMS.png,,,,,,,,,,,,,,,,,,,,,,,,,,,,,,,,,
,,,,,,,,,,,,,,,,,6111753718d92612abc8f41c,31,2022-02-12_14h24.04.209,lexical_decision_task_DD_L3,2021.2.3,Linux aarch64,59.9880024,,,,,,,,,,2.0312,1,,,,,,,,,,,,,,,0,0.400000016,-0.242476861,1,0,0,2.0312,button_right_main,0.400000016,-0.242476861,1,0,0,,0,123,123,72,1,NOOSE,LB,old,m,./images/NOOSELB.png,,,,,,,,,,,,,,,,,,,,,,,,,,,,,,,,,
,,,,,,,,,,,,,,,,,6111753718d92612abc8f41c,31,2022-02-12_14h24.04.209,lexical_decision_task_DD_L3,2021.2.3,Linux aarch64,59.9880024,,,,,,,,,,0.7364,1,,,,,,,,,,,,,,,0,-0.352777779,-0.310069482,1,0,0,0.7364,button_left_main,-0.352777779,-0.310069482,1,0,0,,0,124,124,108,1,GRUET,C,old,z,./images/GRUET.png,,,,,,,,,,,,,,,,,,,,,,,,,,,,,,,,,
,,,,,,,,,,,,,,,,,6111753718d92612abc8f41c,31,2022-02-12_14h24.04.209,lexical_decision_task_DD_L3,2021.2.3,Linux aarch64,59.9880024,,,,,,,,,,0.8462,1,,,,,,,,,,,,,,,0,0.401851892,-0.242476861,1,0,0,0.8462,button_right_main,0.076851924,-0.391551018,1,0,0,,0,125,125,58,1,BABOON,C,old,m,./images/BABOON.png,break_done_button,,,,,,,,,,,,,,,,,,,,,,,,,,,,,,,,
,,,,,,,,,,,,,,,,,6111753718d92612abc8f41c,31,2022-02-12_14h24.04.209,lexical_decision_task_DD_L3,2021.2.3,Linux aarch64,59.9880024,,,,,,,,,,1.0633,1,,,,,,,,,,,,,,,0,-0.36944444,-0.297106504,1,0,0,1.0633,button_left_main,-0.36944444,-0.297106504,1,0,0,,0,126,126,97,1,CHIDS,HB,old,z,./images/CHIDSHB.png,,,,,,,,,,,,,,,,,,,,,,,,,,,,,,,,,
,,,,,,,,,,,,,,,,,6111753718d92612abc8f41c,31,2022-02-12_14h24.04.209,lexical_decision_task_DD_L3,2021.2.3,Linux aarch64,59.9880024,,,,,,,,,,0.9451,1,,,,,,,,,,,,,,,0,-0.384259254,-0.295254628,1,0,0,0.9451,button_left_main,-0.384259254,-0.295254628,1,0,0,,0,127,127,107,1,FASKS,LB,old,z,./images/FASKSLB.png,,,,,,,,,,,,,,,,,,,,,,,,,,,,,,,,,
,,,,,,,,,,,,,,,,,6111753718d92612abc8f41c,31,2022-02-12_14h24.04.209,lexical_decision_task_DD_L3,2021.2.3,Linux aarch64,59.9880024,,,,,,,,,,0.6474,1,,,,,,,,,,,,,,,0,-0.382407407,-0.288773139,1,0,0,0.6474,button_left_main,-0.382407407,-0.288773139,1,0,0,,0,128,128,117,1,STEEG,C,old,z,./images/STEEG.png,,,,,,,,,,,,,,,,,,,,,,,,,,,,,,,,,
,,,,,,,,,,,,,,,,,6111753718d92612abc8f41c,31,2022-02-12_14h24.04.209,lexical_decision_task_DD_L3,2021.2.3,Linux aarch64,59.9880024,,,,,,,,,,0.6989,1,,,,,,,,,,,,,,,0,-0.374074072,-0.289699078,1,0,0,0.6989,button_left_main,-0.374074072,-0.289699078,1,0,0,,0,129,129,114,1,RIKES,C,old,z,./images/RIKES.png,,,,,,,,,,,,,,,,,,,,,,,,,,,,,,,,,
,,,,,,,,,,,,,,,,,6111753718d92612abc8f41c,31,2022-02-12_14h24.04.209,lexical_decision_task_DD_L3,2021.2.3,Linux aarch64,59.9880024,,,,,,,,,,0.7135,1,,,,,,,,,,,,,,,0,0.407407522,-0.253587961,1,0,0,0.7135,button_right_main,0.407407522,-0.253587961,1,0,0,,0,130,130,24,1,SCREW,LB,old,m,./images/SCREWLB.png,,,,,,,,,,,,,,,,,,,,,,,,,,,,,,,,,
,,,,,,,,,,,,,,,,,6111753718d92612abc8f41c,31,2022-02-12_14h24.04.209,lexical_decision_task_DD_L3,2021.2.3,Linux aarch64,59.9880024,,,,,,,,,,0.8428,1,,,,,,,,,,,,,,,0,-0.377777775,-0.286921342,1,0,0,0.8428,button_left_main,-0.377777775,-0.286921342,1,0,0,,0,131,131,156,1,HIXES,C,old,z,./images/HIXES.png,,,,,,,,,,,,,,,,,,,,,,,,,,,,,,,,,
,,,,,,,,,,,,,,,,,6111753718d92612abc8f41c,31,2022-02-12_14h24.04.209,lexical_decision_task_DD_L3,2021.2.3,Linux aarch64,59.9880024,,,,,,,,,,0.6782,1,,,,,,,,,,,,,,,0,0.386111101,-0.269328753,1,0,0,0.6782,button_right_main,0.386111101,-0.269328753,1,0,0,,0,132,132,15,1,GREASE,LB,old,m,./images/GREASELB.png,,,,,,,,,,,,,,,,,,,,,,,,,,,,,,,,,
,,,,,,,,,,,,,,,,,6111753718d92612abc8f41c,31,2022-02-12_14h24.04.209,lexical_decision_task_DD_L3,2021.2.3,Linux aarch64,59.9880024,,,,,,,,,,0.6334,1,,,,,,,,,,,,,,,0,0.379629612,-0.255439838,1,0,0,0.6334,button_right_main,0.379629612,-0.255439838,1,0,0,,0,133,133,10,1,BELLY,C,old,m,./images/BELLY.png,,,,,,,,,,,,,,,,,,,,,,,,,,,,,,,,,
,,,,,,,,,,,,,,,,,6111753718d92612abc8f41c,31,2022-02-12_14h24.04.209,lexical_decision_task_DD_L3,2021.2.3,Linux aarch64,59.9880024,,,,,,,,,,0.7939,1,,,,,,,,,,,,,,,0,-0.382407407,-0.273958365,1,0,0,0.7939,button_left_main,-0.382407407,-0.273958365,1,0,0,,0,134,134,92,1,PAIMS,LB,old,z,./images/PAIMSLB.png,,,,,,,,,,,,,,,,,,,,,,,,,,,,,,,,,
,,,,,,,,,,,,,,,,,6111753718d92612abc8f41c,31,2022-02-12_14h24.04.209,lexical_decision_task_DD_L3,2021.2.3,Linux aarch64,59.9880024,,,,,,,,,,0.813,1,,,,,,,,,,,,,,,0,-0.375925908,-0.275810242,1,0,0,0.813,button_left_main,-0.375925908,-0.275810242,1,0,0,,0,135,135,145,1,LAMEL,HB,old,z,./images/LAMELHB.png,,,,,,,,,,,,,,,,,,,,,,,,,,,,,,,,,
,,,,,,,,,,,,,,,,,6111753718d92612abc8f41c,31,2022-02-12_14h24.04.209,lexical_decision_task_DD_L3,2021.2.3,Linux aarch64,59.9880024,,,,,,,,,,0.8225,1,,,,,,,,,,,,,,,0,-0.400925924,-0.261921326,1,0,0,0.8225,button_left_main,-0.400925924,-0.261921326,1,0,0,,0,136,136,141,1,PLEET,C,old,z,./images/PLEET.png,,,,,,,,,,,,,,,,,,,,,,,,,,,,,,,,,
,,,,,,,,,,,,,,,,,6111753718d92612abc8f41c,31,2022-02-12_14h24.04.209,lexical_decision_task_DD_L3,2021.2.3,Linux aarch64,59.9880024,,,,,,,,,,0.7104,1,,,,,,,,,,,,,,,0,-0.381481479,-0.279513915,1,0,0,0.7104,button_left_main,-0.381481479,-0.279513915,1,0,0,,0,137,137,135,1,JOODY,C,old,z,./images/JOODY.png,,,,,,,,,,,,,,,,,,,,,,,,,,,,,,,,,
,,,,,,,,,,,,,,,,,6111753718d92612abc8f41c,31,2022-02-12_14h24.04.209,lexical_decision_task_DD_L3,2021.2.3,Linux aarch64,59.9880024,,,,,,,,,,0.8283,1,,,,,,,,,,,,,,,0,-0.377777775,-0.276736259,1,0,0,0.8283,button_left_main,-0.377777775,-0.276736259,1,0,0,,0,138,138,113,1,LINEW,LB,old,z,./images/LINEWLB.png,,,,,,,,,,,,,,,,,,,,,,,,,,,,,,,,,
,,,,,,,,,,,,,,,,,6111753718d92612abc8f41c,31,2022-02-12_14h24.04.209,lexical_decision_task_DD_L3,2021.2.3,Linux aarch64,59.9880024,,,,,,,,,,1.5823,0,,,,,,,,,,,,,,,0,0.361111164,-0.267476877,1,0,0,1.5823,button_right_main,0.361111164,-0.267476877,1,0,0,,0,139,139,120,1,RINED,C,old,z,./images/RINED.png,,,,,,,,,,,,,,,,,,,,,,,,,,,,,,,,,
,,,,,,,,,,,,,,,,,6111753718d92612abc8f41c,31,2022-02-12_14h24.04.209,lexical_decision_task_DD_L3,2021.2.3,Linux aarch64,59.9880024,,,,,,,,,,1.4958,1,,,,,,,,,,,,,,,0,0.386111101,-0.240625143,1,0,0,1.4958,button_right_main,0.386111101,-0.240625143,1,0,0,,0,140,140,47,1,BERRY,HB,old,m,./images/BERRYHB.png,,,,,,,,,,,,,,,,,,,,,,,,,,,,,,,,,
,,,,,,,,,,,,,,,,,6111753718d92612abc8f41c,31,2022-02-12_14h24.04.209,lexical_decision_task_DD_L3,2021.2.3,Linux aarch64,59.9880024,,,,,,,,,,0.8353,1,,,,,,,,,,,,,,,0,-0.374074072,-0.276736259,1,0,0,0.8353,button_left_main,-0.374074072,-0.276736259,1,0,0,,0,141,141,103,1,FLORT,HB,old,z,./images/FLORTHB.png,,,,,,,,,,,,,,,,,,,,,,,,,,,,,,,,,
,,,,,,,,,,,,,,,,,6111753718d92612abc8f41c,31,2022-02-12_14h24.04.209,lexical_decision_task_DD_L3,2021.2.3,Linux aarch64,59.9880024,,,,,,,,,,0.7452,1,,,,,,,,,,,,,,,0,-0.379629612,-0.270254771,1,0,0,0.7452,button_left_main,-0.379629612,-0.270254771,1,0,0,,0,142,142,138,1,PLICE,C,old,z,./images/PLICE.png,,,,,,,,,,,,,,,,,,,,,,,,,,,,,,,,,
,,,,,,,,,,,,,,,,,6111753718d92612abc8f41c,31,2022-02-12_14h24.04.209,lexical_decision_task_DD_L3,2021.2.3,Linux aarch64,59.9880024,,,,,,,,,,0.712,1,,,,,,,,,,,,,,,0,0.347222249,-0.264699221,1,0,0,0.712,button_right_main,0.347222249,-0.264699221,1,0,0,,0,143,143,63,1,MIRROR,LB,old,m,./images/MIRRORLB.png,,,,,,,,,,,,,,,,,,,,,,,,,,,,,,,,,
,,,,,,,,,,,,,,,,,6111753718d92612abc8f41c,31,2022-02-12_14h24.04.209,lexical_decision_task_DD_L3,2021.2.3,Linux aarch64,59.9880024,,,,,,,,,,0.7319,1,,,,,,,,,,,,,,,0,-0.327777783,-0.281365792,1,0,0,0.7319,button_left_main,-0.327777783,-0.281365792,1,0,0,,0,144,144,167,1,ZONET,LB,old,z,./images/ZONETLB.png,,,,,,,,,,,,,,,,,,,,,,,,,,,,,,,,,
,,,,,,,,,,,,,,,,,6111753718d92612abc8f41c,31,2022-02-12_14h24.04.209,lexical_decision_task_DD_L3,2021.2.3,Linux aarch64,59.9880024,,,,,,,,,,1.1933,1,,,,,,,,,,,,,,,0,-0.332407395,-0.286921342,1,0,0,1.1933,button_left_main,-0.332407395,-0.286921342,1,0,0,,0,145,145,94,1,BLANS,HB,old,z,./images/BLANSHB.png,,,,,,,,,,,,,,,,,,,,,,,,,,,,,,,,,
,,,,,,,,,,,,,,,,,6111753718d92612abc8f41c,31,2022-02-12_14h24.04.209,lexical_decision_task_DD_L3,2021.2.3,Linux aarch64,59.9880024,,,,,,,,,,0.8629,1,,,,,,,,,,,,,,,0,-0.400925924,-0.265625,1,0,0,0.8629,button_left_main,-0.400925924,-0.265625,1,0,0,,0,146,146,116,1,BALGY,LB,old,z,./images/BALGYLB.png,,,,,,,,,,,,,,,,,,,,,,,,,,,,,,,,,
,,,,,,,,,,,,,,,,,6111753718d92612abc8f41c,31,2022-02-12_14h24.04.209,lexical_decision_task_DD_L3,2021.2.3,Linux aarch64,59.9880024,,,,,,,,,,0.7119,1,,,,,,,,,,,,,,,0,-0.401851853,-0.270254771,1,0,0,0.7119,button_left_main,-0.401851853,-0.270254771,1,0,0,,0,147,147,149,1,VEASE,LB,old,z,./images/VEASELB.png,,,,,,,,,,,,,,,,,,,,,,,,,,,,,,,,,
,,,,,,,,,,,,,,,,,6111753718d92612abc8f41c,31,2022-02-12_14h24.04.209,lexical_decision_task_DD_L3,2021.2.3,Linux aarch64,59.9880024,,,,,,,,,,0.763,1,,,,,,,,,,,,,,,0,-0.387962957,-0.273032427,1,0,0,0.763,button_left_main,-0.387962957,-0.273032427,1,0,0,,0,148,148,144,1,NAIRY,C,old,z,./images/NAIRY.png,,,,,,,,,,,,,,,,,,,,,,,,,,,,,,,,,
,,,,,,,,,,,,,,,,,6111753718d92612abc8f41c,31,2022-02-12_14h24.04.209,lexical_decision_task_DD_L3,2021.2.3,Linux aarch64,59.9880024,,,,,,,,,,0.6501,1,,,,,,,,,,,,,,,0,0.370370388,-0.258217732,1,0,0,0.6501,button_right_main,0.370370388,-0.258217732,1,0,0,,0,149,149,51,1,ONION,LB,old,m,./images/ONIONLB.png,,,,,,,,,,,,,,,,,,,,,,,,,,,,,,,,,
,,,,,,,,,,,,,,,,,6111753718d92612abc8f41c,31,2022-02-12_14h24.04.209,lexical_decision_task_DD_L3,2021.2.3,Linux aarch64,59.9880024,,,,,,,,,,1.1521,1,,,,,,,,,,,,,,,0,-0.389814814,-0.278587977,1,0,0,1.1521,button_left_main,-0.389814814,-0.278587977,1,0,0,,0,150,150,165,1,TROWN,C,old,z,./images/TROWN.png,,,,,,,,,,,,,,,,,,,,,,,,,,,,,,,,,
,,,,,,,,,,,,,,,,,6111753718d92612abc8f41c,31,2022-02-12_14h24.04.209,lexical_decision_task_DD_L3,2021.2.3,Linux aarch64,59.9880024,,,,,,,,,,1.128,0,,,,,,,,,,,,,,,0,0.391666651,-0.238773187,1,0,0,1.128,button_right_main,0.391666651,-0.238773187,1,0,0,,0,151,151,104,1,GITTY,LB,old,z,./images/GITTYLB.png,,,,,,,,,,,,,,,,,,,,,,,,,,,,,,,,,
,,,,,,,,,,,,,,,,,6111753718d92612abc8f41c,31,2022-02-12_14h24.04.209,lexical_decision_task_DD_L3,2021.2.3,Linux aarch64,59.9880024,,,,,,,,,,1.1632,1,,,,,,,,,,,,,,,0,0.361111164,-0.259143511,1,0,0,1.1632,button_right_main,0.361111164,-0.259143511,1,0,0,,0,152,152,29,1,CRUMB,HB,old,m,./images/CRUMBHB.png,,,,,,,,,,,,,,,,,,,,,,,,,,,,,,,,,
,,,,,,,,,,,,,,,,,6111753718d92612abc8f41c,31,2022-02-12_14h24.04.209,lexical_decision_task_DD_L3,2021.2.3,Linux aarch64,59.9880024,,,,,,,,,,0.8275,1,,,,,,,,,,,,,,,0,-0.32962962,-0.292476892,1,0,0,0.8275,button_left_main,-0.32962962,-0.292476892,1,0,0,,0,153,153,134,1,TROSS,LB,old,z,./images/TROSSLB.png,,,,,,,,,,,,,,,,,,,,,,,,,,,,,,,,,
,,,,,,,,,,,,,,,,,6111753718d92612abc8f41c,31,2022-02-12_14h24.04.209,lexical_decision_task_DD_L3,2021.2.3,Linux aarch64,59.9880024,,,,,,,,,,0.7951,1,,,,,,,,,,,,,,,0,0.360185226,-0.259143511,1,0,0,0.7951,button_right_main,0.360185226,-0.259143511,1,0,0,,0,154,154,36,1,THROAT,LB,old,m,./images/THROATLB.png,,,,,,,,,,,,,,,,,,,,,,,,,,,,,,,,,
,,,,,,,,,,,,,,,,,6111753718d92612abc8f41c,31,2022-02-12_14h24.04.209,lexical_decision_task_DD_L3,2021.2.3,Linux aarch64,59.9880024,,,,,,,,,,0.8319,1,,,,,,,,,,,,,,,0,0.371296406,-0.255439838,1,0,0,0.8319,button_right_main,0.371296406,-0.255439838,1,0,0,,0,155,155,46,1,PEARL,C,old,m,./images/PEARL.png,,,,,,,,,,,,,,,,,,,,,,,,,,,,,,,,,
,,,,,,,,,,,,,,,,,6111753718d92612abc8f41c,31,2022-02-12_14h24.04.209,lexical_decision_task_DD_L3,2021.2.3,Linux aarch64,59.9880024,,,,,,,,,,0.8444,1,,,,,,,,,,,,,,,0,0.370370388,-0.252662182,1,0,0,0.8444,button_right_main,0.370370388,-0.252662182,1,0,0,,0,156,156,44,1,LIZARD,HB,old,m,./images/LIZARDHB.png,,,,,,,,,,,,,,,,,,,,,,,,,,,,,,,,,
,,,,,,,,,,,,,,,,,6111753718d92612abc8f41c,31,2022-02-12_14h24.04.209,lexical_decision_task_DD_L3,2021.2.3,Linux aarch64,59.9880024,,,,,,,,,,0.8028,1,,,,,,,,,,,,,,,0,0.362037023,-0.260995388,1,0,0,0.8028,button_right_main,0.362037023,-0.260995388,1,0,0,,0,157,157,34,1,CANYON,C,old,m,./images/CANYON.png,,,,,,,,,,,,,,,,,,,,,,,,,,,,,,,,,
,,,,,,,,,,,,,,,,,6111753718d92612abc8f41c,31,2022-02-12_14h24.04.209,lexical_decision_task_DD_L3,2021.2.3,Linux aarch64,59.9880024,,,,,,,,,,1.9255,1,,,,,,,,,,,,,,,0,-0.361111104,-0.279513915,1,0,0,1.9255,button_left_main,-0.361111104,-0.279513915,1,0,0,,0,158,158,95,1,HANTY,LB,old,z,./images/HANTYLB.png,,,,,,,,,,,,,,,,,,,,,,,,,,,,,,,,,
,,,,,,,,,,,,,,,,,6111753718d92612abc8f41c,31,2022-02-12_14h24.04.209,lexical_decision_task_DD_L3,2021.2.3,Linux aarch64,59.9880024,,,,,,,,,,0.6531,1,,,,,,,,,,,,,,,0,0.375925938,-0.256365776,1,0,0,0.6531,button_right_main,0.375925938,-0.256365776,1,0,0,,0,159,159,13,1,MOTOR,C,old,m,./images/MOTOR.png,,,,,,,,,,,,,,,,,,,,,,,,,,,,,,,,,
,,,,,,,,,,,,,,,,,6111753718d92612abc8f41c,31,2022-02-12_14h24.04.209,lexical_decision_task_DD_L3,2021.2.3,Linux aarch64,59.9880024,,,,,,,,,,0.8889,1,,,,,,,,,,,,,,,0,0.371296406,-0.233217637,1,0,0,0.8889,button_right_main,0.371296406,-0.233217637,1,0,0,,0,160,160,82,1,SUNSET,C,old,m,./images/SUNSET.png,,,,,,,,,,,,,,,,,,,,,,,,,,,,,,,,,
,,,,,,,,,,,,,,,,,6111753718d92612abc8f41c,31,2022-02-12_14h24.04.209,lexical_decision_task_DD_L3,2021.2.3,Linux aarch64,59.9880024,,,,,,,,,,0.68,1,,,,,,,,,,,,,,,0,0.370370388,-0.253587961,1,0,0,0.68,button_right_main,0.370370388,-0.253587961,1,0,0,,0,161,161,48,1,SPORT,LB,old,m,./images/SPORTLB.png,,,,,,,,,,,,,,,,,,,,,,,,,,,,,,,,,
,,,,,,,,,,,,,,,,,6111753718d92612abc8f41c,31,2022-02-12_14h24.04.209,lexical_decision_task_DD_L3,2021.2.3,Linux aarch64,59.9880024,,,,,,,,,,1.0948,1,,,,,,,,,,,,,,,0,-0.352777779,-0.285069466,1,0,0,1.0948,button_left_main,-0.352777779,-0.285069466,1,0,0,,0,162,162,162,1,LEICH,C,old,z,./images/LEICH.png,,,,,,,,,,,,,,,,,,,,,,,,,,,,,,,,,
,,,,,,,,,,,,,,,,,6111753718d92612abc8f41c,31,2022-02-12_14h24.04.209,lexical_decision_task_DD_L3,2021.2.3,Linux aarch64,59.9880024,,,,,,,,,,0.7966,1,,,,,,,,,,,,,,,0,0.364814838,-0.261921326,1,0,0,0.7966,button_right_main,0.364814838,-0.261921326,1,0,0,,0,163,163,53,1,CARPET,HB,old,m,./images/CARPETHB.png,,,,,,,,,,,,,,,,,,,,,,,,,,,,,,,,,
,,,,,,,,,,,,,,,,,6111753718d92612abc8f41c,31,2022-02-12_14h24.04.209,lexical_decision_task_DD_L3,2021.2.3,Linux aarch64,59.9880024,,,,,,,,,,0.7641,1,,,,,,,,,,,,,,,0,0.368518511,-0.248958349,1,0,0,0.7641,button_right_main,0.368518511,-0.248958349,1,0,0,,0,164,164,35,1,PEACH,HB,old,m,./images/PEACHHB.png,,,,,,,,,,,,,,,,,,,,,,,,,,,,,,,,,
,,,,,,,,,,,,,,,,,6111753718d92612abc8f41c,31,2022-02-12_14h24.04.209,lexical_decision_task_DD_L3,2021.2.3,Linux aarch64,59.9880024,,,,,,,,,,1.3099,1,,,,,,,,,,,,,,,0,-0.36388889,-0.281365792,1,0,0,1.3099,button_left_main,-0.36388889,-0.281365792,1,0,0,,0,165,165,105,1,MOKER,C,old,z,./images/MOKER.png,,,,,,,,,,,,,,,,,,,,,,,,,,,,,,,,,
,,,,,,,,,,,,,,,,,6111753718d92612abc8f41c,31,2022-02-12_14h24.04.209,lexical_decision_task_DD_L3,2021.2.3,Linux aarch64,59.9880024,,,,,,,,,,1.0133,1,,,,,,,,,,,,,,,0,0.375,-0.251736164,1,0,0,1.0133,button_right_main,0.375,-0.251736164,1,0,0,,0,166,166,43,1,MOSQUE,C,old,m,./images/MOSQUE.png,,,,,,,,,,,,,,,,,,,,,,,,,,,,,,,,,
,,,,,,,,,,,,,,,,,6111753718d92612abc8f41c,31,2022-02-12_14h24.04.209,lexical_decision_task_DD_L3,2021.2.3,Linux aarch64,59.9880024,,,,,,,,,,1.0782,1,,,,,,,,,,,,,,,0,0.36944445,-0.259143511,1,0,0,1.0782,button_right_main,0.36944445,-0.259143511,1,0,0,,0,167,167,4,1,MUSCLE,C,old,m,./images/MUSCLE.png,,,,,,,,,,,,,,,,,,,,,,,,,,,,,,,,,
,,,,,,,,,,,,,,,,,6111753718d92612abc8f41c,31,2022-02-12_14h24.04.209,lexical_decision_task_DD_L3,2021.2.3,Linux aarch64,59.9880024,,,,,,,,,,,,,,,,,,,,,,,,,,,,,,,,,,,,,,,,,,,,,,How likely will it be that you will recognize the words presented slighly blurred on a scale of 0 (not likely) to 100 (most likely)?,,,,,0.004629652,-0.385069529,1,0,0,jol_adv,6,6.0731,0,0,0,1,1,,,,,,,,,,,,,,,,,,,
,,,,,,,,,,,,,,,,,6111753718d92612abc8f41c,31,2022-02-12_14h24.04.209,lexical_decision_task_DD_L3,2021.2.3,Linux aarch64,59.9880024,,,,,,,,,,,,,,,,,,,,,,,,,,,,,,,,,,,,,,,,,,,,,,How likely will it be that you will recognize the words presented very blurred on a scale of 0 (not likely) to 100 (most likely)?,,,,,,,,,,,6,0.3825,0,1,1,2,1,,,,,,,,,,,,,,,,,,,
,,,,,,,,,,,,,,,,,6111753718d92612abc8f41c,31,2022-02-12_14h24.04.209,lexical_decision_task_DD_L3,2021.2.3,Linux aarch64,59.9880024,,,,,,,,,,,,,,,,,,,,,,,,,,,,,,,,,,,,,,,,,,,,,,How likely will it be that you will recognize the words presented clearly on a scale of 0 (not likely) to 100 (most likely)?,,,,,,,,,,,6,8.9919,0,2,2,0,1,,,,,,,,,,,,,,,,,,,
,0.081481496,-0.395254612,1,0,0,instr_done_button,,,,,,1,test,"In the next phase you will be presented with the words from the the first phase. Your job is to decide whether you remember seeing the word or not. If you remember seeing the word press ""old"" or type ""m"". If you do not remember seeing the word press ""new"" or type ""z"". Please press the space bar or click on continue to begin. ",,,6111753718d92612abc8f41c,31,2022-02-12_14h24.04.209,lexical_decision_task_DD_L3,2021.2.3,Linux aarch64,59.9880024,,,,,,,,,,,,,,,,,,,,,,,,,,,,,,,,,,,,,,,,,,,,,,,,,,,,,,,,,,,,,,,,0,0,0,0,1,,,,,,,,,,,,,,
,0.091666738,-0.380439917,1,0,0,instr_done_button,,,,,,1,test,"In the next phase you will be presented with the words from the the first phase. Your job is to decide whether you remember seeing the word or not. If you remember seeing the word press ""old"" or type ""m"". If you do not remember seeing the word press ""new"" or type ""z"". Please press the space bar or click on continue to begin. ",,,6111753718d92612abc8f41c,31,2022-02-12_14h24.04.209,lexical_decision_task_DD_L3,2021.2.3,Linux aarch64,59.9880024,,,,,,,,,,,,,,,,,,,,,,,,,,,,,,,,,,,,,,,,,,,,,,,,,,,,,,,,,,,,,,,,1,0,1,0,1,,,,,,,,,,,,,,
,0.041666667,-0.357291698,1,0,0,instr_done_button,,,,,,1,test,"In the next phase you will be presented with the words from the the first phase. Your job is to decide whether you remember seeing the word or not. If you remember seeing the word press ""old"" or type ""m"". If you do not remember seeing the word press ""new"" or type ""z"". Please press the space bar or click on continue to begin. ",,,6111753718d92612abc8f41c,31,2022-02-12_14h24.04.209,lexical_decision_task_DD_L3,2021.2.3,Linux aarch64,59.9880024,,,,,,,,,,,,,,,,,,,,,,,,,,,,,,,,,,,,,,,,,,,,,,,,,,,,,,,,,,,,,,,,2,0,2,0,1,,,,,,,,,,,,,,
,0.079629699,-0.376736164,1,0,0,instr_done_button,,,,,,1,test,"In the next phase you will be presented with the words from the the first phase. Your job is to decide whether you remember seeing the word or not. If you remember seeing the word press ""old"" or type ""m"". If you do not remember seeing the word press ""new"" or type ""z"". Please press the space bar or click on continue to begin. ",,,6111753718d92612abc8f41c,31,2022-02-12_14h24.04.209,lexical_decision_task_DD_L3,2021.2.3,Linux aarch64,59.9880024,,,,,,,,,,,,,,,,,,,,,,,,,,,,,,,,,,,,,,,,,,,,,,,,,,,,,,,,,,,,,,,,3,0,3,0,1,,,,,,,,,,,,,,
,0.003703713,-0.385995388,1,0,0,instr_done_button,,,,,,1,test,"In the next phase you will be presented with the words from the the first phase. Your job is to decide whether you remember seeing the word or not. If you remember seeing the word press ""old"" or type ""m"". If you do not remember seeing the word press ""new"" or type ""z"". Please press the space bar or click on continue to begin. ",,,6111753718d92612abc8f41c,31,2022-02-12_14h24.04.209,lexical_decision_task_DD_L3,2021.2.3,Linux aarch64,59.9880024,,,,,,,,,,,,,,,,,,,,,,,,,,,,,,,,,,,,,,,,,,,,,,,,,,,,,,,,,,,,,,,,4,0,4,0,1,,,,,,,,,,,,,,
,,,,,,,,,,,,,,,,,6111753718d92612abc8f41c,31,2022-02-12_14h24.04.209,lexical_decision_task_DD_L3,2021.2.3,Linux aarch64,59.9880024,,,,,,,,,,2.7358,1,,,,,,,,,,,,,,,,,,,,,,,-0.401851853,-0.267476877,1,0,0,,,,,,,LLAMA,HB,z,m,./images/LLAMAHB.png,,,,,,,,,,,,,,,,,,,,,0,-0.401851853,-0.267476877,1,0,0,2.7358,button_left_test,0,0,0,119,1
,,,,,,,,,,,,,,,,,6111753718d92612abc8f41c,31,2022-02-12_14h24.04.209,lexical_decision_task_DD_L3,2021.2.3,Linux aarch64,59.9880024,,,,,,,,,,1.4566,1,,,,,,,,,,,,,,,,,,,,,,,0.371296406,-0.253587961,1,0,0,,,,,,,GRAIN,LB,m,m,./images/GRAINLB.png,,,,,,,,,,,,,,,,,,,,,0,0.371296406,-0.253587961,1,0,0,1.4566,button_right_test,0,1,1,75,1
,,,,,,,,,,,,,,,,,6111753718d92612abc8f41c,31,2022-02-12_14h24.04.209,lexical_decision_task_DD_L3,2021.2.3,Linux aarch64,59.9880024,,,,,,,,,,1.4411,1,,,,,,,,,,,,,,,,,,,,,,,-0.378703703,-0.278587977,1,0,0,,,,,,,BLOKE,LB,z,m,./images/BLOKELB.png,,,,,,,,,,,,,,,,,,,,,0,-0.378703703,-0.278587977,1,0,0,1.4411,button_left_test,0,2,2,96,1
,,,,,,,,,,,,,,,,,6111753718d92612abc8f41c,31,2022-02-12_14h24.04.209,lexical_decision_task_DD_L3,2021.2.3,Linux aarch64,59.9880024,,,,,,,,,,1.2068,1,,,,,,,,,,,,,,,,,,,,,,,0.404629628,-0.243402799,1,0,0,,,,,,,ONION,LB,m,m,./images/ONIONLB.png,,,,,,,,,,,,,,,,,,,,,0,0.404629628,-0.243402799,1,0,0,1.2068,button_right_test,0,3,3,51,1
,,,,,,,,,,,,,,,,,6111753718d92612abc8f41c,31,2022-02-12_14h24.04.209,lexical_decision_task_DD_L3,2021.2.3,Linux aarch64,59.9880024,,,,,,,,,,1.5757,1,,,,,,,,,,,,,,,,,,,,,,,-0.370370368,-0.28784736,1,0,0,,,,,,,ENGINE,HB,z,m,./images/ENGINEHB.png,,,,,,,,,,,,,,,,,,,,,0,-0.370370368,-0.28784736,1,0,0,1.5757,button_left_test,0,4,4,122,1
,,,,,,,,,,,,,,,,,6111753718d92612abc8f41c,31,2022-02-12_14h24.04.209,lexical_decision_task_DD_L3,2021.2.3,Linux aarch64,59.9880024,,,,,,,,,,1.424,0,,,,,,,,,,,,,,,,,,,,,,,0.410185178,-0.251736164,1,0,0,,,,,,,HEATER,HB,z,m,./images/HEATERHB.png,,,,,,,,,,,,,,,,,,,,,0,0.410185178,-0.251736164,1,0,0,1.424,button_right_test,0,5,5,140,1
,,,,,,,,,,,,,,,,,6111753718d92612abc8f41c,31,2022-02-12_14h24.04.209,lexical_decision_task_DD_L3,2021.2.3,Linux aarch64,59.9880024,,,,,,,,,,1.008,1,,,,,,,,,,,,,,,,,,,,,,,-0.387037039,-0.266550938,1,0,0,,,,,,,SLOPE,LB,z,m,./images/SLOPELB.png,,,,,,,,,,,,,,,,,,,,,0,-0.387037039,-0.266550938,1,0,0,1.008,button_left_test,0,6,6,114,1
,,,,,,,,,,,,,,,,,6111753718d92612abc8f41c,31,2022-02-12_14h24.04.209,lexical_decision_task_DD_L3,2021.2.3,Linux aarch64,59.9880024,,,,,,,,,,1.2773,1,,,,,,,,,,,,,,,,,,,,,,,0.390740792,-0.260995388,1,0,0,,,,,,,SHELF,LB,m,m,./images/SHELFLB.png,,,,,,,,,,,,,,,,,,,,,0,0.390740792,-0.260995388,1,0,0,1.2773,button_right_test,0,7,7,39,1
,,,,,,,,,,,,,,,,,6111753718d92612abc8f41c,31,2022-02-12_14h24.04.209,lexical_decision_task_DD_L3,2021.2.3,Linux aarch64,59.9880024,,,,,,,,,,1.5274,1,,,,,,,,,,,,,,,,,,,,,,,-0.374074072,-0.279513915,1,0,0,,,,,,,FENCE,HB,z,m,./images/FENCEHB.png,,,,,,,,,,,,,,,,,,,,,0,-0.374074072,-0.279513915,1,0,0,1.5274,button_left_test,0,8,8,98,1
,,,,,,,,,,,,,,,,,6111753718d92612abc8f41c,31,2022-02-12_14h24.04.209,lexical_decision_task_DD_L3,2021.2.3,Linux aarch64,59.9880024,,,,,,,,,,1.6444,0,,,,,,,,,,,,,,,,,,,,,,,0.356481473,-0.262847265,1,0,0,,,,,,,DRILL,LB,z,m,./images/DRILLLB.png,,,,,,,,,,,,,,,,,,,,,0,0.356481473,-0.262847265,1,0,0,1.6444,button_right_test,0,9,9,165,1
,,,,,,,,,,,,,,,,,6111753718d92612abc8f41c,31,2022-02-12_14h24.04.209,lexical_decision_task_DD_L3,2021.2.3,Linux aarch64,59.9880024,,,,,,,,,,0.8418,1,,,,,,,,,,,,,,,,,,,,,,,0.388888915,-0.252662182,1,0,0,,,,,,,KIDNEY,LB,m,m,./images/KIDNEYLB.png,,,,,,,,,,,,,,,,,,,,,0,0.388888915,-0.252662182,1,0,0,0.8418,button_right_test,0,10,10,21,1
,,,,,,,,,,,,,,,,,6111753718d92612abc8f41c,31,2022-02-12_14h24.04.209,lexical_decision_task_DD_L3,2021.2.3,Linux aarch64,59.9880024,,,,,,,,,,0.8314,1,,,,,,,,,,,,,,,,,,,,,,,0.371296406,-0.266550938,1,0,0,,,,,,,SKIING,HB,m,m,./images/SKIINGHB.png,,,,,,,,,,,,,,,,,,,,,0,0.371296406,-0.266550938,1,0,0,0.8314,button_right_test,0,11,11,17,1
,,,,,,,,,,,,,,,,,6111753718d92612abc8f41c,31,2022-02-12_14h24.04.209,lexical_decision_task_DD_L3,2021.2.3,Linux aarch64,59.9880024,,,,,,,,,,0.9857,1,,,,,,,,,,,,,,,,,,,,,,,0.38055555,-0.246180693,1,0,0,,,,,,,FINGER,LB,m,m,./images/FINGERLB.png,,,,,,,,,,,,,,,,,,,,,0,0.38055555,-0.246180693,1,0,0,0.9857,button_right_test,0,12,12,3,1
,,,,,,,,,,,,,,,,,6111753718d92612abc8f41c,31,2022-02-12_14h24.04.209,lexical_decision_task_DD_L3,2021.2.3,Linux aarch64,59.9880024,,,,,,,,,,0.9573,1,,,,,,,,,,,,,,,,,,,,,,,-0.384259254,-0.268402815,1,0,0,,,,,,,DANCER,LB,z,m,./images/DANCERLB.png,,,,,,,,,,,,,,,,,,,,,0,-0.384259254,-0.268402815,1,0,0,0.9573,button_left_test,0,13,13,105,1
,,,,,,,,,,,,,,,,,6111753718d92612abc8f41c,31,2022-02-12_14h24.04.209,lexical_decision_task_DD_L3,2021.2.3,Linux aarch64,59.9880024,,,,,,,,,,0.8416,1,,,,,,,,,,,,,,,,,,,,,,,0.392592589,-0.255439838,1,0,0,,,,,,,KITTEN,LB,m,m,./images/KITTENLB.png,,,,,,,,,,,,,,,,,,,,,0,0.392592589,-0.255439838,1,0,0,0.8416,button_right_test,0,14,14,45,1
,,,,,,,,,,,,,,,,,6111753718d92612abc8f41c,31,2022-02-12_14h24.04.209,lexical_decision_task_DD_L3,2021.2.3,Linux aarch64,59.9880024,,,,,,,,,,0.8725,1,,,,,,,,,,,,,,,,,,,,,,,0.386111101,-0.249884288,1,0,0,,,,,,,PIMPLE,HB,m,m,./images/PIMPLEHB.png,,,,,,,,,,,,,,,,,,,,,0,0.386111101,-0.249884288,1,0,0,0.8725,button_right_test,0,15,15,71,1
,,,,,,,,,,,,,,,,,6111753718d92612abc8f41c,31,2022-02-12_14h24.04.209,lexical_decision_task_DD_L3,2021.2.3,Linux aarch64,59.9880024,,,,,,,,,,0.9566,1,,,,,,,,,,,,,,,,,,,,,,,0.397222281,-0.247106473,1,0,0,,,,,,,WEASEL,HB,m,m,./images/WEASELHB.png,,,,,,,,,,,,,,,,,,,,,0,0.397222281,-0.247106473,1,0,0,0.9566,button_right_test,0,16,16,80,1
,,,,,,,,,,,,,,,,,6111753718d92612abc8f41c,31,2022-02-12_14h24.04.209,lexical_decision_task_DD_L3,2021.2.3,Linux aarch64,59.9880024,,,,,,,,,,1.008,1,,,,,,,,,,,,,,,,,,,,,,,-0.376851847,-0.255439838,1,0,0,,,,,,,CLIFF,HB,z,m,./images/CLIFFHB.png,,,,,,,,,,,,,,,,,,,,,0,-0.376851847,-0.255439838,1,0,0,1.008,button_left_test,0,17,17,92,1
,,,,,,,,,,,,,,,,,6111753718d92612abc8f41c,31,2022-02-12_14h24.04.209,lexical_decision_task_DD_L3,2021.2.3,Linux aarch64,59.9880024,,,,,,,,,,1.8409,1,,,,,,,,,,,,,,,,,,,,,,,0.372222265,-0.260995388,1,0,0,,,,,,,RHINO,LB,m,m,./images/RHINOLB.png,,,,,,,,,,,,,,,,,,,,,0,0.372222265,-0.260995388,1,0,0,1.8409,button_right_test,0,18,18,9,1
,,,,,,,,,,,,,,,,,6111753718d92612abc8f41c,31,2022-02-12_14h24.04.209,lexical_decision_task_DD_L3,2021.2.3,Linux aarch64,59.9880024,,,,,,,,,,0.7588,1,,,,,,,,,,,,,,,,,,,,,,,0.362962961,-0.266550938,1,0,0,,,,,,,BONNET,HB,m,m,./images/BONNETHB.png,,,,,,,,,,,,,,,,,,,,,0,0.362962961,-0.266550938,1,0,0,0.7588,button_right_test,0,19,19,11,1
,,,,,,,,,,,,,,,,,6111753718d92612abc8f41c,31,2022-02-12_14h24.04.209,lexical_decision_task_DD_L3,2021.2.3,Linux aarch64,59.9880024,,,,,,,,,,1.6266,0,,,,,,,,,,,,,,,,,,,,,,,-0.371296297,-0.265625,1,0,0,,,,,,,JELLY,C,m,m,./images/JELLY.png,,,,,,,,,,,,,,,,,,,,,0,-0.371296297,-0.265625,1,0,0,1.6266,button_left_test,0,20,20,64,1
,,,,,,,,,,,,,,,,,6111753718d92612abc8f41c,31,2022-02-12_14h24.04.209,lexical_decision_task_DD_L3,2021.2.3,Linux aarch64,59.9880024,,,,,,,,,,1.1832,1,,,,,,,,,,,,,,,,,,,,,,,0.387962977,-0.250810226,1,0,0,,,,,,,BURIAL,HB,m,m,./images/BURIALHB.png,,,,,,,,,,,,,,,,,,,,,0,0.387962977,-0.250810226,1,0,0,1.1832,button_right_test,0,21,21,59,1
,,,,,,,,,,,,,,,,,6111753718d92612abc8f41c,31,2022-02-12_14h24.04.209,lexical_decision_task_DD_L3,2021.2.3,Linux aarch64,59.9880024,,,,,,,,,,0.7595,1,,,,,,,,,,,,,,,,,,,,,,,0.388888915,-0.253587961,1,0,0,,,,,,,SWEAT,LB,m,m,./images/SWEATLB.png,,,,,,,,,,,,,,,,,,,,,0,0.388888915,-0.253587961,1,0,0,0.7595,button_right_test,0,22,22,66,1
,,,,,,,,,,,,,,,,,6111753718d92612abc8f41c,31,2022-02-12_14h24.04.209,lexical_decision_task_DD_L3,2021.2.3,Linux aarch64,59.9880024,,,,,,,,,,0.9938,0,,,,,,,,,,,,,,,,,,,,,,,-0.372222205,-0.273958365,1,0,0,,,,,,,CRUST,C,m,m,./images/CRUST.png,,,,,,,,,,,,,,,,,,,,,0,-0.372222205,-0.273958365,1,0,0,0.9938,button_left_test,0,23,23,79,1
,,,,,,,,,,,,,,,,,6111753718d92612abc8f41c,31,2022-02-12_14h24.04.209,lexical_decision_task_DD_L3,2021.2.3,Linux aarch64,59.9880024,,,,,,,,,,1.1728,0,,,,,,,,,,,,,,,,,,,,,,,0.388888915,-0.257291714,1,0,0,,,,,,,GRANNY,HB,z,m,./images/GRANNYHB.png,,,,,,,,,,,,,,,,,,,,,0,0.388888915,-0.257291714,1,0,0,1.1728,button_right_test,0,24,24,104,1
,,,,,,,,,,,,,,,,,6111753718d92612abc8f41c,31,2022-02-12_14h24.04.209,lexical_decision_task_DD_L3,2021.2.3,Linux aarch64,59.9880024,,,,,,,,,,1.0929,1,,,,,,,,,,,,,,,,,,,,,,,0.387962977,-0.26006945,1,0,0,,,,,,,MALLET,HB,m,m,./images/MALLETHB.png,,,,,,,,,,,,,,,,,,,,,0,0.387962977,-0.26006945,1,0,0,1.0929,button_right_test,0,25,25,50,1
,,,,,,,,,,,,,,,,,6111753718d92612abc8f41c,31,2022-02-12_14h24.04.209,lexical_decision_task_DD_L3,2021.2.3,Linux aarch64,59.9880024,,,,,,,,,,0.8714,1,,,,,,,,,,,,,,,,,,,,,,,0.375,-0.258217732,1,0,0,,,,,,,CRADLE,HB,m,m,./images/CRADLEHB.png,,,,,,,,,,,,,,,,,,,,,0,0.375,-0.258217732,1,0,0,0.8714,button_right_test,0,26,26,20,1
,,,,,,,,,,,,,,,,,6111753718d92612abc8f41c,31,2022-02-12_14h24.04.209,lexical_decision_task_DD_L3,2021.2.3,Linux aarch64,59.9880024,,,,,,,,,,1.9587,1,,,,,,,,,,,,,,,,,,,,,,,0.381481489,-0.256365776,1,0,0,,,,,,,PURSE,HB,m,m,./images/PURSEHB.png,,,,,,,,,,,,,,,,,,,,,0,0.381481489,-0.256365776,1,0,0,1.9587,button_right_test,0,27,27,62,1
,,,,,,,,,,,,,,,,,6111753718d92612abc8f41c,31,2022-02-12_14h24.04.209,lexical_decision_task_DD_L3,2021.2.3,Linux aarch64,59.9880024,,,,,,,,,,1.3338,0,,,,,,,,,,,,,,,,,,,,,,,0.390740792,-0.248958349,1,0,0,,,,,,,STAIN,LB,z,m,./images/STAINLB.png,,,,,,,,,,,,,,,,,,,,,0,0.390740792,-0.248958349,1,0,0,1.3338,button_right_test,0,28,28,90,1
,,,,,,,,,,,,,,,,,6111753718d92612abc8f41c,31,2022-02-12_14h24.04.209,lexical_decision_task_DD_L3,2021.2.3,Linux aarch64,59.9880024,,,,,,,,,,0.7868,1,,,,,,,,,,,,,,,,,,,,,,,-0.364814808,-0.270254771,1,0,0,,,,,,,STOVE,HB,z,m,./images/STOVEHB.png,,,,,,,,,,,,,,,,,,,,,0,-0.364814808,-0.270254771,1,0,0,0.7868,button_left_test,0,29,29,86,1
,,,,,,,,,,,,,,,,,6111753718d92612abc8f41c,31,2022-02-12_14h24.04.209,lexical_decision_task_DD_L3,2021.2.3,Linux aarch64,59.9880024,,,,,,,,,,0.7363,1,,,,,,,,,,,,,,,,,,,,,,,0.393518527,-0.252662182,1,0,0,,,,,,,PEACH,HB,m,m,./images/PEACHHB.png,,,,,,,,,,,,,,,,,,,,,0,0.393518527,-0.252662182,1,0,0,0.7363,button_right_test,0,30,30,35,1
,,,,,,,,,,,,,,,,,6111753718d92612abc8f41c,31,2022-02-12_14h24.04.209,lexical_decision_task_DD_L3,2021.2.3,Linux aarch64,59.9880024,,,,,,,,,,1.1241,1,,,,,,,,,,,,,,,,,,,,,,,0.397222281,-0.252662182,1,0,0,,,,,,,SWING,C,m,m,./images/SWING.png,,,,,,,,,,,,,,,,,,,,,0,0.397222281,-0.252662182,1,0,0,1.1241,button_right_test,0,31,31,40,1
,,,,,,,,,,,,,,,,,6111753718d92612abc8f41c,31,2022-02-12_14h24.04.209,lexical_decision_task_DD_L3,2021.2.3,Linux aarch64,59.9880024,,,,,,,,,,0.8751,1,,,,,,,,,,,,,,,,,,,,,,,-0.346296291,-0.273958365,1,0,0,,,,,,,FERRY,LB,z,m,./images/FERRYLB.png,,,,,,,,,,,,,,,,,,,,,0,-0.346296291,-0.273958365,1,0,0,0.8751,button_left_test,0,32,32,141,1
,,,,,,,,,,,,,,,,,6111753718d92612abc8f41c,31,2022-02-12_14h24.04.209,lexical_decision_task_DD_L3,2021.2.3,Linux aarch64,59.9880024,,,,,,,,,,0.7749,1,,,,,,,,,,,,,,,,,,,,,,,0.375,-0.267476877,1,0,0,,,,,,,GREASE,LB,m,m,./images/GREASELB.png,,,,,,,,,,,,,,,,,,,,,0,0.375,-0.267476877,1,0,0,0.7749,button_right_test,0,33,33,15,1
,,,,,,,,,,,,,,,,,6111753718d92612abc8f41c,31,2022-02-12_14h24.04.209,lexical_decision_task_DD_L3,2021.2.3,Linux aarch64,59.9880024,,,,,,,,,,0.6967,0,,,,,,,,,,,,,,,,,,,,,,,0.400000016,-0.246180693,1,0,0,,,,,,,HAMMER,LB,z,m,./images/HAMMERLB.png,,,,,,,,,,,,,,,,,,,,,0,0.400000016,-0.246180693,1,0,0,0.6967,button_right_test,0,34,34,159,1
,,,,,,,,,,,,,,,,,6111753718d92612abc8f41c,31,2022-02-12_14h24.04.209,lexical_decision_task_DD_L3,2021.2.3,Linux aarch64,59.9880024,,,,,,,,,,1.1468,1,,,,,,,,,,,,,,,,,,,,,,,0.371296406,-0.262847265,1,0,0,,,,,,,MIRROR,LB,m,m,./images/MIRRORLB.png,,,,,,,,,,,,,,,,,,,,,0,0.371296406,-0.262847265,1,0,0,1.1468,button_right_test,0,35,35,63,1
,,,,,,,,,,,,,,,,,6111753718d92612abc8f41c,31,2022-02-12_14h24.04.209,lexical_decision_task_DD_L3,2021.2.3,Linux aarch64,59.9880024,,,,,,,,,,0.7244,1,,,,,,,,,,,,,,,,,,,,,,,0.376851877,-0.265625,1,0,0,,,,,,,CRUMB,HB,m,m,./images/CRUMBHB.png,,,,,,,,,,,,,,,,,,,,,0,0.376851877,-0.265625,1,0,0,0.7244,button_right_test,0,36,36,29,1
,,,,,,,,,,,,,,,,,6111753718d92612abc8f41c,31,2022-02-12_14h24.04.209,lexical_decision_task_DD_L3,2021.2.3,Linux aarch64,59.9880024,,,,,,,,,,1.1992,0,,,,,,,,,,,,,,,,,,,,,,,0.400000016,-0.240625143,1,0,0,,,,,,,VALLEY,HB,z,m,./images/VALLEYHB.png,,,,,,,,,,,,,,,,,,,,,0,0.400000016,-0.240625143,1,0,0,1.1992,button_right_test,0,37,37,152,1
,,,,,,,,,,,,,,,,,6111753718d92612abc8f41c,31,2022-02-12_14h24.04.209,lexical_decision_task_DD_L3,2021.2.3,Linux aarch64,59.9880024,,,,,,,,,,0.7438,1,,,,,,,,,,,,,,,,,,,,,,,0.38055555,-0.248958349,1,0,0,,,,,,,INFANT,C,m,m,./images/INFANT.png,,,,,,,,,,,,,,,,,,,,,0,0.38055555,-0.248958349,1,0,0,0.7438,button_right_test,0,38,38,76,1
,,,,,,,,,,,,,,,,,6111753718d92612abc8f41c,31,2022-02-12_14h24.04.209,lexical_decision_task_DD_L3,2021.2.3,Linux aarch64,59.9880024,,,,,,,,,,1.1181,0,,,,,,,,,,,,,,,,,,,,,,,0.370370388,-0.260995388,1,0,0,,,,,,,PILOT,HB,z,m,./images/PILOTHB.png,,,,,,,,,,,,,,,,,,,,,0,0.370370388,-0.260995388,1,0,0,1.1181,button_right_test,0,39,39,134,1
,,,,,,,,,,,,,,,,,6111753718d92612abc8f41c,31,2022-02-12_14h24.04.209,lexical_decision_task_DD_L3,2021.2.3,Linux aarch64,59.9880024,,,,,,,,,,1.0233,1,,,,,,,,,,,,,,,,,,,,,,,-0.374074072,-0.303587993,1,0,0,,,,,,,STREAM,HB,z,m,./images/STREAMHB.png,,,,,,,,,,,,,,,,,,,,,0,-0.374074072,-0.303587993,1,0,0,1.0233,button_left_test,0,40,40,125,1
,,,,,,,,,,,,,,,,,6111753718d92612abc8f41c,31,2022-02-12_14h24.04.209,lexical_decision_task_DD_L3,2021.2.3,Linux aarch64,59.9880024,,,,,,,,,,0.7923,0,,,,,,,,,,,,,,,,,,,,,,,0.050000072,-0.391551018,1,0,0,,,,,,,BUNNY,C,z,m,./images/BUNNY.png,break_done_button,,,,,,,,,,,,,,,,,,,,0,0.388888915,-0.250810226,1,0,0,0.7923,button_right_test,0,41,41,97,1
,,,,,,,,,,,,,,,,,6111753718d92612abc8f41c,31,2022-02-12_14h24.04.209,lexical_decision_task_DD_L3,2021.2.3,Linux aarch64,59.9880024,,,,,,,,,,1.8375,1,,,,,,,,,,,,,,,,,,,,,,,0.315740744,-0.261921326,1,0,0,,,,,,,WALRUS,HB,m,m,./images/WALRUSHB.png,,,,,,,,,,,,,,,,,,,,,0,0.315740744,-0.261921326,1,0,0,1.8375,button_right_test,0,42,42,23,1
,,,,,,,,,,,,,,,,,6111753718d92612abc8f41c,31,2022-02-12_14h24.04.209,lexical_decision_task_DD_L3,2021.2.3,Linux aarch64,59.9880024,,,,,,,,,,1.1019,0,,,,,,,,,,,,,,,,,,,,,,,0.338888884,-0.264699221,1,0,0,,,,,,,BRUSH,HB,z,m,./images/BRUSHHB.png,,,,,,,,,,,,,,,,,,,,,0,0.338888884,-0.264699221,1,0,0,1.1019,button_right_test,0,43,43,143,1
,,,,,,,,,,,,,,,,,6111753718d92612abc8f41c,31,2022-02-12_14h24.04.209,lexical_decision_task_DD_L3,2021.2.3,Linux aarch64,59.9880024,,,,,,,,,,0.7904,1,,,,,,,,,,,,,,,,,,,,,,,0.355555614,-0.255439838,1,0,0,,,,,,,ATTIC,LB,m,m,./images/ATTICLB.png,,,,,,,,,,,,,,,,,,,,,0,0.355555614,-0.255439838,1,0,0,0.7904,button_right_test,0,44,44,27,1
,,,,,,,,,,,,,,,,,6111753718d92612abc8f41c,31,2022-02-12_14h24.04.209,lexical_decision_task_DD_L3,2021.2.3,Linux aarch64,59.9880024,,,,,,,,,,1.3063,1,,,,,,,,,,,,,,,,,,,,,,,0.319444497,-0.288773139,1,0,0,,,,,,,WRIST,C,m,m,./images/WRIST.png,,,,,,,,,,,,,,,,,,,,,0,0.319444497,-0.288773139,1,0,0,1.3063,button_right_test,0,45,45,25,1
,,,,,,,,,,,,,,,,,6111753718d92612abc8f41c,31,2022-02-12_14h24.04.209,lexical_decision_task_DD_L3,2021.2.3,Linux aarch64,59.9880024,,,,,,,,,,1.3755,0,,,,,,,,,,,,,,,,,,,,,,,0.347222249,-0.243402799,1,0,0,,,,,,,PISTOL,HB,z,m,./images/PISTOLHB.png,,,,,,,,,,,,,,,,,,,,,0,0.347222249,-0.243402799,1,0,0,1.3755,button_right_test,0,46,46,113,1
,,,,,,,,,,,,,,,,,6111753718d92612abc8f41c,31,2022-02-12_14h24.04.209,lexical_decision_task_DD_L3,2021.2.3,Linux aarch64,59.9880024,,,,,,,,,,1.0577,0,,,,,,,,,,,,,,,,,,,,,,,-0.376851847,-0.313773155,1,0,0,,,,,,,TRIPOD,LB,m,m,./images/TRIPODLB.png,,,,,,,,,,,,,,,,,,,,,0,-0.376851847,-0.313773155,1,0,0,1.0577,button_left_test,0,47,47,54,1
,,,,,,,,,,,,,,,,,6111753718d92612abc8f41c,31,2022-02-12_14h24.04.209,lexical_decision_task_DD_L3,2021.2.3,Linux aarch64,59.9880024,,,,,,,,,,1.9077,1,,,,,,,,,,,,,,,,,,,,,,,0.326851845,-0.26006945,1,0,0,,,,,,,CEMENT,HB,m,m,./images/CEMENTHB.png,,,,,,,,,,,,,,,,,,,,,0,0.326851845,-0.26006945,1,0,0,1.9077,button_right_test,0,48,48,74,1
,,,,,,,,,,,,,,,,,6111753718d92612abc8f41c,31,2022-02-12_14h24.04.209,lexical_decision_task_DD_L3,2021.2.3,Linux aarch64,59.9880024,,,,,,,,,,1.1246,1,,,,,,,,,,,,,,,,,,,,,,,-0.399074068,-0.244328737,1,0,0,,,,,,,SHIELD,LB,z,m,./images/SHIELDLB.png,,,,,,,,,,,,,,,,,,,,,0,-0.399074068,-0.244328737,1,0,0,1.1246,button_left_test,0,49,49,132,1
,,,,,,,,,,,,,,,,,6111753718d92612abc8f41c,31,2022-02-12_14h24.04.209,lexical_decision_task_DD_L3,2021.2.3,Linux aarch64,59.9880024,,,,,,,,,,0.9053,0,,,,,,,,,,,,,,,,,,,,,,,0.319444497,-0.252662182,1,0,0,,,,,,,CASINO,C,z,m,./images/CASINO.png,,,,,,,,,,,,,,,,,,,,,0,0.319444497,-0.252662182,1,0,0,0.9053,button_right_test,0,50,50,112,1
,,,,,,,,,,,,,,,,,6111753718d92612abc8f41c,31,2022-02-12_14h24.04.209,lexical_decision_task_DD_L3,2021.2.3,Linux aarch64,59.9880024,,,,,,,,,,1.0749,1,,,,,,,,,,,,,,,,,,,,,,,-0.41759259,-0.289699078,1,0,0,,,,,,,TIGER,C,z,m,./images/TIGER.png,,,,,,,,,,,,,,,,,,,,,0,-0.41759259,-0.289699078,1,0,0,1.0749,button_left_test,0,51,51,121,1
,,,,,,,,,,,,,,,,,6111753718d92612abc8f41c,31,2022-02-12_14h24.04.209,lexical_decision_task_DD_L3,2021.2.3,Linux aarch64,59.9880024,,,,,,,,,,1.1631,1,,,,,,,,,,,,,,,,,,,,,,,0.309259256,-0.273032427,1,0,0,,,,,,,JUNGLE,HB,m,m,./images/JUNGLEHB.png,,,,,,,,,,,,,,,,,,,,,0,0.309259256,-0.273032427,1,0,0,1.1631,button_right_test,0,52,52,83,1
,,,,,,,,,,,,,,,,,6111753718d92612abc8f41c,31,2022-02-12_14h24.04.209,lexical_decision_task_DD_L3,2021.2.3,Linux aarch64,59.9880024,,,,,,,,,,0.741,1,,,,,,,,,,,,,,,,,,,,,,,0.334259272,-0.252662182,1,0,0,,,,,,,PICKLE,HB,m,m,./images/PICKLEHB.png,,,,,,,,,,,,,,,,,,,,,0,0.334259272,-0.252662182,1,0,0,0.741,button_right_test,0,53,53,14,1
,,,,,,,,,,,,,,,,,6111753718d92612abc8f41c,31,2022-02-12_14h24.04.209,lexical_decision_task_DD_L3,2021.2.3,Linux aarch64,59.9880024,,,,,,,,,,1.4084,0,,,,,,,,,,,,,,,,,,,,,,,0.350925922,-0.238773187,1,0,0,,,,,,,POKER,C,z,m,./images/POKER.png,,,,,,,,,,,,,,,,,,,,,0,0.350925922,-0.238773187,1,0,0,1.4084,button_right_test,0,54,54,151,1
,,,,,,,,,,,,,,,,,6111753718d92612abc8f41c,31,2022-02-12_14h24.04.209,lexical_decision_task_DD_L3,2021.2.3,Linux aarch64,59.9880024,,,,,,,,,,0.97,1,,,,,,,,,,,,,,,,,,,,,,,0.34074076,-0.248958349,1,0,0,,,,,,,TORCH,HB,m,m,./images/TORCHHB.png,,,,,,,,,,,,,,,,,,,,,0,0.34074076,-0.248958349,1,0,0,0.97,button_right_test,0,55,55,68,1
,,,,,,,,,,,,,,,,,6111753718d92612abc8f41c,31,2022-02-12_14h24.04.209,lexical_decision_task_DD_L3,2021.2.3,Linux aarch64,59.9880024,,,,,,,,,,1.5075,1,,,,,,,,,,,,,,,,,,,,,,,-0.412962963,-0.303587993,1,0,0,,,,,,,STOOL,C,z,m,./images/STOOL.png,,,,,,,,,,,,,,,,,,,,,0,-0.412962963,-0.303587993,1,0,0,1.5075,button_left_test,0,56,56,127,1
,,,,,,,,,,,,,,,,,6111753718d92612abc8f41c,31,2022-02-12_14h24.04.209,lexical_decision_task_DD_L3,2021.2.3,Linux aarch64,59.9880024,,,,,,,,,,0.9578,1,,,,,,,,,,,,,,,,,,,,,,,-0.422222222,-0.296180566,1,0,0,,,,,,,GLOVE,C,z,m,./images/GLOVE.png,,,,,,,,,,,,,,,,,,,,,0,-0.422222222,-0.296180566,1,0,0,0.9578,button_left_test,0,57,57,157,1
,,,,,,,,,,,,,,,,,6111753718d92612abc8f41c,31,2022-02-12_14h24.04.209,lexical_decision_task_DD_L3,2021.2.3,Linux aarch64,59.9880024,,,,,,,,,,0.8175,1,,,,,,,,,,,,,,,,,,,,,,,-0.419444442,-0.298032443,1,0,0,,,,,,,SNAKE,C,z,m,./images/SNAKE.png,,,,,,,,,,,,,,,,,,,,,0,-0.419444442,-0.298032443,1,0,0,0.8175,button_left_test,0,58,58,124,1
,,,,,,,,,,,,,,,,,6111753718d92612abc8f41c,31,2022-02-12_14h24.04.209,lexical_decision_task_DD_L3,2021.2.3,Linux aarch64,59.9880024,,,,,,,,,,0.8326,1,,,,,,,,,,,,,,,,,,,,,,,0.337037086,-0.241550922,1,0,0,,,,,,,SQUARE,LB,m,m,./images/SQUARELB.png,,,,,,,,,,,,,,,,,,,,,0,0.337037086,-0.241550922,1,0,0,0.8326,button_right_test,0,59,59,6,1
,,,,,,,,,,,,,,,,,6111753718d92612abc8f41c,31,2022-02-12_14h24.04.209,lexical_decision_task_DD_L3,2021.2.3,Linux aarch64,59.9880024,,,,,,,,,,0.8291,0,,,,,,,,,,,,,,,,,,,,,,,0.336111148,-0.248958349,1,0,0,,,,,,,CLOWN,C,z,m,./images/CLOWN.png,,,,,,,,,,,,,,,,,,,,,0,0.336111148,-0.248958349,1,0,0,0.8291,button_right_test,0,60,60,106,1
,,,,,,,,,,,,,,,,,6111753718d92612abc8f41c,31,2022-02-12_14h24.04.209,lexical_decision_task_DD_L3,2021.2.3,Linux aarch64,59.9880024,,,,,,,,,,0.7772,1,,,,,,,,,,,,,,,,,,,,,,,0.330555598,-0.224884272,1,0,0,,,,,,,SUNSET,C,m,m,./images/SUNSET.png,,,,,,,,,,,,,,,,,,,,,0,0.330555598,-0.224884272,1,0,0,0.7772,button_right_test,0,61,61,82,1
,,,,,,,,,,,,,,,,,6111753718d92612abc8f41c,31,2022-02-12_14h24.04.209,lexical_decision_task_DD_L3,2021.2.3,Linux aarch64,59.9880024,,,,,,,,,,1.3354,1,,,,,,,,,,,,,,,,,,,,,,,-0.412962963,-0.285069466,1,0,0,,,,,,,SAUNA,LB,z,m,./images/SAUNALB.png,,,,,,,,,,,,,,,,,,,,,0,-0.412962963,-0.285069466,1,0,0,1.3354,button_left_test,0,62,62,117,1
,,,,,,,,,,,,,,,,,6111753718d92612abc8f41c,31,2022-02-12_14h24.04.209,lexical_decision_task_DD_L3,2021.2.3,Linux aarch64,59.9880024,,,,,,,,,,0.7457,1,,,,,,,,,,,,,,,,,,,,,,,0.330555598,-0.242476861,1,0,0,,,,,,,MELON,C,m,m,./images/MELON.png,,,,,,,,,,,,,,,,,,,,,0,0.330555598,-0.242476861,1,0,0,0.7457,button_right_test,0,63,63,22,1
,,,,,,,,,,,,,,,,,6111753718d92612abc8f41c,31,2022-02-12_14h24.04.209,lexical_decision_task_DD_L3,2021.2.3,Linux aarch64,59.9880024,,,,,,,,,,1.3246,0,,,,,,,,,,,,,,,,,,,,,,,0.336111148,-0.228588104,1,0,0,,,,,,,MIDGET,C,z,m,./images/MIDGET.png,,,,,,,,,,,,,,,,,,,,,0,0.336111148,-0.228588104,1,0,0,1.3246,button_right_test,0,64,64,160,1
,,,,,,,,,,,,,,,,,6111753718d92612abc8f41c,31,2022-02-12_14h24.04.209,lexical_decision_task_DD_L3,2021.2.3,Linux aarch64,59.9880024,,,,,,,,,,0.8097,1,,,,,,,,,,,,,,,,,,,,,,,0.323148171,-0.252662182,1,0,0,,,,,,,PLANK,C,m,m,./images/PLANK.png,,,,,,,,,,,,,,,,,,,,,0,0.323148171,-0.252662182,1,0,0,0.8097,button_right_test,0,65,65,1,1
,,,,,,,,,,,,,,,,,6111753718d92612abc8f41c,31,2022-02-12_14h24.04.209,lexical_decision_task_DD_L3,2021.2.3,Linux aarch64,59.9880024,,,,,,,,,,1.2302,1,,,,,,,,,,,,,,,,,,,,,,,0.355555614,-0.228588104,1,0,0,,,,,,,QUILL,C,m,m,./images/QUILL.png,,,,,,,,,,,,,,,,,,,,,0,0.355555614,-0.228588104,1,0,0,1.2302,button_right_test,0,66,66,31,1
,,,,,,,,,,,,,,,,,6111753718d92612abc8f41c,31,2022-02-12_14h24.04.209,lexical_decision_task_DD_L3,2021.2.3,Linux aarch64,59.9880024,,,,,,,,,,1.0055,0,,,,,,,,,,,,,,,,,,,,,,,0.33518521,-0.248958349,1,0,0,,,,,,,MEDAL,HB,z,m,./images/MEDALHB.png,,,,,,,,,,,,,,,,,,,,,0,0.33518521,-0.248958349,1,0,0,1.0055,button_right_test,0,67,67,95,1
,,,,,,,,,,,,,,,,,6111753718d92612abc8f41c,31,2022-02-12_14h24.04.209,lexical_decision_task_DD_L3,2021.2.3,Linux aarch64,59.9880024,,,,,,,,,,1.0082,1,,,,,,,,,,,,,,,,,,,,,,,0.339814822,-0.247106473,1,0,0,,,,,,,JAGUAR,LB,m,m,./images/JAGUARLB.png,,,,,,,,,,,,,,,,,,,,,0,0.339814822,-0.247106473,1,0,0,1.0082,button_right_test,0,68,68,18,1
,,,,,,,,,,,,,,,,,6111753718d92612abc8f41c,31,2022-02-12_14h24.04.209,lexical_decision_task_DD_L3,2021.2.3,Linux aarch64,59.9880024,,,,,,,,,,1.193,0,,,,,,,,,,,,,,,,,,,,,,,0.341666778,-0.235069593,1,0,0,,,,,,,BUTTER,LB,z,m,./images/BUTTERLB.png,,,,,,,,,,,,,,,,,,,,,0,0.341666778,-0.235069593,1,0,0,1.193,button_right_test,0,69,69,111,1
,,,,,,,,,,,,,,,,,6111753718d92612abc8f41c,31,2022-02-12_14h24.04.209,lexical_decision_task_DD_L3,2021.2.3,Linux aarch64,59.9880024,,,,,,,,,,0.8557,1,,,,,,,,,,,,,,,,,,,,,,,-0.396296283,-0.302662055,1,0,0,,,,,,,CURRY,LB,z,m,./images/CURRYLB.png,,,,,,,,,,,,,,,,,,,,,0,-0.396296283,-0.302662055,1,0,0,0.8557,button_left_test,0,70,70,144,1
,,,,,,,,,,,,,,,,,6111753718d92612abc8f41c,31,2022-02-12_14h24.04.209,lexical_decision_task_DD_L3,2021.2.3,Linux aarch64,59.9880024,,,,,,,,,,0.8659,1,,,,,,,,,,,,,,,,,,,,,,,0.342592637,-0.247106473,1,0,0,,,,,,,BABOON,C,m,m,./images/BABOON.png,,,,,,,,,,,,,,,,,,,,,0,0.342592637,-0.247106473,1,0,0,0.8659,button_right_test,0,71,71,58,1
,,,,,,,,,,,,,,,,,6111753718d92612abc8f41c,31,2022-02-12_14h24.04.209,lexical_decision_task_DD_L3,2021.2.3,Linux aarch64,59.9880024,,,,,,,,,,1.1748,1,,,,,,,,,,,,,,,,,,,,,,,0.332407395,-0.242476861,1,0,0,,,,,,,MUSCLE,C,m,m,./images/MUSCLE.png,,,,,,,,,,,,,,,,,,,,,0,0.332407395,-0.242476861,1,0,0,1.1748,button_right_test,0,72,72,4,1
,,,,,,,,,,,,,,,,,6111753718d92612abc8f41c,31,2022-02-12_14h24.04.209,lexical_decision_task_DD_L3,2021.2.3,Linux aarch64,59.9880024,,,,,,,,,,0.7986,0,,,,,,,,,,,,,,,,,,,,,,,0.330555598,-0.245254676,1,0,0,,,,,,,WAGON,C,z,m,./images/WAGON.png,,,,,,,,,,,,,,,,,,,,,0,0.330555598,-0.245254676,1,0,0,0.7986,button_right_test,0,73,73,91,1
,,,,,,,,,,,,,,,,,6111753718d92612abc8f41c,31,2022-02-12_14h24.04.209,lexical_decision_task_DD_L3,2021.2.3,Linux aarch64,59.9880024,,,,,,,,,,1.0163,0,,,,,,,,,,,,,,,,,,,,,,,0.337962945,-0.246180693,1,0,0,,,,,,,BRIDE,C,z,m,./images/BRIDE.png,,,,,,,,,,,,,,,,,,,,,0,0.337962945,-0.246180693,1,0,0,1.0163,button_right_test,0,74,74,148,1
,,,,,,,,,,,,,,,,,6111753718d92612abc8f41c,31,2022-02-12_14h24.04.209,lexical_decision_task_DD_L3,2021.2.3,Linux aarch64,59.9880024,,,,,,,,,,0.8395,1,,,,,,,,,,,,,,,,,,,,,,,0.318518559,-0.247106473,1,0,0,,,,,,,STRING,HB,m,m,./images/STRINGHB.png,,,,,,,,,,,,,,,,,,,,,0,0.318518559,-0.247106473,1,0,0,0.8395,button_right_test,0,75,75,41,1
,,,,,,,,,,,,,,,,,6111753718d92612abc8f41c,31,2022-02-12_14h24.04.209,lexical_decision_task_DD_L3,2021.2.3,Linux aarch64,59.9880024,,,,,,,,,,0.7568,1,,,,,,,,,,,,,,,,,,,,,,,0.332407395,-0.239699125,1,0,0,,,,,,,MAGGOT,LB,m,m,./images/MAGGOTLB.png,,,,,,,,,,,,,,,,,,,,,0,0.332407395,-0.239699125,1,0,0,0.7568,button_right_test,0,76,76,33,1
,,,,,,,,,,,,,,,,,6111753718d92612abc8f41c,31,2022-02-12_14h24.04.209,lexical_decision_task_DD_L3,2021.2.3,Linux aarch64,59.9880024,,,,,,,,,,1.4741,1,,,,,,,,,,,,,,,,,,,,,,,0.30648152,-0.257291714,1,0,0,,,,,,,LITTER,LB,m,m,./images/LITTERLB.png,,,,,,,,,,,,,,,,,,,,,0,0.30648152,-0.257291714,1,0,0,1.4741,button_right_test,0,77,77,78,1
,,,,,,,,,,,,,,,,,6111753718d92612abc8f41c,31,2022-02-12_14h24.04.209,lexical_decision_task_DD_L3,2021.2.3,Linux aarch64,59.9880024,,,,,,,,,,1.4145,1,,,,,,,,,,,,,,,,,,,,,,,-0.396296283,-0.308217605,1,0,0,,,,,,,CANOE,C,z,m,./images/CANOE.png,,,,,,,,,,,,,,,,,,,,,0,-0.396296283,-0.308217605,1,0,0,1.4145,button_left_test,0,78,78,142,1
,,,,,,,,,,,,,,,,,6111753718d92612abc8f41c,31,2022-02-12_14h24.04.209,lexical_decision_task_DD_L3,2021.2.3,Linux aarch64,59.9880024,,,,,,,,,,1.422,0,,,,,,,,,,,,,,,,,,,,,,,0.323148171,-0.246180693,1,0,0,,,,,,,COLLAR,LB,z,m,./images/COLLARLB.png,,,,,,,,,,,,,,,,,,,,,0,0.323148171,-0.246180693,1,0,0,1.422,button_right_test,0,79,79,99,1
,,,,,,,,,,,,,,,,,6111753718d92612abc8f41c,31,2022-02-12_14h24.04.209,lexical_decision_task_DD_L3,2021.2.3,Linux aarch64,59.9880024,,,,,,,,,,1.4111,0,,,,,,,,,,,,,,,,,,,,,,,0.342592637,-0.211921295,1,0,0,,,,,,,ARROW,LB,z,m,./images/ARROWLB.png,,,,,,,,,,,,,,,,,,,,,0,0.342592637,-0.211921295,1,0,0,1.4111,button_right_test,0,80,80,153,1
,,,,,,,,,,,,,,,,,6111753718d92612abc8f41c,31,2022-02-12_14h24.04.209,lexical_decision_task_DD_L3,2021.2.3,Linux aarch64,59.9880024,,,,,,,,,,1.7259,0,,,,,,,,,,,,,,,,,,,,,,,0.333333333,-0.229513884,1,0,0,,,,,,,CHAIN,LB,z,m,./images/CHAINLB.png,,,,,,,,,,,,,,,,,,,,,0,0.333333333,-0.229513884,1,0,0,1.7259,button_right_test,0,81,81,126,1
,,,,,,,,,,,,,,,,,6111753718d92612abc8f41c,31,2022-02-12_14h24.04.209,lexical_decision_task_DD_L3,2021.2.3,Linux aarch64,59.9880024,,,,,,,,,,1.1563,0,,,,,,,,,,,,,,,,,,,,,,,-0.407407403,-0.296180566,1,0,0,,,,,,,PASTA,HB,m,m,./images/PASTAHB.png,,,,,,,,,,,,,,,,,,,,,0,-0.407407403,-0.296180566,1,0,0,1.1563,button_left_test,0,82,82,5,1
,,,,,,,,,,,,,,,,,6111753718d92612abc8f41c,31,2022-02-12_14h24.04.209,lexical_decision_task_DD_L3,2021.2.3,Linux aarch64,59.9880024,,,,,,,,,,0.939,1,,,,,,,,,,,,,,,,,,,,,,,0.081481496,-0.394328753,1,0,0,,,,,,,BERRY,HB,m,m,./images/BERRYHB.png,break_done_button,,,,,,,,,,,,,,,,,,,,0,0.336111148,-0.232291698,1,0,0,0.939,button_right_test,0,83,83,47,1
,,,,,,,,,,,,,,,,,6111753718d92612abc8f41c,31,2022-02-12_14h24.04.209,lexical_decision_task_DD_L3,2021.2.3,Linux aarch64,59.9880024,,,,,,,,,,2.4455,1,,,,,,,,,,,,,,,,,,,,,,,-0.396296283,-0.286921342,1,0,0,,,,,,,LAGOON,HB,z,m,./images/LAGOONHB.png,,,,,,,,,,,,,,,,,,,,,0,-0.396296283,-0.286921342,1,0,0,2.4455,button_left_test,0,84,84,131,1
,,,,,,,,,,,,,,,,,6111753718d92612abc8f41c,31,2022-02-12_14h24.04.209,lexical_decision_task_DD_L3,2021.2.3,Linux aarch64,59.9880024,,,,,,,,,,0.9614,1,,,,,,,,,,,,,,,,,,,,,,,-0.41481481,-0.267476877,1,0,0,,,,,,,BROOM,LB,z,m,./images/BROOMLB.png,,,,,,,,,,,,,,,,,,,,,0,-0.41481481,-0.267476877,1,0,0,0.9614,button_left_test,0,85,85,162,1
,,,,,,,,,,,,,,,,,6111753718d92612abc8f41c,31,2022-02-12_14h24.04.209,lexical_decision_task_DD_L3,2021.2.3,Linux aarch64,59.9880024,,,,,,,,,,0.8411,1,,,,,,,,,,,,,,,,,,,,,,,0.345370372,-0.23136576,1,0,0,,,,,,,SCREW,LB,m,m,./images/SCREWLB.png,,,,,,,,,,,,,,,,,,,,,0,0.345370372,-0.23136576,1,0,0,0.8411,button_right_test,0,86,86,24,1
,,,,,,,,,,,,,,,,,6111753718d92612abc8f41c,31,2022-02-12_14h24.04.209,lexical_decision_task_DD_L3,2021.2.3,Linux aarch64,59.9880024,,,,,,,,,,1.4051,1,,,,,,,,,,,,,,,,,,,,,,,0.334259272,-0.233217637,1,0,0,,,,,,,PENCE,C,m,m,./images/PENCE.png,,,,,,,,,,,,,,,,,,,,,0,0.334259272,-0.233217637,1,0,0,1.4051,button_right_test,0,87,87,16,1
,,,,,,,,,,,,,,,,,6111753718d92612abc8f41c,31,2022-02-12_14h24.04.209,lexical_decision_task_DD_L3,2021.2.3,Linux aarch64,59.9880024,,,,,,,,,,0.7903,0,,,,,,,,,,,,,,,,,,,,,,,0.345370372,-0.222106536,1,0,0,,,,,,,FLASK,LB,z,m,./images/FLASKLB.png,,,,,,,,,,,,,,,,,,,,,0,0.345370372,-0.222106536,1,0,0,0.7903,button_right_test,0,88,88,156,1
