key_resp.keys,instr_done_touch.x,instr_done_touch.y,instr_done_touch.leftButton,instr_done_touch.midButton,instr_done_touch.rightButton,instr_done_touch.clicked_name,instruction_pages.thisRepN,instruction_pages.thisTrialN,instruction_pages.thisN,instruction_pages.thisIndex,instruction_pages.ran,pageN,phase,instruct_text,has_image,instruct_image,participant,age,date,expName,psychopyVersion,OS,frameRate,response.keys,response.corr,touch_resp.x,touch_resp.y,touch_resp.leftButton,touch_resp.midButton,touch_resp.rightButton,touch_resp.time,touch_resp.clicked_name,rt,corr,practrials.thisRepN,practrials.thisTrialN,practrials.thisN,practrials.thisIndex,practrials.ran,TrialID,Target,corrAns,end_of_practice_trials_pages.thisRepN,end_of_practice_trials_pages.thisTrialN,end_of_practice_trials_pages.thisN,end_of_practice_trials_pages.thisIndex,end_of_practice_trials_pages.ran,key_resp_2.keys,key_resp_2.corr,targ_click.x,targ_click.y,targ_click.leftButton,targ_click.midButton,targ_click.rightButton,targ_click.time,targ_click.clicked_name,break_done_touch.x,break_done_touch.y,break_done_touch.leftButton,break_done_touch.midButton,break_done_touch.rightButton,break_done_keyboard.keys,maintrials.thisRepN,maintrials.thisTrialN,maintrials.thisN,maintrials.thisIndex,maintrials.ran,string,blur,study,lex,stim_path,break_done_touch.clicked_name,mouse_2.x,mouse_2.y,mouse_2.leftButton,mouse_2.midButton,mouse_2.rightButton,mouse_2.clicked_name,slider.response,slider.rt,trials.thisRepN,trials.thisTrialN,trials.thisN,trials.thisIndex,trials.ran,test_instructions.thisRepN,test_instructions.thisTrialN,test_instructions.thisN,test_instructions.thisIndex,test_instructions.ran,key_resp_3.keys,key_resp_3.corr,test_click.x,test_click.y,test_click.leftButton,test_click.midButton,test_click.rightButton,test_click.time,test_click.clicked_name,test_phase.thisRepN,test_phase.thisTrialN,test_phase.thisN,test_phase.thisIndex,test_phase.ran
,0.047767775,-0.409206555,1,0,0,instr_done_button,0,0,0,0,1,1,instructions,"INSTRUCTIONS
At the start of each trial, look at the plus sign  (+) in the center of the screen.  This tells you that a trial is about to begin and where to look. Second, the plus sign will disappear and a string of letters will appear. Your task is to determine if the string of letters is a word or not. If the item is a word press the M key (on keyboard)  or touch the word button (phone/tablet).  If the item is not a word,  press the  Z key (on keyboard)  or touch the nonword button (on phone/tablet). 
Press the space bar or touch  continue.",0,,6155c391189863bfe2e4a593,31,2022-02-12_16h55.41.321,lexical_decision_task_DD_L3,2021.2.3,Linux armv8l,59.57345407,,,,,,,,,,,,,,,,,,,,,,,,,,,,,,,,,,,,,,,,,,,,,,,,,,,,,,,,,,,,,,,,,,,,,,,,,,,,,,,,,,
,0.134744465,-0.412907802,1,0,0,instr_done_button,0,1,1,1,1,2,instructions,"If your device has a keyboard, press the 'Z' key for nonwords and the 'M' key for words.





Press the space bar or touch the button below to continue.",0,keyboard-example.gif,6155c391189863bfe2e4a593,31,2022-02-12_16h55.41.321,lexical_decision_task_DD_L3,2021.2.3,Linux armv8l,59.57345407,,,,,,,,,,,,,,,,,,,,,,,,,,,,,,,,,,,,,,,,,,,,,,,,,,,,,,,,,,,,,,,,,,,,,,,,,,,,,,,,,,
,0.017233424,-0.431413413,1,0,0,instr_done_button,0,2,2,2,1,3,instructions,"If you are using a touchscreen only device, use the buttons on the screen. Do not use the mouse.





Press the space bar or touch the button below to continue.",0,touchscreen-example.gif,6155c391189863bfe2e4a593,31,2022-02-12_16h55.41.321,lexical_decision_task_DD_L3,2021.2.3,Linux armv8l,59.57345407,,,,,,,,,,,,,,,,,,,,,,,,,,,,,,,,,,,,,,,,,,,,,,,,,,,,,,,,,,,,,,,,,,,,,,,,,,,,,,,,,,
,0.083853879,-0.396252659,1,0,0,instr_done_button,0,3,3,3,1,4,instructions,"It is very important that you respond as quickly and accurately as possible, as each letter string will only be on the screen for two seconds. If you do not respond within this time, the message 'Too slow!' will be displayed and the experiment will progress to the next letter string. The first 20 trials will be practice trials and you will receive feedback on your answers. 

Press the space bar or touch the button below to start the practice trials.",0,,6155c391189863bfe2e4a593,31,2022-02-12_16h55.41.321,lexical_decision_task_DD_L3,2021.2.3,Linux armv8l,59.57345407,,,,,,,,,,,,,,,,,,,,,,,,,,,,,,,,,,,,,,,,,,,,,,,,,,,,,,,,,,,,,,,,,,,,,,,,,,,,,,,,,,
,,,,,,,,,,,,,,,,,6155c391189863bfe2e4a593,31,2022-02-12_16h55.41.321,lexical_decision_task_DD_L3,2021.2.3,Linux armv8l,59.57345407,,0,0.400300781,-0.28336806,1,0,0,1.2144,button_right,1.2144,1,0,0,0,0,1,1001,UTOPIA,m,,,,,,,,,,,,,,,,,,,,,,,,,,,,,,,,,,,,,,,,,,,,,,,,,,,,,,,,,,,,,,,
,,,,,,,,,,,,,,,,,6155c391189863bfe2e4a593,31,2022-02-12_16h55.41.321,lexical_decision_task_DD_L3,2021.2.3,Linux armv8l,59.57345407,,0,0.391973287,-0.302798982,1,0,0,0.6083,button_right,0.6083,1,0,1,1,3,1,1001,MATRIX,m,,,,,,,,,,,,,,,,,,,,,,,,,,,,,,,,,,,,,,,,,,,,,,,,,,,,,,,,,,,,,,,
,,,,,,,,,,,,,,,,,6155c391189863bfe2e4a593,31,2022-02-12_16h55.41.321,lexical_decision_task_DD_L3,2021.2.3,Linux armv8l,59.57345407,,0,-0.28533423,-0.313902411,1,0,0,1.3654,button_left,1.3654,1,0,2,2,10,1,1001,INLADE,z,,,,,,,,,,,,,,,,,,,,,,,,,,,,,,,,,,,,,,,,,,,,,,,,,,,,,,,,,,,,,,,
,,,,,,,,,,,,,,,,,6155c391189863bfe2e4a593,31,2022-02-12_16h55.41.321,lexical_decision_task_DD_L3,2021.2.3,Linux armv8l,59.57345407,,0,0.38086978,-0.2759658,1,0,0,0.6148,button_right,0.6148,1,0,3,3,2,1,1001,ALMOND,m,,,,,,,,,,,,,,,,,,,,,,,,,,,,,,,,,,,,,,,,,,,,,,,,,,,,,,,,,,,,,,,
,,,,,,,,,,,,,,,,,6155c391189863bfe2e4a593,31,2022-02-12_16h55.41.321,lexical_decision_task_DD_L3,2021.2.3,Linux armv8l,59.57345407,,0,0.391047898,-0.272264631,1,0,0,0.6675,button_right,0.6675,1,0,4,4,7,1,1001,VOLUME,m,,,,,,,,,,,,,,,,,,,,,,,,,,,,,,,,,,,,,,,,,,,,,,,,,,,,,,,,,,,,,,,
,,,,,,,,,,,,,,,,,6155c391189863bfe2e4a593,31,2022-02-12_16h55.41.321,lexical_decision_task_DD_L3,2021.2.3,Linux armv8l,59.57345407,,0,-0.340851257,-0.276891189,1,0,0,0.746,button_left,0.746,1,0,5,5,9,1,1001,FARINY,z,,,,,,,,,,,,,,,,,,,,,,,,,,,,,,,,,,,,,,,,,,,,,,,,,,,,,,,,,,,,,,,
,,,,,,,,,,,,,,,,,6155c391189863bfe2e4a593,31,2022-02-12_16h55.41.321,lexical_decision_task_DD_L3,2021.2.3,Linux armv8l,59.57345407,,0,-0.365833894,-0.306500229,1,0,0,0.8168,button_left,0.8168,1,0,6,6,8,1,1001,ASLERT,z,,,,,,,,,,,,,,,,,,,,,,,,,,,,,,,,,,,,,,,,,,,,,,,,,,,,,,,,,,,,,,,
,,,,,,,,,,,,,,,,,6155c391189863bfe2e4a593,31,2022-02-12_16h55.41.321,lexical_decision_task_DD_L3,2021.2.3,Linux armv8l,59.57345407,,0,0.378093923,-0.301873671,1,0,0,0.998,button_right,0.998,0,0,7,7,13,1,1001,ROUPET,z,,,,,,,,,,,,,,,,,,,,,,,,,,,,,,,,,,,,,,,,,,,,,,,,,,,,,,,,,,,,,,,
,,,,,,,,,,,,,,,,,6155c391189863bfe2e4a593,31,2022-02-12_16h55.41.321,lexical_decision_task_DD_L3,2021.2.3,Linux armv8l,59.57345407,,0,0.334605598,-0.318528814,1,0,0,0.5993,button_right,0.5993,1,0,8,8,1,1,1001,ADJUST,m,,,,,,,,,,,,,,,,,,,,,,,,,,,,,,,,,,,,,,,,,,,,,,,,,,,,,,,,,,,,,,,
,,,,,,,,,,,,,,,,,6155c391189863bfe2e4a593,31,2022-02-12_16h55.41.321,lexical_decision_task_DD_L3,2021.2.3,Linux armv8l,59.57345407,,0,-0.396368265,-0.278741657,1,0,0,0.8469,button_left,0.8469,1,0,9,9,12,1,1001,SPRINY,z,,,,,,,,,,,,,,,,,,,,,,,,,,,,,,,,,,,,,,,,,,,,,,,,,,,,,,,,,,,,,,,
,,,,,,,,,,,,,,,,,6155c391189863bfe2e4a593,31,2022-02-12_16h55.41.321,lexical_decision_task_DD_L3,2021.2.3,Linux armv8l,59.57345407,,0,-0.358431644,-0.323155216,1,0,0,0.8704,button_left,0.8704,1,0,10,10,11,1,1001,RASHET,z,,,,,,,,,,,,,,,,,,,,,,,,,,,,,,,,,,,,,,,,,,,,,,,,,,,,,,,,,,,,,,,
,,,,,,,,,,,,,,,,,6155c391189863bfe2e4a593,31,2022-02-12_16h55.41.321,lexical_decision_task_DD_L3,2021.2.3,Linux armv8l,59.57345407,,0,0.379944547,-0.277816345,1,0,0,0.5826,button_right,0.5826,1,0,11,11,5,1,1001,OBTAIN,m,,,,,,,,,,,,,,,,,,,,,,,,,,,,,,,,,,,,,,,,,,,,,,,,,,,,,,,,,,,,,,,
,,,,,,,,,,,,,,,,,6155c391189863bfe2e4a593,31,2022-02-12_16h55.41.321,lexical_decision_task_DD_L3,2021.2.3,Linux armv8l,59.57345407,,0,0.364214715,-0.294471488,1,0,0,0.5968,button_right,0.5968,1,0,12,12,6,1,1001,ZOMBIE,m,,,,,,,,,,,,,,,,,,,,,,,,,,,,,,,,,,,,,,,,,,,,,,,,,,,,,,,,,,,,,,,
,,,,,,,,,,,,,,,,,6155c391189863bfe2e4a593,31,2022-02-12_16h55.41.321,lexical_decision_task_DD_L3,2021.2.3,Linux armv8l,59.57345407,,0,-0.395442972,-0.292620865,1,0,0,0.7901,button_left,0.7901,1,0,13,13,14,1,1001,THRALE,z,,,,,,,,,,,,,,,,,,,,,,,,,,,,,,,,,,,,,,,,,,,,,,,,,,,,,,,,,,,,,,,
,,,,,,,,,,,,,,,,,6155c391189863bfe2e4a593,31,2022-02-12_16h55.41.321,lexical_decision_task_DD_L3,2021.2.3,Linux armv8l,59.57345407,,0,-0.402845232,-0.294471488,1,0,0,0.7139,button_left,0.7139,1,0,14,14,15,1,1001,WHAISE,z,,,,,,,,,,,,,,,,,,,,,,,,,,,,,,,,,,,,,,,,,,,,,,,,,,,,,,,,,,,,,,,
,,,,,,,,,,,,,,,,,6155c391189863bfe2e4a593,31,2022-02-12_16h55.41.321,lexical_decision_task_DD_L3,2021.2.3,Linux armv8l,59.57345407,,0,0.382720326,-0.276891189,1,0,0,0.5811,button_right,0.5811,1,0,15,15,4,1,1001,SQUEAK,m,,,,,,,,,,,,,,,,,,,,,,,,,,,,,,,,,,,,,,,,,,,,,,,,,,,,,,,,,,,,,,,
,0.119014594,-0.400879062,1,0,0,instr_done_button,,,,,,1,end_of_practice,"You have completed the practice trials. During the experimental trials, you will not receive feedback. 
Before you begin, please ensure that you are in a comfortable and quiet location and will not be disturbed for about 15 minutes, as we cannot use your data if you do not complete all the trials. 
 When you are ready to start the experimental trials, please press space or touch the button below.",,,6155c391189863bfe2e4a593,31,2022-02-12_16h55.41.321,lexical_decision_task_DD_L3,2021.2.3,Linux armv8l,59.57345407,,,,,,,,,,,,,,,,,,,,0,0,0,0,1,,,,,,,,,,,,,,,,,,,,,,,,,,,,,,,,,,,,,,,,,,,,,,,,,,,,,,,,,,
,,,,,,,,,,,,,,,,,6155c391189863bfe2e4a593,31,2022-02-12_16h55.41.321,lexical_decision_task_DD_L3,2021.2.3,Linux armv8l,59.57345407,,,,,,,,,,2.115,1,,,,,,,,,,,,,,,0,0.40307656,-0.334258645,1,0,0,2.115,button_right_main,0.40307656,-0.334258645,1,0,0,,0,0,0,53,1,CARPET,HB,old,m,./images/CARPETHB.png,,,,,,,,,,,,,,,,,,,,,,,,,,,,,,,,,
,,,,,,,,,,,,,,,,,6155c391189863bfe2e4a593,31,2022-02-12_16h55.41.321,lexical_decision_task_DD_L3,2021.2.3,Linux armv8l,59.57345407,,,,,,,,,,0.5679,0,,,,,,,,,,,,,,,0,0.414179989,-0.279667046,1,0,0,0.5679,button_right_main,0.414179989,-0.279667046,1,0,0,,0,1,1,123,1,SEDGE,C,old,z,./images/SEDGE.png,,,,,,,,,,,,,,,,,,,,,,,,,,,,,,,,,
,,,,,,,,,,,,,,,,,6155c391189863bfe2e4a593,31,2022-02-12_16h55.41.321,lexical_decision_task_DD_L3,2021.2.3,Linux armv8l,59.57345407,,,,,,,,,,1.2691,1,,,,,,,,,,,,,,,0,-0.411172794,-0.332408022,1,0,0,1.2691,button_left_main,-0.411172794,-0.332408022,1,0,0,,0,2,2,136,1,WERVE,HB,old,z,./images/WERVEHB.png,,,,,,,,,,,,,,,,,,,,,,,,,,,,,,,,,
,,,,,,,,,,,,,,,,,6155c391189863bfe2e4a593,31,2022-02-12_16h55.41.321,lexical_decision_task_DD_L3,2021.2.3,Linux armv8l,59.57345407,,,,,,,,,,0.7722,0,,,,,,,,,,,,,,,0,0.412329521,-0.279667046,1,0,0,0.7722,button_right_main,0.412329521,-0.279667046,1,0,0,,0,3,3,119,1,PAFER,LB,old,z,./images/PAFERLB.png,,,,,,,,,,,,,,,,,,,,,,,,,,,,,,,,,
,,,,,,,,,,,,,,,,,6155c391189863bfe2e4a593,31,2022-02-12_16h55.41.321,lexical_decision_task_DD_L3,2021.2.3,Linux armv8l,59.57345407,,,,,,,,,,0.7197,1,,,,,,,,,,,,,,,0,-0.442632428,-0.298172579,1,0,0,0.7197,button_left_main,-0.442632428,-0.298172579,1,0,0,,0,4,4,147,1,ZOLES,C,old,z,./images/ZOLES.png,,,,,,,,,,,,,,,,,,,,,,,,,,,,,,,,,
,,,,,,,,,,,,,,,,,6155c391189863bfe2e4a593,31,2022-02-12_16h55.41.321,lexical_decision_task_DD_L3,2021.2.3,Linux armv8l,59.57345407,,,,,,,,,,0.75,1,,,,,,,,,,,,,,,0,-0.438006006,-0.300023358,1,0,0,0.75,button_left_main,-0.438006006,-0.300023358,1,0,0,,0,5,5,108,1,GRUET,C,old,z,./images/GRUET.png,,,,,,,,,,,,,,,,,,,,,,,,,,,,,,,,,
,,,,,,,,,,,,,,,,,6155c391189863bfe2e4a593,31,2022-02-12_16h55.41.321,lexical_decision_task_DD_L3,2021.2.3,Linux armv8l,59.57345407,,,,,,,,,,0.7998,1,,,,,,,,,,,,,,,0,0.407703041,-0.267638228,1,0,0,0.7998,button_right_main,0.407703041,-0.267638228,1,0,0,,0,6,6,49,1,DRUMS,C,old,m,./images/DRUMS.png,,,,,,,,,,,,,,,,,,,,,,,,,,,,,,,,,
,,,,,,,,,,,,,,,,,6155c391189863bfe2e4a593,31,2022-02-12_16h55.41.321,lexical_decision_task_DD_L3,2021.2.3,Linux armv8l,59.57345407,,,,,,,,,,0.783,1,,,,,,,,,,,,,,,0,-0.406546382,-0.299097891,1,0,0,0.783,button_left_main,-0.406546382,-0.299097891,1,0,0,,0,7,7,155,1,CANGY,LB,old,z,./images/CANGYLB.png,,,,,,,,,,,,,,,,,,,,,,,,,,,,,,,,,
,,,,,,,,,,,,,,,,,6155c391189863bfe2e4a593,31,2022-02-12_16h55.41.321,lexical_decision_task_DD_L3,2021.2.3,Linux armv8l,59.57345407,,,,,,,,,,0.5311,1,,,,,,,,,,,,,,,0,0.379019313,-0.278741657,1,0,0,0.5311,button_right_main,0.379019313,-0.278741657,1,0,0,,0,8,8,66,1,SWEAT,LB,old,m,./images/SWEATLB.png,,,,,,,,,,,,,,,,,,,,,,,,,,,,,,,,,
,,,,,,,,,,,,,,,,,6155c391189863bfe2e4a593,31,2022-02-12_16h55.41.321,lexical_decision_task_DD_L3,2021.2.3,Linux armv8l,59.57345407,,,,,,,,,,0.998,1,,,,,,,,,,,,,,,0,0.394749066,-0.291695554,1,0,0,0.998,button_right_main,0.394749066,-0.291695554,1,0,0,,0,9,9,14,1,PICKLE,HB,old,m,./images/PICKLEHB.png,,,,,,,,,,,,,,,,,,,,,,,,,,,,,,,,,
,,,,,,,,,,,,,,,,,6155c391189863bfe2e4a593,31,2022-02-12_16h55.41.321,lexical_decision_task_DD_L3,2021.2.3,Linux armv8l,59.57345407,,,,,,,,,,0.6824,1,,,,,,,,,,,,,,,0,-0.423201471,-0.312977099,1,0,0,0.6824,button_left_main,-0.423201471,-0.312977099,1,0,0,,0,10,10,167,1,ZONET,LB,old,z,./images/ZONETLB.png,,,,,,,,,,,,,,,,,,,,,,,,,,,,,,,,,
,,,,,,,,,,,,,,,,,6155c391189863bfe2e4a593,31,2022-02-12_16h55.41.321,lexical_decision_task_DD_L3,2021.2.3,Linux armv8l,59.57345407,,,,,,,,,,0.5142,1,,,,,,,,,,,,,,,0,0.397524923,-0.28336806,1,0,0,0.5142,button_right_main,0.397524923,-0.28336806,1,0,0,,0,11,11,22,1,MELON,C,old,m,./images/MELON.png,,,,,,,,,,,,,,,,,,,,,,,,,,,,,,,,,
,,,,,,,,,,,,,,,,,6155c391189863bfe2e4a593,31,2022-02-12_16h55.41.321,lexical_decision_task_DD_L3,2021.2.3,Linux armv8l,59.57345407,,,,,,,,,,0.7866,1,,,,,,,,,,,,,,,0,0.405852417,-0.281517514,1,0,0,0.7866,button_right_main,0.405852417,-0.281517514,1,0,0,,0,12,12,58,1,BABOON,C,old,m,./images/BABOON.png,,,,,,,,,,,,,,,,,,,,,,,,,,,,,,,,,
,,,,,,,,,,,,,,,,,6155c391189863bfe2e4a593,31,2022-02-12_16h55.41.321,lexical_decision_task_DD_L3,2021.2.3,Linux armv8l,59.57345407,,,,,,,,,,0.9895,1,,,,,,,,,,,,,,,0,-0.429678463,-0.305574917,1,0,0,0.9895,button_left_main,-0.429678463,-0.305574917,1,0,0,,0,13,13,91,1,SHENS,HB,old,z,./images/SHENSHB.png,,,,,,,,,,,,,,,,,,,,,,,,,,,,,,,,,
,,,,,,,,,,,,,,,,,6155c391189863bfe2e4a593,31,2022-02-12_16h55.41.321,lexical_decision_task_DD_L3,2021.2.3,Linux armv8l,59.57345407,,,,,,,,,,0.9846,0,,,,,,,,,,,,,,,0,0.391047898,-0.280592203,1,0,0,0.9846,button_right_main,0.391047898,-0.280592203,1,0,0,,0,14,14,102,1,DULLE,C,old,z,./images/DULLE.png,,,,,,,,,,,,,,,,,,,,,,,,,,,,,,,,,
,,,,,,,,,,,,,,,,,6155c391189863bfe2e4a593,31,2022-02-12_16h55.41.321,lexical_decision_task_DD_L3,2021.2.3,Linux armv8l,59.57345407,,,,,,,,,,0.7829,1,,,,,,,,,,,,,,,0,-0.432454311,-0.304649605,1,0,0,0.7829,button_left_main,-0.432454311,-0.304649605,1,0,0,,0,15,15,146,1,MOOST,LB,old,z,./images/MOOSTLB.png,,,,,,,,,,,,,,,,,,,,,,,,,,,,,,,,,
,,,,,,,,,,,,,,,,,6155c391189863bfe2e4a593,31,2022-02-12_16h55.41.321,lexical_decision_task_DD_L3,2021.2.3,Linux armv8l,59.57345407,,,,,,,,,,0.6675,1,,,,,,,,,,,,,,,0,-0.435230163,-0.301873671,1,0,0,0.6675,button_left_main,-0.435230163,-0.301873671,1,0,0,,0,16,16,95,1,HANTY,LB,old,z,./images/HANTYLB.png,,,,,,,,,,,,,,,,,,,,,,,,,,,,,,,,,
,,,,,,,,,,,,,,,,,6155c391189863bfe2e4a593,31,2022-02-12_16h55.41.321,lexical_decision_task_DD_L3,2021.2.3,Linux armv8l,59.57345407,,,,,,,,,,0.7507,1,,,,,,,,,,,,,,,0,-0.431529028,-0.303724294,1,0,0,0.7507,button_left_main,-0.431529028,-0.303724294,1,0,0,,0,17,17,107,1,FASKS,LB,old,z,./images/FASKSLB.png,,,,,,,,,,,,,,,,,,,,,,,,,,,,,,,,,
,,,,,,,,,,,,,,,,,6155c391189863bfe2e4a593,31,2022-02-12_16h55.41.321,lexical_decision_task_DD_L3,2021.2.3,Linux armv8l,59.57345407,,,,,,,,,,0.6516,1,,,,,,,,,,,,,,,0,-0.435230163,-0.299097891,1,0,0,0.6516,button_left_main,-0.435230163,-0.299097891,1,0,0,,0,18,18,105,1,MOKER,C,old,z,./images/MOKER.png,,,,,,,,,,,,,,,,,,,,,,,,,,,,,,,,,
,,,,,,,,,,,,,,,,,6155c391189863bfe2e4a593,31,2022-02-12_16h55.41.321,lexical_decision_task_DD_L3,2021.2.3,Linux armv8l,59.57345407,,,,,,,,,,0.5315,1,,,,,,,,,,,,,,,0,0.386421495,-0.276891189,1,0,0,0.5315,button_right_main,0.386421495,-0.276891189,1,0,0,,0,19,19,34,1,CANYON,C,old,m,./images/CANYON.png,,,,,,,,,,,,,,,,,,,,,,,,,,,,,,,,,
,,,,,,,,,,,,,,,,,6155c391189863bfe2e4a593,31,2022-02-12_16h55.41.321,lexical_decision_task_DD_L3,2021.2.3,Linux armv8l,59.57345407,,,,,,,,,,0.6502,1,,,,,,,,,,,,,,,0,-0.437080728,-0.301873671,1,0,0,0.6502,button_left_main,-0.437080728,-0.301873671,1,0,0,,0,20,20,101,1,GLEET,LB,old,z,./images/GLEETLB.png,,,,,,,,,,,,,,,,,,,,,,,,,,,,,,,,,
,,,,,,,,,,,,,,,,,6155c391189863bfe2e4a593,31,2022-02-12_16h55.41.321,lexical_decision_task_DD_L3,2021.2.3,Linux armv8l,59.57345407,,,,,,,,,,1.2043,0,,,,,,,,,,,,,,,0,0.397524923,-0.288919774,1,0,0,1.2043,button_right_main,0.397524923,-0.288919774,1,0,0,,0,21,21,128,1,GRIFT,LB,old,z,./images/GRIFTLB.png,,,,,,,,,,,,,,,,,,,,,,,,,,,,,,,,,
,,,,,,,,,,,,,,,,,6155c391189863bfe2e4a593,31,2022-02-12_16h55.41.321,lexical_decision_task_DD_L3,2021.2.3,Linux armv8l,59.57345407,,,,,,,,,,0.5699,1,,,,,,,,,,,,,,,0,0.392898443,-0.2759658,1,0,0,0.5699,button_right_main,0.392898443,-0.2759658,1,0,0,,0,22,22,3,1,FINGER,LB,old,m,./images/FINGERLB.png,,,,,,,,,,,,,,,,,,,,,,,,,,,,,,,,,
,,,,,,,,,,,,,,,,,6155c391189863bfe2e4a593,31,2022-02-12_16h55.41.321,lexical_decision_task_DD_L3,2021.2.3,Linux armv8l,59.57345407,,,,,,,,,,0.7832,1,,,,,,,,,,,,,,,0,0.391047898,-0.287069151,1,0,0,0.7832,button_right_main,0.391047898,-0.287069151,1,0,0,,0,23,23,59,1,BURIAL,HB,old,m,./images/BURIALHB.png,,,,,,,,,,,,,,,,,,,,,,,,,,,,,,,,,
,,,,,,,,,,,,,,,,,6155c391189863bfe2e4a593,31,2022-02-12_16h55.41.321,lexical_decision_task_DD_L3,2021.2.3,Linux armv8l,59.57345407,,,,,,,,,,0.8508,1,,,,,,,,,,,,,,,0,-0.438006006,-0.307425385,1,0,0,0.8508,button_left_main,-0.438006006,-0.307425385,1,0,0,,0,24,24,94,1,BLANS,HB,old,z,./images/BLANSHB.png,,,,,,,,,,,,,,,,,,,,,,,,,,,,,,,,,
,,,,,,,,,,,,,,,,,6155c391189863bfe2e4a593,31,2022-02-12_16h55.41.321,lexical_decision_task_DD_L3,2021.2.3,Linux armv8l,59.57345407,,,,,,,,,,1.2195,0,,,,,,,,,,,,,,,0,0.391047898,-0.284293371,1,0,0,1.2195,button_right_main,0.391047898,-0.284293371,1,0,0,,0,25,25,163,1,GAMBA,HB,old,z,./images/GAMBAHB.png,,,,,,,,,,,,,,,,,,,,,,,,,,,,,,,,,
,,,,,,,,,,,,,,,,,6155c391189863bfe2e4a593,31,2022-02-12_16h55.41.321,lexical_decision_task_DD_L3,2021.2.3,Linux armv8l,59.57345407,,,,,,,,,,0.5827,1,,,,,,,,,,,,,,,0,0.385496183,-0.275040488,1,0,0,0.5827,button_right_main,0.385496183,-0.275040488,1,0,0,,0,26,26,40,1,SWING,C,old,m,./images/SWING.png,,,,,,,,,,,,,,,,,,,,,,,,,,,,,,,,,
,,,,,,,,,,,,,,,,,6155c391189863bfe2e4a593,31,2022-02-12_16h55.41.321,lexical_decision_task_DD_L3,2021.2.3,Linux armv8l,59.57345407,,,,,,,,,,0.8346,1,,,,,,,,,,,,,,,0,-0.420425629,-0.315753034,1,0,0,0.8346,button_left_main,-0.420425629,-0.315753034,1,0,0,,0,27,27,88,1,GLUSH,HB,old,z,./images/GLUSHHB.png,,,,,,,,,,,,,,,,,,,,,,,,,,,,,,,,,
,,,,,,,,,,,,,,,,,6155c391189863bfe2e4a593,31,2022-02-12_16h55.41.321,lexical_decision_task_DD_L3,2021.2.3,Linux armv8l,59.57345407,,,,,,,,,,0.701,1,,,,,,,,,,,,,,,0,-0.427827888,-0.309276008,1,0,0,0.701,button_left_main,-0.427827888,-0.309276008,1,0,0,,0,28,28,116,1,BALGY,LB,old,z,./images/BALGYLB.png,,,,,,,,,,,,,,,,,,,,,,,,,,,,,,,,,
,,,,,,,,,,,,,,,,,6155c391189863bfe2e4a593,31,2022-02-12_16h55.41.321,lexical_decision_task_DD_L3,2021.2.3,Linux armv8l,59.57345407,,,,,,,,,,0.6716,1,,,,,,,,,,,,,,,0,0.38919743,-0.2759658,1,0,0,0.6716,button_right_main,0.38919743,-0.2759658,1,0,0,,0,29,29,41,1,STRING,HB,old,m,./images/STRINGHB.png,,,,,,,,,,,,,,,,,,,,,,,,,,,,,,,,,
,,,,,,,,,,,,,,,,,6155c391189863bfe2e4a593,31,2022-02-12_16h55.41.321,lexical_decision_task_DD_L3,2021.2.3,Linux armv8l,59.57345407,,,,,,,,,,0.4834,1,,,,,,,,,,,,,,,0,0.38086978,-0.28336806,1,0,0,0.4834,button_right_main,0.38086978,-0.28336806,1,0,0,,0,30,30,19,1,DOUGH,C,old,m,./images/DOUGH.png,,,,,,,,,,,,,,,,,,,,,,,,,,,,,,,,,
,,,,,,,,,,,,,,,,,6155c391189863bfe2e4a593,31,2022-02-12_16h55.41.321,lexical_decision_task_DD_L3,2021.2.3,Linux armv8l,59.57345407,,,,,,,,,,0.7346,1,,,,,,,,,,,,,,,0,0.38919743,-0.281517514,1,0,0,0.7346,button_right_main,0.38919743,-0.281517514,1,0,0,,0,31,31,56,1,PACKET,HB,old,m,./images/PACKETHB.png,,,,,,,,,,,,,,,,,,,,,,,,,,,,,,,,,
,,,,,,,,,,,,,,,,,6155c391189863bfe2e4a593,31,2022-02-12_16h55.41.321,lexical_decision_task_DD_L3,2021.2.3,Linux armv8l,59.57345407,,,,,,,,,,0.5325,1,,,,,,,,,,,,,,,0,0.385496183,-0.287994462,1,0,0,0.5325,button_right_main,0.385496183,-0.287994462,1,0,0,,0,32,32,5,1,PASTA,HB,old,m,./images/PASTAHB.png,,,,,,,,,,,,,,,,,,,,,,,,,,,,,,,,,
,,,,,,,,,,,,,,,,,6155c391189863bfe2e4a593,31,2022-02-12_16h55.41.321,lexical_decision_task_DD_L3,2021.2.3,Linux armv8l,59.57345407,,,,,,,,,,1.0038,0,,,,,,,,,,,,,,,0,-0.438931298,-0.303724294,1,0,0,1.0038,button_left_main,-0.438931298,-0.303724294,1,0,0,,0,33,33,44,1,LIZARD,HB,old,m,./images/LIZARDHB.png,,,,,,,,,,,,,,,,,,,,,,,,,,,,,,,,,
,,,,,,,,,,,,,,,,,6155c391189863bfe2e4a593,31,2022-02-12_16h55.41.321,lexical_decision_task_DD_L3,2021.2.3,Linux armv8l,59.57345407,,,,,,,,,,0.4804,1,,,,,,,,,,,,,,,0,0.38086978,-0.285218683,1,0,0,0.4804,button_right_main,0.38086978,-0.285218683,1,0,0,,0,34,34,10,1,BELLY,C,old,m,./images/BELLY.png,,,,,,,,,,,,,,,,,,,,,,,,,,,,,,,,,
,,,,,,,,,,,,,,,,,6155c391189863bfe2e4a593,31,2022-02-12_16h55.41.321,lexical_decision_task_DD_L3,2021.2.3,Linux armv8l,59.57345407,,,,,,,,,,0.6656,1,,,,,,,,,,,,,,,0,-0.433379588,-0.304649605,1,0,0,0.6656,button_left_main,-0.433379588,-0.304649605,1,0,0,,0,35,35,86,1,AIFED,LB,old,z,./images/AIFEDLB.png,,,,,,,,,,,,,,,,,,,,,,,,,,,,,,,,,
,,,,,,,,,,,,,,,,,6155c391189863bfe2e4a593,31,2022-02-12_16h55.41.321,lexical_decision_task_DD_L3,2021.2.3,Linux armv8l,59.57345407,,,,,,,,,,1.0313,1,,,,,,,,,,,,,,,0,0.390122664,-0.2759658,1,0,0,1.0313,button_right_main,0.390122664,-0.2759658,1,0,0,,0,36,36,32,1,BARREL,HB,old,m,./images/BARRELHB.png,,,,,,,,,,,,,,,,,,,,,,,,,,,,,,,,,
,,,,,,,,,,,,,,,,,6155c391189863bfe2e4a593,31,2022-02-12_16h55.41.321,lexical_decision_task_DD_L3,2021.2.3,Linux armv8l,59.57345407,,,,,,,,,,0.5149,1,,,,,,,,,,,,,,,0,0.383645638,-0.281517514,1,0,0,0.5149,button_right_main,0.383645638,-0.281517514,1,0,0,,0,37,37,23,1,WALRUS,HB,old,m,./images/WALRUSHB.png,,,,,,,,,,,,,,,,,,,,,,,,,,,,,,,,,
,,,,,,,,,,,,,,,,,6155c391189863bfe2e4a593,31,2022-02-12_16h55.41.321,lexical_decision_task_DD_L3,2021.2.3,Linux armv8l,59.57345407,,,,,,,,,,0.5653,1,,,,,,,,,,,,,,,0,0.38086978,-0.293546177,1,0,0,0.5653,button_right_main,0.38086978,-0.293546177,1,0,0,,0,38,38,16,1,PENCE,C,old,m,./images/PENCE.png,,,,,,,,,,,,,,,,,,,,,,,,,,,,,,,,,
,,,,,,,,,,,,,,,,,6155c391189863bfe2e4a593,31,2022-02-12_16h55.41.321,lexical_decision_task_DD_L3,2021.2.3,Linux armv8l,59.57345407,,,,,,,,,,0.5829,1,,,,,,,,,,,,,,,0,0.38086978,-0.284293371,1,0,0,0.5829,button_right_main,0.38086978,-0.284293371,1,0,0,,0,39,39,77,1,COUCH,HB,old,m,./images/COUCHHB.png,,,,,,,,,,,,,,,,,,,,,,,,,,,,,,,,,
,,,,,,,,,,,,,,,,,6155c391189863bfe2e4a593,31,2022-02-12_16h55.41.321,lexical_decision_task_DD_L3,2021.2.3,Linux armv8l,59.57345407,,,,,,,,,,0.6499,1,,,,,,,,,,,,,,,0,0.38919743,-0.279667046,1,0,0,0.6499,button_right_main,0.38919743,-0.279667046,1,0,0,,0,40,40,48,1,SPORT,LB,old,m,./images/SPORTLB.png,,,,,,,,,,,,,,,,,,,,,,,,,,,,,,,,,
,,,,,,,,,,,,,,,,,6155c391189863bfe2e4a593,31,2022-02-12_16h55.41.321,lexical_decision_task_DD_L3,2021.2.3,Linux armv8l,59.57345407,,,,,,,,,,0.5845,1,,,,,,,,,,,,,,,0,0.383645638,-0.299097891,1,0,0,0.5845,button_right_main,0.149548946,-0.388850321,1,0,0,,0,41,41,12,1,SHORE,LB,old,m,./images/SHORELB.png,break_done_button,,,,,,,,,,,,,,,,,,,,,,,,,,,,,,,,
,,,,,,,,,,,,,,,,,6155c391189863bfe2e4a593,31,2022-02-12_16h55.41.321,lexical_decision_task_DD_L3,2021.2.3,Linux armv8l,59.57345407,,,,,,,,,,0.7327,1,,,,,,,,,,,,,,,0,-0.425052046,-0.323155216,1,0,0,0.7327,button_left_main,-0.425052046,-0.323155216,1,0,0,,0,42,42,159,1,CUDDY,C,old,z,./images/CUDDY.png,,,,,,,,,,,,,,,,,,,,,,,,,,,,,,,,,
,,,,,,,,,,,,,,,,,6155c391189863bfe2e4a593,31,2022-02-12_16h55.41.321,lexical_decision_task_DD_L3,2021.2.3,Linux armv8l,59.57345407,,,,,,,,,,0.5487,1,,,,,,,,,,,,,,,0,0.366065261,-0.313902411,1,0,0,0.5487,button_right_main,0.366065261,-0.313902411,1,0,0,,0,43,43,36,1,THROAT,LB,old,m,./images/THROATLB.png,,,,,,,,,,,,,,,,,,,,,,,,,,,,,,,,,
,,,,,,,,,,,,,,,,,6155c391189863bfe2e4a593,31,2022-02-12_16h55.41.321,lexical_decision_task_DD_L3,2021.2.3,Linux armv8l,59.57345407,,,,,,,,,,0.699,1,,,,,,,,,,,,,,,0,-0.435230163,-0.296322112,1,0,0,0.699,button_left_main,-0.435230163,-0.296322112,1,0,0,,0,44,44,120,1,RINED,C,old,z,./images/RINED.png,,,,,,,,,,,,,,,,,,,,,,,,,,,,,,,,,
,,,,,,,,,,,,,,,,,6155c391189863bfe2e4a593,31,2022-02-12_16h55.41.321,lexical_decision_task_DD_L3,2021.2.3,Linux armv8l,59.57345407,,,,,,,,,,0.5332,1,,,,,,,,,,,,,,,0,0.38086978,-0.284293371,1,0,0,0.5332,button_right_main,0.38086978,-0.284293371,1,0,0,,0,45,45,7,1,PAINT,C,old,m,./images/PAINT.png,,,,,,,,,,,,,,,,,,,,,,,,,,,,,,,,,
,,,,,,,,,,,,,,,,,6155c391189863bfe2e4a593,31,2022-02-12_16h55.41.321,lexical_decision_task_DD_L3,2021.2.3,Linux armv8l,59.57345407,,,,,,,,,,0.5819,1,,,,,,,,,,,,,,,0,-0.419500346,-0.278741657,1,0,0,0.5819,button_left_main,-0.419500346,-0.278741657,1,0,0,,0,46,46,143,1,MONGS,LB,old,z,./images/MONGSLB.png,,,,,,,,,,,,,,,,,,,,,,,,,,,,,,,,,
,,,,,,,,,,,,,,,,,6155c391189863bfe2e4a593,31,2022-02-12_16h55.41.321,lexical_decision_task_DD_L3,2021.2.3,Linux armv8l,59.57345407,,,,,,,,,,0.5341,1,,,,,,,,,,,,,,,0,0.363289404,-0.303724294,1,0,0,0.5341,button_right_main,0.363289404,-0.303724294,1,0,0,,0,47,47,73,1,SNACK,C,old,m,./images/SNACK.png,,,,,,,,,,,,,,,,,,,,,,,,,,,,,,,,,
,,,,,,,,,,,,,,,,,6155c391189863bfe2e4a593,31,2022-02-12_16h55.41.321,lexical_decision_task_DD_L3,2021.2.3,Linux armv8l,59.57345407,,,,,,,,,,0.4656,1,,,,,,,,,,,,,,,0,0.379944547,-0.293546177,1,0,0,0.4656,button_right_main,0.379944547,-0.293546177,1,0,0,,0,48,48,82,1,SUNSET,C,old,m,./images/SUNSET.png,,,,,,,,,,,,,,,,,,,,,,,,,,,,,,,,,
,,,,,,,,,,,,,,,,,6155c391189863bfe2e4a593,31,2022-02-12_16h55.41.321,lexical_decision_task_DD_L3,2021.2.3,Linux armv8l,59.57345407,,,,,,,,,,0.6686,1,,,,,,,,,,,,,,,0,-0.400994677,-0.290770397,1,0,0,0.6686,button_left_main,-0.400994677,-0.290770397,1,0,0,,0,49,49,87,1,TRING,C,old,z,./images/TRING.png,,,,,,,,,,,,,,,,,,,,,,,,,,,,,,,,,
,,,,,,,,,,,,,,,,,6155c391189863bfe2e4a593,31,2022-02-12_16h55.41.321,lexical_decision_task_DD_L3,2021.2.3,Linux armv8l,59.57345407,,,,,,,,,,0.7682,1,,,,,,,,,,,,,,,0,-0.418575064,-0.281517514,1,0,0,0.7682,button_left_main,-0.418575064,-0.281517514,1,0,0,,0,50,50,137,1,JOOST,LB,old,z,./images/JOOSTLB.png,,,,,,,,,,,,,,,,,,,,,,,,,,,,,,,,,
,,,,,,,,,,,,,,,,,6155c391189863bfe2e4a593,31,2022-02-12_16h55.41.321,lexical_decision_task_DD_L3,2021.2.3,Linux armv8l,59.57345407,,,,,,,,,,1.0505,1,,,,,,,,,,,,,,,0,-0.39451769,-0.289845241,1,0,0,1.0505,button_left_main,-0.39451769,-0.289845241,1,0,0,,0,51,51,154,1,THINT,HB,old,z,./images/THINTHB.png,,,,,,,,,,,,,,,,,,,,,,,,,,,,,,,,,
,,,,,,,,,,,,,,,,,6155c391189863bfe2e4a593,31,2022-02-12_16h55.41.321,lexical_decision_task_DD_L3,2021.2.3,Linux armv8l,59.57345407,,,,,,,,,,0.6314,1,,,,,,,,,,,,,,,0,0.394749066,-0.289845241,1,0,0,0.6314,button_right_main,0.394749066,-0.289845241,1,0,0,,0,52,52,54,1,TRIPOD,LB,old,m,./images/TRIPODLB.png,,,,,,,,,,,,,,,,,,,,,,,,,,,,,,,,,
,,,,,,,,,,,,,,,,,6155c391189863bfe2e4a593,31,2022-02-12_16h55.41.321,lexical_decision_task_DD_L3,2021.2.3,Linux armv8l,59.57345407,,,,,,,,,,0.7523,1,,,,,,,,,,,,,,,0,0.398450157,-0.2953968,1,0,0,0.7523,button_right_main,0.398450157,-0.2953968,1,0,0,,0,53,53,80,1,WEASEL,HB,old,m,./images/WEASELHB.png,,,,,,,,,,,,,,,,,,,,,,,,,,,,,,,,,
,,,,,,,,,,,,,,,,,6155c391189863bfe2e4a593,31,2022-02-12_16h55.41.321,lexical_decision_task_DD_L3,2021.2.3,Linux armv8l,59.57345407,,,,,,,,,,0.6377,1,,,,,,,,,,,,,,,0,-0.403770524,-0.289845241,1,0,0,0.6377,button_left_main,-0.403770524,-0.289845241,1,0,0,,0,54,54,126,1,GUELS,C,old,z,./images/GUELS.png,,,,,,,,,,,,,,,,,,,,,,,,,,,,,,,,,
,,,,,,,,,,,,,,,,,6155c391189863bfe2e4a593,31,2022-02-12_16h55.41.321,lexical_decision_task_DD_L3,2021.2.3,Linux armv8l,59.57345407,,,,,,,,,,0.6722,1,,,,,,,,,,,,,,,0,0.390122664,-0.289845241,1,0,0,0.6722,button_right_main,0.390122664,-0.289845241,1,0,0,,0,55,55,20,1,CRADLE,HB,old,m,./images/CRADLEHB.png,,,,,,,,,,,,,,,,,,,,,,,,,,,,,,,,,
,,,,,,,,,,,,,,,,,6155c391189863bfe2e4a593,31,2022-02-12_16h55.41.321,lexical_decision_task_DD_L3,2021.2.3,Linux armv8l,59.57345407,,,,,,,,,,0.7191,0,,,,,,,,,,,,,,,0,0.398450157,-0.294471488,1,0,0,0.7191,button_right_main,0.398450157,-0.294471488,1,0,0,,0,56,56,103,1,FLORT,HB,old,z,./images/FLORTHB.png,,,,,,,,,,,,,,,,,,,,,,,,,,,,,,,,,
,,,,,,,,,,,,,,,,,6155c391189863bfe2e4a593,31,2022-02-12_16h55.41.321,lexical_decision_task_DD_L3,2021.2.3,Linux armv8l,59.57345407,,,,,,,,,,0.8168,0,,,,,,,,,,,,,,,0,-0.389891277,-0.299097891,1,0,0,0.8168,button_left_main,-0.389891277,-0.299097891,1,0,0,,0,57,57,50,1,MALLET,HB,old,m,./images/MALLETHB.png,,,,,,,,,,,,,,,,,,,,,,,,,,,,,,,,,
,,,,,,,,,,,,,,,,,6155c391189863bfe2e4a593,31,2022-02-12_16h55.41.321,lexical_decision_task_DD_L3,2021.2.3,Linux armv8l,59.57345407,,,,,,,,,,0.686,1,,,,,,,,,,,,,,,0,-0.375086738,-0.2953968,1,0,0,0.686,button_left_main,-0.375086738,-0.2953968,1,0,0,,0,58,58,99,1,BACKY,C,old,z,./images/BACKY.png,,,,,,,,,,,,,,,,,,,,,,,,,,,,,,,,,
,,,,,,,,,,,,,,,,,6155c391189863bfe2e4a593,31,2022-02-12_16h55.41.321,lexical_decision_task_DD_L3,2021.2.3,Linux armv8l,59.57345407,,,,,,,,,,0.9418,1,,,,,,,,,,,,,,,0,-0.391741842,-0.278741657,1,0,0,0.9418,button_left_main,-0.391741842,-0.278741657,1,0,0,,0,59,59,112,1,MYING,HB,old,z,./images/MYINGHB.png,,,,,,,,,,,,,,,,,,,,,,,,,,,,,,,,,
,,,,,,,,,,,,,,,,,6155c391189863bfe2e4a593,31,2022-02-12_16h55.41.321,lexical_decision_task_DD_L3,2021.2.3,Linux armv8l,59.57345407,,,,,,,,,,0.8674,1,,,,,,,,,,,,,,,0,0.401226015,-0.287994462,1,0,0,0.8674,button_right_main,0.401226015,-0.287994462,1,0,0,,0,60,60,17,1,SKIING,HB,old,m,./images/SKIINGHB.png,,,,,,,,,,,,,,,,,,,,,,,,,,,,,,,,,
,,,,,,,,,,,,,,,,,6155c391189863bfe2e4a593,31,2022-02-12_16h55.41.321,lexical_decision_task_DD_L3,2021.2.3,Linux armv8l,59.57345407,,,,,,,,,,1.151,1,,,,,,,,,,,,,,,0,-0.424126763,-0.299097891,1,0,0,1.151,button_left_main,-0.424126763,-0.299097891,1,0,0,,0,61,61,157,1,INLER,HB,old,z,./images/INLERHB.png,,,,,,,,,,,,,,,,,,,,,,,,,,,,,,,,,
,,,,,,,,,,,,,,,,,6155c391189863bfe2e4a593,31,2022-02-12_16h55.41.321,lexical_decision_task_DD_L3,2021.2.3,Linux armv8l,59.57345407,,,,,,,,,,0.5382,1,,,,,,,,,,,,,,,0,0.366990572,-0.297247268,1,0,0,0.5382,button_right_main,0.366990572,-0.297247268,1,0,0,,0,62,62,61,1,CANDLE,C,old,m,./images/CANDLE.png,,,,,,,,,,,,,,,,,,,,,,,,,,,,,,,,,
,,,,,,,,,,,,,,,,,6155c391189863bfe2e4a593,31,2022-02-12_16h55.41.321,lexical_decision_task_DD_L3,2021.2.3,Linux armv8l,59.57345407,,,,,,,,,,1.3034,1,,,,,,,,,,,,,,,0,-0.403770524,-0.288919774,1,0,0,1.3034,button_left_main,-0.403770524,-0.288919774,1,0,0,,0,63,63,142,1,PLASK,HB,old,z,./images/PLASKHB.png,,,,,,,,,,,,,,,,,,,,,,,,,,,,,,,,,
,,,,,,,,,,,,,,,,,6155c391189863bfe2e4a593,31,2022-02-12_16h55.41.321,lexical_decision_task_DD_L3,2021.2.3,Linux armv8l,59.57345407,,,,,,,,,,0.6679,1,,,,,,,,,,,,,,,0,0.399375547,-0.287994462,1,0,0,0.6679,button_right_main,0.399375547,-0.287994462,1,0,0,,0,64,64,35,1,PEACH,HB,old,m,./images/PEACHHB.png,,,,,,,,,,,,,,,,,,,,,,,,,,,,,,,,,
,,,,,,,,,,,,,,,,,6155c391189863bfe2e4a593,31,2022-02-12_16h55.41.321,lexical_decision_task_DD_L3,2021.2.3,Linux armv8l,59.57345407,,,,,,,,,,0.5692,1,,,,,,,,,,,,,,,0,0.392898443,-0.287994462,1,0,0,0.5692,button_right_main,0.392898443,-0.287994462,1,0,0,,0,65,65,21,1,KIDNEY,LB,old,m,./images/KIDNEYLB.png,,,,,,,,,,,,,,,,,,,,,,,,,,,,,,,,,
,,,,,,,,,,,,,,,,,6155c391189863bfe2e4a593,31,2022-02-12_16h55.41.321,lexical_decision_task_DD_L3,2021.2.3,Linux armv8l,59.57345407,,,,,,,,,,0.6809,1,,,,,,,,,,,,,,,0,-0.425977328,-0.286143995,1,0,0,0.6809,button_left_main,-0.425977328,-0.286143995,1,0,0,,0,66,66,165,1,TROWN,C,old,z,./images/TROWN.png,,,,,,,,,,,,,,,,,,,,,,,,,,,,,,,,,
,,,,,,,,,,,,,,,,,6155c391189863bfe2e4a593,31,2022-02-12_16h55.41.321,lexical_decision_task_DD_L3,2021.2.3,Linux armv8l,59.57345407,,,,,,,,,,0.6668,1,,,,,,,,,,,,,,,0,-0.429678463,-0.282442748,1,0,0,0.6668,button_left_main,-0.429678463,-0.282442748,1,0,0,,0,67,67,122,1,BLOOT,LB,old,z,./images/BLOOTLB.png,,,,,,,,,,,,,,,,,,,,,,,,,,,,,,,,,
,,,,,,,,,,,,,,,,,6155c391189863bfe2e4a593,31,2022-02-12_16h55.41.321,lexical_decision_task_DD_L3,2021.2.3,Linux armv8l,59.57345407,,,,,,,,,,0.5825,1,,,,,,,,,,,,,,,0,0.387346806,-0.287994462,1,0,0,0.5825,button_right_main,0.387346806,-0.287994462,1,0,0,,0,68,68,78,1,LITTER,LB,old,m,./images/LITTERLB.png,,,,,,,,,,,,,,,,,,,,,,,,,,,,,,,,,
,,,,,,,,,,,,,,,,,6155c391189863bfe2e4a593,31,2022-02-12_16h55.41.321,lexical_decision_task_DD_L3,2021.2.3,Linux armv8l,59.57345407,,,,,,,,,,0.7484,1,,,,,,,,,,,,,,,0,-0.400069394,-0.2759658,1,0,0,0.7484,button_left_main,-0.400069394,-0.2759658,1,0,0,,0,69,69,109,1,BURGE,HB,old,z,./images/BURGEHB.png,,,,,,,,,,,,,,,,,,,,,,,,,,,,,,,,,
,,,,,,,,,,,,,,,,,6155c391189863bfe2e4a593,31,2022-02-12_16h55.41.321,lexical_decision_task_DD_L3,2021.2.3,Linux armv8l,59.57345407,,,,,,,,,,1.0693,1,,,,,,,,,,,,,,,0,-0.393592398,-0.306500229,1,0,0,1.0693,button_left_main,-0.393592398,-0.306500229,1,0,0,,0,70,70,145,1,LAMEL,HB,old,z,./images/LAMELHB.png,,,,,,,,,,,,,,,,,,,,,,,,,,,,,,,,,
,,,,,,,,,,,,,,,,,6155c391189863bfe2e4a593,31,2022-02-12_16h55.41.321,lexical_decision_task_DD_L3,2021.2.3,Linux armv8l,59.57345407,,,,,,,,,,0.7833,1,,,,,,,,,,,,,,,0,-0.397293547,-0.307425385,1,0,0,0.7833,button_left_main,-0.397293547,-0.307425385,1,0,0,,0,71,71,118,1,BAVEL,HB,old,z,./images/BAVELHB.png,,,,,,,,,,,,,,,,,,,,,,,,,,,,,,,,,
,,,,,,,,,,,,,,,,,6155c391189863bfe2e4a593,31,2022-02-12_16h55.41.321,lexical_decision_task_DD_L3,2021.2.3,Linux armv8l,59.57345407,,,,,,,,,,0.4993,1,,,,,,,,,,,,,,,0,0.38179517,-0.310201475,1,0,0,0.4993,button_right_main,0.38179517,-0.310201475,1,0,0,,0,72,72,76,1,INFANT,C,old,m,./images/INFANT.png,,,,,,,,,,,,,,,,,,,,,,,,,,,,,,,,,
,,,,,,,,,,,,,,,,,6155c391189863bfe2e4a593,31,2022-02-12_16h55.41.321,lexical_decision_task_DD_L3,2021.2.3,Linux armv8l,59.57345407,,,,,,,,,,0.8672,1,,,,,,,,,,,,,,,0,-0.404695807,-0.312051788,1,0,0,0.8672,button_left_main,-0.404695807,-0.312051788,1,0,0,,0,73,73,148,1,JOMS,HB,old,z,./images/JOMSHB.png,,,,,,,,,,,,,,,,,,,,,,,,,,,,,,,,,
,,,,,,,,,,,,,,,,,6155c391189863bfe2e4a593,31,2022-02-12_16h55.41.321,lexical_decision_task_DD_L3,2021.2.3,Linux armv8l,59.57345407,,,,,,,,,,0.9,1,,,,,,,,,,,,,,,0,-0.405621089,-0.315753034,1,0,0,0.9,button_left_main,-0.405621089,-0.315753034,1,0,0,,0,74,74,115,1,MAWNS,HB,old,z,./images/MAWNSHB.png,,,,,,,,,,,,,,,,,,,,,,,,,,,,,,,,,
,,,,,,,,,,,,,,,,,6155c391189863bfe2e4a593,31,2022-02-12_16h55.41.321,lexical_decision_task_DD_L3,2021.2.3,Linux armv8l,59.57345407,,,,,,,,,,0.785,1,,,,,,,,,,,,,,,0,-0.405621089,-0.305574917,1,0,0,0.785,button_left_main,-0.405621089,-0.305574917,1,0,0,,0,75,75,138,1,PLICE,C,old,z,./images/PLICE.png,,,,,,,,,,,,,,,,,,,,,,,,,,,,,,,,,
,,,,,,,,,,,,,,,,,6155c391189863bfe2e4a593,31,2022-02-12_16h55.41.321,lexical_decision_task_DD_L3,2021.2.3,Linux armv8l,59.57345407,,,,,,,,,,0.589,1,,,,,,,,,,,,,,,0,-0.403770524,-0.303724294,1,0,0,0.589,button_left_main,-0.403770524,-0.303724294,1,0,0,,0,76,76,117,1,STEEG,C,old,z,./images/STEEG.png,,,,,,,,,,,,,,,,,,,,,,,,,,,,,,,,,
,,,,,,,,,,,,,,,,,6155c391189863bfe2e4a593,31,2022-02-12_16h55.41.321,lexical_decision_task_DD_L3,2021.2.3,Linux armv8l,59.57345407,,,,,,,,,,0.4991,1,,,,,,,,,,,,,,,0,0.38827204,-0.312977099,1,0,0,0.4991,button_right_main,0.38827204,-0.312977099,1,0,0,,0,77,77,28,1,FALCON,C,old,m,./images/FALCON.png,,,,,,,,,,,,,,,,,,,,,,,,,,,,,,,,,
,,,,,,,,,,,,,,,,,6155c391189863bfe2e4a593,31,2022-02-12_16h55.41.321,lexical_decision_task_DD_L3,2021.2.3,Linux armv8l,59.57345407,,,,,,,,,,0.7542,1,,,,,,,,,,,,,,,0,-0.39081656,-0.312051788,1,0,0,0.7542,button_left_main,-0.39081656,-0.312051788,1,0,0,,0,78,78,151,1,TINKY,HB,old,z,./images/TINKYHB.png,,,,,,,,,,,,,,,,,,,,,,,,,,,,,,,,,
,,,,,,,,,,,,,,,,,6155c391189863bfe2e4a593,31,2022-02-12_16h55.41.321,lexical_decision_task_DD_L3,2021.2.3,Linux armv8l,59.57345407,,,,,,,,,,0.5344,1,,,,,,,,,,,,,,,0,-0.400069394,-0.317603502,1,0,0,0.5344,button_left_main,-0.400069394,-0.317603502,1,0,0,,0,79,79,125,1,MOOKY,LB,old,z,./images/MOOKYLB.png,,,,,,,,,,,,,,,,,,,,,,,,,,,,,,,,,
,,,,,,,,,,,,,,,,,6155c391189863bfe2e4a593,31,2022-02-12_16h55.41.321,lexical_decision_task_DD_L3,2021.2.3,Linux armv8l,59.57345407,,,,,,,,,,0.5482,1,,,,,,,,,,,,,,,0,0.379019313,-0.307425385,1,0,0,0.5482,button_right_main,0.379019313,-0.307425385,1,0,0,,0,80,80,13,1,MOTOR,C,old,m,./images/MOTOR.png,,,,,,,,,,,,,,,,,,,,,,,,,,,,,,,,,
,,,,,,,,,,,,,,,,,6155c391189863bfe2e4a593,31,2022-02-12_16h55.41.321,lexical_decision_task_DD_L3,2021.2.3,Linux armv8l,59.57345407,,,,,,,,,,1.0358,1,,,,,,,,,,,,,,,0,0.378093923,-0.313902411,1,0,0,1.0358,button_right_main,0.378093923,-0.313902411,1,0,0,,0,81,81,74,1,CEMENT,HB,old,m,./images/CEMENTHB.png,,,,,,,,,,,,,,,,,,,,,,,,,,,,,,,,,
,,,,,,,,,,,,,,,,,6155c391189863bfe2e4a593,31,2022-02-12_16h55.41.321,lexical_decision_task_DD_L3,2021.2.3,Linux armv8l,59.57345407,,,,,,,,,,0.6021,0,,,,,,,,,,,,,,,0,-0.39081656,-0.325005839,1,0,0,0.6021,button_left_main,-0.39081656,-0.325005839,1,0,0,,0,82,82,8,1,TULIP,HB,old,m,./images/TULIPHB.png,,,,,,,,,,,,,,,,,,,,,,,,,,,,,,,,,
,,,,,,,,,,,,,,,,,6155c391189863bfe2e4a593,31,2022-02-12_16h55.41.321,lexical_decision_task_DD_L3,2021.2.3,Linux armv8l,59.57345407,,,,,,,,,,0.5161,1,,,,,,,,,,,,,,,0,0.379019313,-0.311126631,1,0,0,0.5161,button_right_main,0.11438823,-0.412907802,1,0,0,,0,83,83,30,1,STORM,LB,old,m,./images/STORMLB.png,break_done_button,,,,,,,,,,,,,,,,,,,,,,,,,,,,,,,,
,,,,,,,,,,,,,,,,,6155c391189863bfe2e4a593,31,2022-02-12_16h55.41.321,lexical_decision_task_DD_L3,2021.2.3,Linux armv8l,59.57345407,,,,,,,,,,1.0503,1,,,,,,,,,,,,,,,0,-0.414873924,-0.341660982,1,0,0,1.0503,button_left_main,-0.414873924,-0.341660982,1,0,0,,0,84,84,106,1,CLUMS,HB,old,z,./images/CLUMSHB.png,,,,,,,,,,,,,,,,,,,,,,,,,,,,,,,,,
,,,,,,,,,,,,,,,,,6155c391189863bfe2e4a593,31,2022-02-12_16h55.41.321,lexical_decision_task_DD_L3,2021.2.3,Linux armv8l,59.57345407,,,,,,,,,,0.5522,1,,,,,,,,,,,,,,,0,-0.392667115,-0.312051788,1,0,0,0.5522,button_left_main,-0.392667115,-0.312051788,1,0,0,,0,85,85,131,1,NACES,LB,old,z,./images/NACESLB.png,,,,,,,,,,,,,,,,,,,,,,,,,,,,,,,,,
,,,,,,,,,,,,,,,,,6155c391189863bfe2e4a593,31,2022-02-12_16h55.41.321,lexical_decision_task_DD_L3,2021.2.3,Linux armv8l,59.57345407,,,,,,,,,,0.8319,1,,,,,,,,,,,,,,,0,-0.453735832,-0.311126631,1,0,0,0.8319,button_left_main,-0.453735832,-0.311126631,1,0,0,,0,86,86,85,1,CHULK,HB,old,z,./images/CHULKHB.png,,,,,,,,,,,,,,,,,,,,,,,,,,,,,,,,,
,,,,,,,,,,,,,,,,,6155c391189863bfe2e4a593,31,2022-02-12_16h55.41.321,lexical_decision_task_DD_L3,2021.2.3,Linux armv8l,59.57345407,,,,,,,,,,0.5316,1,,,,,,,,,,,,,,,0,0.377168689,-0.292620865,1,0,0,0.5316,button_right_main,0.377168689,-0.292620865,1,0,0,,0,87,87,37,1,BIRTH,C,old,m,./images/BIRTH.png,,,,,,,,,,,,,,,,,,,,,,,,,,,,,,,,,
,,,,,,,,,,,,,,,,,6155c391189863bfe2e4a593,31,2022-02-12_16h55.41.321,lexical_decision_task_DD_L3,2021.2.3,Linux armv8l,59.57345407,,,,,,,,,,0.7008,1,,,,,,,,,,,,,,,0,0.384570949,-0.281517514,1,0,0,0.7008,button_right_main,0.384570949,-0.281517514,1,0,0,,0,88,88,71,1,PIMPLE,HB,old,m,./images/PIMPLEHB.png,,,,,,,,,,,,,,,,,,,,,,,,,,,,,,,,,
,,,,,,,,,,,,,,,,,6155c391189863bfe2e4a593,31,2022-02-12_16h55.41.321,lexical_decision_task_DD_L3,2021.2.3,Linux armv8l,59.57345407,,,,,,,,,,0.649,1,,,,,,,,,,,,,,,0,-0.438006006,-0.331482865,1,0,0,0.649,button_left_main,-0.438006006,-0.331482865,1,0,0,,0,89,89,89,1,DRIEK,LB,old,z,./images/DRIEKLB.png,,,,,,,,,,,,,,,,,,,,,,,,,,,,,,,,,
,,,,,,,,,,,,,,,,,6155c391189863bfe2e4a593,31,2022-02-12_16h55.41.321,lexical_decision_task_DD_L3,2021.2.3,Linux armv8l,59.57345407,,,,,,,,,,1.1895,1,,,,,,,,,,,,,,,0,-0.408396947,-0.335183957,1,0,0,1.1895,button_left_main,-0.408396947,-0.335183957,1,0,0,,0,90,90,97,1,CHIDS,HB,old,z,./images/CHIDSHB.png,,,,,,,,,,,,,,,,,,,,,,,,,,,,,,,,,
,,,,,,,,,,,,,,,,,6155c391189863bfe2e4a593,31,2022-02-12_16h55.41.321,lexical_decision_task_DD_L3,2021.2.3,Linux armv8l,59.57345407,,,,,,,,,,0.5662,1,,,,,,,,,,,,,,,0,-0.416724499,-0.338885048,1,0,0,0.5662,button_left_main,-0.416724499,-0.338885048,1,0,0,,0,91,91,144,1,NAIRY,C,old,z,./images/NAIRY.png,,,,,,,,,,,,,,,,,,,,,,,,,,,,,,,,,
,,,,,,,,,,,,,,,,,6155c391189863bfe2e4a593,31,2022-02-12_16h55.41.321,lexical_decision_task_DD_L3,2021.2.3,Linux armv8l,59.57345407,,,,,,,,,,0.6349,1,,,,,,,,,,,,,,,0,0.342933169,-0.307425385,1,0,0,0.6349,button_right_main,0.342933169,-0.307425385,1,0,0,,0,92,92,79,1,CRUST,C,old,m,./images/CRUST.png,,,,,,,,,,,,,,,,,,,,,,,,,,,,,,,,,
,,,,,,,,,,,,,,,,,6155c391189863bfe2e4a593,31,2022-02-12_16h55.41.321,lexical_decision_task_DD_L3,2021.2.3,Linux armv8l,59.57345407,,,,,,,,,,0.9829,1,,,,,,,,,,,,,,,0,0.368841196,-0.301873671,1,0,0,0.9829,button_right_main,0.368841196,-0.301873671,1,0,0,,0,93,93,26,1,SMOKER,HB,old,m,./images/SMOKERHB.png,,,,,,,,,,,,,,,,,,,,,,,,,,,,,,,,,
,,,,,,,,,,,,,,,,,6155c391189863bfe2e4a593,31,2022-02-12_16h55.41.321,lexical_decision_task_DD_L3,2021.2.3,Linux armv8l,59.57345407,,,,,,,,,,0.5367,1,,,,,,,,,,,,,,,0,0.360513546,-0.309276008,1,0,0,0.5367,button_right_main,0.360513546,-0.309276008,1,0,0,,0,94,94,52,1,BANNER,C,old,m,./images/BANNER.png,,,,,,,,,,,,,,,,,,,,,,,,,,,,,,,,,
,,,,,,,,,,,,,,,,,6155c391189863bfe2e4a593,31,2022-02-12_16h55.41.321,lexical_decision_task_DD_L3,2021.2.3,Linux armv8l,59.57345407,,,,,,,,,,0.6335,1,,,,,,,,,,,,,,,0,-0.426902611,-0.332408022,1,0,0,0.6335,button_left_main,-0.426902611,-0.332408022,1,0,0,,0,95,95,113,1,LINEW,LB,old,z,./images/LINEWLB.png,,,,,,,,,,,,,,,,,,,,,,,,,,,,,,,,,
,,,,,,,,,,,,,,,,,6155c391189863bfe2e4a593,31,2022-02-12_16h55.41.321,lexical_decision_task_DD_L3,2021.2.3,Linux armv8l,59.57345407,,,,,,,,,,0.7342,1,,,,,,,,,,,,,,,0,-0.408396947,-0.325931151,1,0,0,0.7342,button_left_main,-0.408396947,-0.325931151,1,0,0,,0,96,96,139,1,BLEAR,HB,old,z,./images/BLEARHB.png,,,,,,,,,,,,,,,,,,,,,,,,,,,,,,,,,
,,,,,,,,,,,,,,,,,6155c391189863bfe2e4a593,31,2022-02-12_16h55.41.321,lexical_decision_task_DD_L3,2021.2.3,Linux armv8l,59.57345407,,,,,,,,,,0.533,1,,,,,,,,,,,,,,,0,0.371617053,-0.293546177,1,0,0,0.533,button_right_main,0.371617053,-0.293546177,1,0,0,,0,97,97,67,1,SAILOR,C,old,m,./images/SAILOR.png,,,,,,,,,,,,,,,,,,,,,,,,,,,,,,,,,
,,,,,,,,,,,,,,,,,6155c391189863bfe2e4a593,31,2022-02-12_16h55.41.321,lexical_decision_task_DD_L3,2021.2.3,Linux armv8l,59.57345407,,,,,,,,,,0.5834,1,,,,,,,,,,,,,,,0,0.364214715,-0.304649605,1,0,0,0.5834,button_right_main,0.364214715,-0.304649605,1,0,0,,0,98,98,75,1,GRAIN,LB,old,m,./images/GRAINLB.png,,,,,,,,,,,,,,,,,,,,,,,,,,,,,,,,,
,,,,,,,,,,,,,,,,,6155c391189863bfe2e4a593,31,2022-02-12_16h55.41.321,lexical_decision_task_DD_L3,2021.2.3,Linux armv8l,59.57345407,,,,,,,,,,0.6323,1,,,,,,,,,,,,,,,0,0.365139949,-0.291695554,1,0,0,0.6323,button_right_main,0.365139949,-0.291695554,1,0,0,,0,99,99,6,1,SQUARE,LB,old,m,./images/SQUARELB.png,,,,,,,,,,,,,,,,,,,,,,,,,,,,,,,,,
,,,,,,,,,,,,,,,,,6155c391189863bfe2e4a593,31,2022-02-12_16h55.41.321,lexical_decision_task_DD_L3,2021.2.3,Linux armv8l,59.57345407,,,,,,,,,,0.6679,1,,,,,,,,,,,,,,,0,0.367915806,-0.316678346,1,0,0,0.6679,button_right_main,0.367915806,-0.316678346,1,0,0,,0,100,100,43,1,MOSQUE,C,old,m,./images/MOSQUE.png,,,,,,,,,,,,,,,,,,,,,,,,,,,,,,,,,
,,,,,,,,,,,,,,,,,6155c391189863bfe2e4a593,31,2022-02-12_16h55.41.321,lexical_decision_task_DD_L3,2021.2.3,Linux armv8l,59.57345407,,,,,,,,,,0.6662,1,,,,,,,,,,,,,,,0,-0.440781863,-0.304649605,1,0,0,0.6662,button_left_main,-0.440781863,-0.304649605,1,0,0,,0,101,101,92,1,PAIMS,LB,old,z,./images/PAIMSLB.png,,,,,,,,,,,,,,,,,,,,,,,,,,,,,,,,,
,,,,,,,,,,,,,,,,,6155c391189863bfe2e4a593,31,2022-02-12_16h55.41.321,lexical_decision_task_DD_L3,2021.2.3,Linux armv8l,59.57345407,,,,,,,,,,0.5977,1,,,,,,,,,,,,,,,0,-0.425977328,-0.317603502,1,0,0,0.5977,button_left_main,-0.425977328,-0.317603502,1,0,0,,0,102,102,150,1,NOOLS,C,old,z,./images/NOOLS.png,,,,,,,,,,,,,,,,,,,,,,,,,,,,,,,,,
,,,,,,,,,,,,,,,,,6155c391189863bfe2e4a593,31,2022-02-12_16h55.41.321,lexical_decision_task_DD_L3,2021.2.3,Linux armv8l,59.57345407,,,,,,,,,,0.6336,1,,,,,,,,,,,,,,,0,0.38086978,-0.287994462,1,0,0,0.6336,button_right_main,0.38086978,-0.287994462,1,0,0,,0,103,103,42,1,FOLDER,LB,old,m,./images/FOLDERLB.png,,,,,,,,,,,,,,,,,,,,,,,,,,,,,,,,,
,,,,,,,,,,,,,,,,,6155c391189863bfe2e4a593,31,2022-02-12_16h55.41.321,lexical_decision_task_DD_L3,2021.2.3,Linux armv8l,59.57345407,,,,,,,,,,0.6026,1,,,,,,,,,,,,,,,0,0.365139949,-0.308350697,1,0,0,0.6026,button_right_main,0.365139949,-0.308350697,1,0,0,,0,104,104,0,1,TOMATO,LB,old,m,./images/TOMATOLB.png,,,,,,,,,,,,,,,,,,,,,,,,,,,,,,,,,
,,,,,,,,,,,,,,,,,6155c391189863bfe2e4a593,31,2022-02-12_16h55.41.321,lexical_decision_task_DD_L3,2021.2.3,Linux armv8l,59.57345407,,,,,,,,,,0.7687,1,,,,,,,,,,,,,,,0,-0.368609761,-0.309276008,1,0,0,0.7687,button_left_main,-0.368609761,-0.309276008,1,0,0,,0,105,105,140,1,DOVET,LB,old,z,./images/DOVETLB.png,,,,,,,,,,,,,,,,,,,,,,,,,,,,,,,,,
,,,,,,,,,,,,,,,,,6155c391189863bfe2e4a593,31,2022-02-12_16h55.41.321,lexical_decision_task_DD_L3,2021.2.3,Linux armv8l,59.57345407,,,,,,,,,,1.2855,1,,,,,,,,,,,,,,,0,0.379019313,-0.306500229,1,0,0,1.2855,button_right_main,0.379019313,-0.306500229,1,0,0,,0,106,106,11,1,BONNET,HB,old,m,./images/BONNETHB.png,,,,,,,,,,,,,,,,,,,,,,,,,,,,,,,,,
,,,,,,,,,,,,,,,,,6155c391189863bfe2e4a593,31,2022-02-12_16h55.41.321,lexical_decision_task_DD_L3,2021.2.3,Linux armv8l,59.57345407,,,,,,,,,,0.5182,1,,,,,,,,,,,,,,,0,0.376243378,-0.292620865,1,0,0,0.5182,button_right_main,0.376243378,-0.292620865,1,0,0,,0,107,107,15,1,GREASE,LB,old,m,./images/GREASELB.png,,,,,,,,,,,,,,,,,,,,,,,,,,,,,,,,,
,,,,,,,,,,,,,,,,,6155c391189863bfe2e4a593,31,2022-02-12_16h55.41.321,lexical_decision_task_DD_L3,2021.2.3,Linux armv8l,59.57345407,,,,,,,,,,0.5694,1,,,,,,,,,,,,,,,0,0.379019313,-0.297247268,1,0,0,0.5694,button_right_main,0.379019313,-0.297247268,1,0,0,,0,108,108,9,1,RHINO,LB,old,m,./images/RHINOLB.png,,,,,,,,,,,,,,,,,,,,,,,,,,,,,,,,,
,,,,,,,,,,,,,,,,,6155c391189863bfe2e4a593,31,2022-02-12_16h55.41.321,lexical_decision_task_DD_L3,2021.2.3,Linux armv8l,59.57345407,,,,,,,,,,0.6186,1,,,,,,,,,,,,,,,0,-0.417649781,-0.325005839,1,0,0,0.6186,button_left_main,-0.417649781,-0.325005839,1,0,0,,0,109,109,156,1,HIXES,C,old,z,./images/HIXES.png,,,,,,,,,,,,,,,,,,,,,,,,,,,,,,,,,
,,,,,,,,,,,,,,,,,6155c391189863bfe2e4a593,31,2022-02-12_16h55.41.321,lexical_decision_task_DD_L3,2021.2.3,Linux armv8l,59.57345407,,,,,,,,,,0.769,1,,,,,,,,,,,,,,,0,-0.420425629,-0.321304748,1,0,0,0.769,button_left_main,-0.420425629,-0.321304748,1,0,0,,0,110,110,121,1,CEERS,HB,old,z,./images/CEERSHB.png,,,,,,,,,,,,,,,,,,,,,,,,,,,,,,,,,
,,,,,,,,,,,,,,,,,6155c391189863bfe2e4a593,31,2022-02-12_16h55.41.321,lexical_decision_task_DD_L3,2021.2.3,Linux armv8l,59.57345407,,,,,,,,,,0.8663,1,,,,,,,,,,,,,,,0,0.374392832,-0.301873671,1,0,0,0.8663,button_right_main,0.374392832,-0.301873671,1,0,0,,0,111,111,27,1,ATTIC,LB,old,m,./images/ATTICLB.png,,,,,,,,,,,,,,,,,,,,,,,,,,,,,,,,,
,,,,,,,,,,,,,,,,,6155c391189863bfe2e4a593,31,2022-02-12_16h55.41.321,lexical_decision_task_DD_L3,2021.2.3,Linux armv8l,59.57345407,,,,,,,,,,0.6499,1,,,,,,,,,,,,,,,0,0.385496183,-0.290770397,1,0,0,0.6499,button_right_main,0.385496183,-0.290770397,1,0,0,,0,112,112,31,1,QUILL,C,old,m,./images/QUILL.png,,,,,,,,,,,,,,,,,,,,,,,,,,,,,,,,,
,,,,,,,,,,,,,,,,,6155c391189863bfe2e4a593,31,2022-02-12_16h55.41.321,lexical_decision_task_DD_L3,2021.2.3,Linux armv8l,59.57345407,,,,,,,,,,0.7651,1,,,,,,,,,,,,,,,0,0.360513546,-0.293546177,1,0,0,0.7651,button_right_main,0.360513546,-0.293546177,1,0,0,,0,113,113,72,1,NOOSE,LB,old,m,./images/NOOSELB.png,,,,,,,,,,,,,,,,,,,,,,,,,,,,,,,,,
,,,,,,,,,,,,,,,,,6155c391189863bfe2e4a593,31,2022-02-12_16h55.41.321,lexical_decision_task_DD_L3,2021.2.3,Linux armv8l,59.57345407,,,,,,,,,,0.6179,1,,,,,,,,,,,,,,,0,-0.432454311,-0.338885048,1,0,0,0.6179,button_left_main,-0.432454311,-0.338885048,1,0,0,,0,114,114,161,1,BLAPS,LB,old,z,./images/BLAPSLB.png,,,,,,,,,,,,,,,,,,,,,,,,,,,,,,,,,
,,,,,,,,,,,,,,,,,6155c391189863bfe2e4a593,31,2022-02-12_16h55.41.321,lexical_decision_task_DD_L3,2021.2.3,Linux armv8l,59.57345407,,,,,,,,,,0.5829,1,,,,,,,,,,,,,,,0,-0.404695807,-0.308350697,1,0,0,0.5829,button_left_main,-0.404695807,-0.308350697,1,0,0,,0,115,115,132,1,SCIFF,C,old,z,./images/SCIFF.png,,,,,,,,,,,,,,,,,,,,,,,,,,,,,,,,,
,,,,,,,,,,,,,,,,,6155c391189863bfe2e4a593,31,2022-02-12_16h55.41.321,lexical_decision_task_DD_L3,2021.2.3,Linux armv8l,59.57345407,,,,,,,,,,0.5166,1,,,,,,,,,,,,,,,0,0.354961832,-0.284293371,1,0,0,0.5166,button_right_main,0.354961832,-0.284293371,1,0,0,,0,116,116,69,1,COOKER,LB,old,m,./images/COOKERLB.png,,,,,,,,,,,,,,,,,,,,,,,,,,,,,,,,,
,,,,,,,,,,,,,,,,,6155c391189863bfe2e4a593,31,2022-02-12_16h55.41.321,lexical_decision_task_DD_L3,2021.2.3,Linux armv8l,59.57345407,,,,,,,,,,0.6013,1,,,,,,,,,,,,,,,0,-0.39451769,-0.314827722,1,0,0,0.6013,button_left_main,-0.39451769,-0.314827722,1,0,0,,0,117,117,84,1,HAXES,C,old,z,./images/HAXES.png,,,,,,,,,,,,,,,,,,,,,,,,,,,,,,,,,
,,,,,,,,,,,,,,,,,6155c391189863bfe2e4a593,31,2022-02-12_16h55.41.321,lexical_decision_task_DD_L3,2021.2.3,Linux armv8l,59.57345407,,,,,,,,,,0.5845,1,,,,,,,,,,,,,,,0,0.356812455,-0.293546177,1,0,0,0.5845,button_right_main,0.356812455,-0.293546177,1,0,0,,0,118,118,70,1,URINE,C,old,m,./images/URINE.png,,,,,,,,,,,,,,,,,,,,,,,,,,,,,,,,,
,,,,,,,,,,,,,,,,,6155c391189863bfe2e4a593,31,2022-02-12_16h55.41.321,lexical_decision_task_DD_L3,2021.2.3,Linux armv8l,59.57345407,,,,,,,,,,1.0191,1,,,,,,,,,,,,,,,0,-0.440781863,-0.286143995,1,0,0,1.0191,button_left_main,-0.440781863,-0.286143995,1,0,0,,0,119,119,127,1,NINDY,HB,old,z,./images/NINDYHB.png,,,,,,,,,,,,,,,,,,,,,,,,,,,,,,,,,
,,,,,,,,,,,,,,,,,6155c391189863bfe2e4a593,31,2022-02-12_16h55.41.321,lexical_decision_task_DD_L3,2021.2.3,Linux armv8l,59.57345407,,,,,,,,,,0.5832,1,,,,,,,,,,,,,,,0,0.364214715,-0.286143995,1,0,0,0.5832,button_right_main,0.364214715,-0.286143995,1,0,0,,0,120,120,63,1,MIRROR,LB,old,m,./images/MIRRORLB.png,,,,,,,,,,,,,,,,,,,,,,,,,,,,,,,,,
,,,,,,,,,,,,,,,,,6155c391189863bfe2e4a593,31,2022-02-12_16h55.41.321,lexical_decision_task_DD_L3,2021.2.3,Linux armv8l,59.57345407,,,,,,,,,,0.6509,1,,,,,,,,,,,,,,,0,0.357737689,-0.294471488,1,0,0,0.6509,button_right_main,0.357737689,-0.294471488,1,0,0,,0,121,121,33,1,MAGGOT,LB,old,m,./images/MAGGOTLB.png,,,,,,,,,,,,,,,,,,,,,,,,,,,,,,,,,
,,,,,,,,,,,,,,,,,6155c391189863bfe2e4a593,31,2022-02-12_16h55.41.321,lexical_decision_task_DD_L3,2021.2.3,Linux armv8l,59.57345407,,,,,,,,,,0.5192,1,,,,,,,,,,,,,,,0,0.363289404,-0.277816345,1,0,0,0.5192,button_right_main,0.363289404,-0.277816345,1,0,0,,0,122,122,39,1,SHELF,LB,old,m,./images/SHELFLB.png,,,,,,,,,,,,,,,,,,,,,,,,,,,,,,,,,
,,,,,,,,,,,,,,,,,6155c391189863bfe2e4a593,31,2022-02-12_16h55.41.321,lexical_decision_task_DD_L3,2021.2.3,Linux armv8l,59.57345407,,,,,,,,,,0.9195,1,,,,,,,,,,,,,,,0,0.408628274,-0.285218683,1,0,0,0.9195,button_right_main,0.408628274,-0.285218683,1,0,0,,0,123,123,24,1,SCREW,LB,old,m,./images/SCREWLB.png,,,,,,,,,,,,,,,,,,,,,,,,,,,,,,,,,
,,,,,,,,,,,,,,,,,6155c391189863bfe2e4a593,31,2022-02-12_16h55.41.321,lexical_decision_task_DD_L3,2021.2.3,Linux armv8l,59.57345407,,,,,,,,,,0.6475,1,,,,,,,,,,,,,,,0,-0.402845232,-0.303724294,1,0,0,0.6475,button_left_main,-0.402845232,-0.303724294,1,0,0,,0,124,124,153,1,CLUPS,C,old,z,./images/CLUPS.png,,,,,,,,,,,,,,,,,,,,,,,,,,,,,,,,,
,,,,,,,,,,,,,,,,,6155c391189863bfe2e4a593,31,2022-02-12_16h55.41.321,lexical_decision_task_DD_L3,2021.2.3,Linux armv8l,59.57345407,,,,,,,,,,0.6835,1,,,,,,,,,,,,,,,0,0.377168689,-0.293546177,1,0,0,0.6835,button_right_main,0.093106646,-0.42678701,1,0,0,,0,125,125,2,1,BEARD,HB,old,m,./images/BEARDHB.png,break_done_button,,,,,,,,,,,,,,,,,,,,,,,,,,,,,,,,
,,,,,,,,,,,,,,,,,6155c391189863bfe2e4a593,31,2022-02-12_16h55.41.321,lexical_decision_task_DD_L3,2021.2.3,Linux armv8l,59.57345407,,,,,,,,,,0.5995,1,,,,,,,,,,,,,,,0,0.353111287,-0.280592203,1,0,0,0.5995,button_right_main,0.353111287,-0.280592203,1,0,0,,0,126,126,57,1,MOOSE,LB,old,m,./images/MOOSELB.png,,,,,,,,,,,,,,,,,,,,,,,,,,,,,,,,,
,,,,,,,,,,,,,,,,,6155c391189863bfe2e4a593,31,2022-02-12_16h55.41.321,lexical_decision_task_DD_L3,2021.2.3,Linux armv8l,59.57345407,,,,,,,,,,0.5195,1,,,,,,,,,,,,,,,0,0.377168689,-0.300023358,1,0,0,0.5195,button_right_main,0.377168689,-0.300023358,1,0,0,,0,127,127,51,1,ONION,LB,old,m,./images/ONIONLB.png,,,,,,,,,,,,,,,,,,,,,,,,,,,,,,,,,
,,,,,,,,,,,,,,,,,6155c391189863bfe2e4a593,31,2022-02-12_16h55.41.321,lexical_decision_task_DD_L3,2021.2.3,Linux armv8l,59.57345407,,,,,,,,,,0.6487,1,,,,,,,,,,,,,,,0,-0.369535043,-0.320379592,1,0,0,0.6487,button_left_main,-0.369535043,-0.320379592,1,0,0,,0,128,128,129,1,PRANS,C,old,z,./images/PRANS.png,,,,,,,,,,,,,,,,,,,,,,,,,,,,,,,,,
,,,,,,,,,,,,,,,,,6155c391189863bfe2e4a593,31,2022-02-12_16h55.41.321,lexical_decision_task_DD_L3,2021.2.3,Linux armv8l,59.57345407,,,,,,,,,,0.6834,1,,,,,,,,,,,,,,,0,-0.444482997,-0.289845241,1,0,0,0.6834,button_left_main,-0.444482997,-0.289845241,1,0,0,,0,129,129,141,1,PLEET,C,old,z,./images/PLEET.png,,,,,,,,,,,,,,,,,,,,,,,,,,,,,,,,,
,,,,,,,,,,,,,,,,,6155c391189863bfe2e4a593,31,2022-02-12_16h55.41.321,lexical_decision_task_DD_L3,2021.2.3,Linux armv8l,59.57345407,,,,,,,,,,0.8467,1,,,,,,,,,,,,,,,0,0.391973287,-0.286143995,1,0,0,0.8467,button_right_main,0.391973287,-0.286143995,1,0,0,,0,130,130,60,1,TWINS,LB,old,m,./images/TWINSLB.png,,,,,,,,,,,,,,,,,,,,,,,,,,,,,,,,,
,,,,,,,,,,,,,,,,,6155c391189863bfe2e4a593,31,2022-02-12_16h55.41.321,lexical_decision_task_DD_L3,2021.2.3,Linux armv8l,59.57345407,,,,,,,,,,0.6681,1,,,,,,,,,,,,,,,0,-0.431529028,-0.304649605,1,0,0,0.6681,button_left_main,-0.431529028,-0.304649605,1,0,0,,0,131,131,90,1,NEAST,C,old,z,./images/NEAST.png,,,,,,,,,,,,,,,,,,,,,,,,,,,,,,,,,
,,,,,,,,,,,,,,,,,6155c391189863bfe2e4a593,31,2022-02-12_16h55.41.321,lexical_decision_task_DD_L3,2021.2.3,Linux armv8l,59.57345407,,,,,,,,,,0.7331,1,,,,,,,,,,,,,,,0,0.366065261,-0.318528814,1,0,0,0.7331,button_right_main,0.366065261,-0.318528814,1,0,0,,0,132,132,29,1,CRUMB,HB,old,m,./images/CRUMBHB.png,,,,,,,,,,,,,,,,,,,,,,,,,,,,,,,,,
,,,,,,,,,,,,,,,,,6155c391189863bfe2e4a593,31,2022-02-12_16h55.41.321,lexical_decision_task_DD_L3,2021.2.3,Linux armv8l,59.57345407,,,,,,,,,,0.7682,1,,,,,,,,,,,,,,,0,-0.43430488,-0.306500229,1,0,0,0.7682,button_left_main,-0.43430488,-0.306500229,1,0,0,,0,133,133,100,1,DRIBS,HB,old,z,./images/DRIBSHB.png,,,,,,,,,,,,,,,,,,,,,,,,,,,,,,,,,
,,,,,,,,,,,,,,,,,6155c391189863bfe2e4a593,31,2022-02-12_16h55.41.321,lexical_decision_task_DD_L3,2021.2.3,Linux armv8l,59.57345407,,,,,,,,,,0.9862,1,,,,,,,,,,,,,,,0,0.375318066,-0.299097891,1,0,0,0.9862,button_right_main,0.375318066,-0.299097891,1,0,0,,0,134,134,62,1,PURSE,HB,old,m,./images/PURSEHB.png,,,,,,,,,,,,,,,,,,,,,,,,,,,,,,,,,
,,,,,,,,,,,,,,,,,6155c391189863bfe2e4a593,31,2022-02-12_16h55.41.321,lexical_decision_task_DD_L3,2021.2.3,Linux armv8l,59.57345407,,,,,,,,,,0.5148,0,,,,,,,,,,,,,,,0,0.374392832,-0.300023358,1,0,0,0.5148,button_right_main,0.374392832,-0.300023358,1,0,0,,0,135,135,110,1,CRUNK,LB,old,z,./images/CRUNKLB.png,,,,,,,,,,,,,,,,,,,,,,,,,,,,,,,,,
,,,,,,,,,,,,,,,,,6155c391189863bfe2e4a593,31,2022-02-12_16h55.41.321,lexical_decision_task_DD_L3,2021.2.3,Linux armv8l,59.57345407,,,,,,,,,,0.8335,1,,,,,,,,,,,,,,,0,0.363289404,-0.304649605,1,0,0,0.8335,button_right_main,0.363289404,-0.304649605,1,0,0,,0,136,136,38,1,LADDER,HB,old,m,./images/LADDERHB.png,,,,,,,,,,,,,,,,,,,,,,,,,,,,,,,,,
,,,,,,,,,,,,,,,,,6155c391189863bfe2e4a593,31,2022-02-12_16h55.41.321,lexical_decision_task_DD_L3,2021.2.3,Linux armv8l,59.57345407,,,,,,,,,,0.7162,1,,,,,,,,,,,,,,,0,0.382720326,-0.28336806,1,0,0,0.7162,button_right_main,0.382720326,-0.28336806,1,0,0,,0,137,137,83,1,JUNGLE,HB,old,m,./images/JUNGLEHB.png,,,,,,,,,,,,,,,,,,,,,,,,,,,,,,,,,
,,,,,,,,,,,,,,,,,6155c391189863bfe2e4a593,31,2022-02-12_16h55.41.321,lexical_decision_task_DD_L3,2021.2.3,Linux armv8l,59.57345407,,,,,,,,,,0.7005,1,,,,,,,,,,,,,,,0,0.378093923,-0.286143995,1,0,0,0.7005,button_right_main,0.378093923,-0.286143995,1,0,0,,0,138,138,65,1,FARMER,HB,old,m,./images/FARMERHB.png,,,,,,,,,,,,,,,,,,,,,,,,,,,,,,,,,
,,,,,,,,,,,,,,,,,6155c391189863bfe2e4a593,31,2022-02-12_16h55.41.321,lexical_decision_task_DD_L3,2021.2.3,Linux armv8l,59.57345407,,,,,,,,,,0.769,0,,,,,,,,,,,,,,,0,0.376243378,-0.294471488,1,0,0,0.769,button_right_main,0.376243378,-0.294471488,1,0,0,,0,139,139,104,1,GITTY,LB,old,z,./images/GITTYLB.png,,,,,,,,,,,,,,,,,,,,,,,,,,,,,,,,,
,,,,,,,,,,,,,,,,,6155c391189863bfe2e4a593,31,2022-02-12_16h55.41.321,lexical_decision_task_DD_L3,2021.2.3,Linux armv8l,59.57345407,,,,,,,,,,0.5323,1,,,,,,,,,,,,,,,0,0.370691663,-0.272264631,1,0,0,0.5323,button_right_main,0.370691663,-0.272264631,1,0,0,,0,140,140,45,1,KITTEN,LB,old,m,./images/KITTENLB.png,,,,,,,,,,,,,,,,,,,,,,,,,,,,,,,,,
,,,,,,,,,,,,,,,,,6155c391189863bfe2e4a593,31,2022-02-12_16h55.41.321,lexical_decision_task_DD_L3,2021.2.3,Linux armv8l,59.57345407,,,,,,,,,,0.5476,1,,,,,,,,,,,,,,,0,0.363289404,-0.306500229,1,0,0,0.5476,button_right_main,0.363289404,-0.306500229,1,0,0,,0,141,141,25,1,WRIST,C,old,m,./images/WRIST.png,,,,,,,,,,,,,,,,,,,,,,,,,,,,,,,,,
,,,,,,,,,,,,,,,,,6155c391189863bfe2e4a593,31,2022-02-12_16h55.41.321,lexical_decision_task_DD_L3,2021.2.3,Linux armv8l,59.57345407,,,,,,,,,,0.9836,1,,,,,,,,,,,,,,,0,0.376243378,-0.300023358,1,0,0,0.9836,button_right_main,0.376243378,-0.300023358,1,0,0,,0,142,142,47,1,BERRY,HB,old,m,./images/BERRYHB.png,,,,,,,,,,,,,,,,,,,,,,,,,,,,,,,,,
,,,,,,,,,,,,,,,,,6155c391189863bfe2e4a593,31,2022-02-12_16h55.41.321,lexical_decision_task_DD_L3,2021.2.3,Linux armv8l,59.57345407,,,,,,,,,,0.6149,1,,,,,,,,,,,,,,,0,-0.419500346,-0.312051788,1,0,0,0.6149,button_left_main,-0.419500346,-0.312051788,1,0,0,,0,143,143,96,1,KEAMS,C,old,z,./images/KEAMS.png,,,,,,,,,,,,,,,,,,,,,,,,,,,,,,,,,
,,,,,,,,,,,,,,,,,6155c391189863bfe2e4a593,31,2022-02-12_16h55.41.321,lexical_decision_task_DD_L3,2021.2.3,Linux armv8l,59.57345407,,,,,,,,,,0.7,1,,,,,,,,,,,,,,,0,-0.429678463,-0.303724294,1,0,0,0.7,button_left_main,-0.429678463,-0.303724294,1,0,0,,0,144,144,149,1,VEASE,LB,old,z,./images/VEASELB.png,,,,,,,,,,,,,,,,,,,,,,,,,,,,,,,,,
,,,,,,,,,,,,,,,,,6155c391189863bfe2e4a593,31,2022-02-12_16h55.41.321,lexical_decision_task_DD_L3,2021.2.3,Linux armv8l,59.57345407,,,,,,,,,,0.649,1,,,,,,,,,,,,,,,0,-0.419500346,-0.313902411,1,0,0,0.649,button_left_main,-0.419500346,-0.313902411,1,0,0,,0,145,145,158,1,EGECT,LB,old,z,./images/EGECTLB.png,,,,,,,,,,,,,,,,,,,,,,,,,,,,,,,,,
,,,,,,,,,,,,,,,,,6155c391189863bfe2e4a593,31,2022-02-12_16h55.41.321,lexical_decision_task_DD_L3,2021.2.3,Linux armv8l,59.57345407,,,,,,,,,,0.7333,1,,,,,,,,,,,,,,,0,0.373467521,-0.310201475,1,0,0,0.7333,button_right_main,0.373467521,-0.310201475,1,0,0,,0,146,146,68,1,TORCH,HB,old,m,./images/TORCHHB.png,,,,,,,,,,,,,,,,,,,,,,,,,,,,,,,,,
,,,,,,,,,,,,,,,,,6155c391189863bfe2e4a593,31,2022-02-12_16h55.41.321,lexical_decision_task_DD_L3,2021.2.3,Linux armv8l,59.57345407,,,,,,,,,,0.5529,1,,,,,,,,,,,,,,,0,0.357737689,-0.313902411,1,0,0,0.5529,button_right_main,0.357737689,-0.313902411,1,0,0,,0,147,147,1,1,PLANK,C,old,m,./images/PLANK.png,,,,,,,,,,,,,,,,,,,,,,,,,,,,,,,,,
,,,,,,,,,,,,,,,,,6155c391189863bfe2e4a593,31,2022-02-12_16h55.41.321,lexical_decision_task_DD_L3,2021.2.3,Linux armv8l,59.57345407,,,,,,,,,,0.683,1,,,,,,,,,,,,,,,0,-0.424126763,-0.318528814,1,0,0,0.683,button_left_main,-0.424126763,-0.318528814,1,0,0,,0,148,148,162,1,LEICH,C,old,z,./images/LEICH.png,,,,,,,,,,,,,,,,,,,,,,,,,,,,,,,,,
,,,,,,,,,,,,,,,,,6155c391189863bfe2e4a593,31,2022-02-12_16h55.41.321,lexical_decision_task_DD_L3,2021.2.3,Linux armv8l,59.57345407,,,,,,,,,,0.6499,1,,,,,,,,,,,,,,,0,-0.432454311,-0.314827722,1,0,0,0.6499,button_left_main,-0.432454311,-0.314827722,1,0,0,,0,149,149,164,1,SGREW,LB,old,z,./images/SGREWLB.png,,,,,,,,,,,,,,,,,,,,,,,,,,,,,,,,,
,,,,,,,,,,,,,,,,,6155c391189863bfe2e4a593,31,2022-02-12_16h55.41.321,lexical_decision_task_DD_L3,2021.2.3,Linux armv8l,59.57345407,,,,,,,,,,0.5164,1,,,,,,,,,,,,,,,0,0.376243378,-0.314827722,1,0,0,0.5164,button_right_main,0.376243378,-0.314827722,1,0,0,,0,150,150,4,1,MUSCLE,C,old,m,./images/MUSCLE.png,,,,,,,,,,,,,,,,,,,,,,,,,,,,,,,,,
,,,,,,,,,,,,,,,,,6155c391189863bfe2e4a593,31,2022-02-12_16h55.41.321,lexical_decision_task_DD_L3,2021.2.3,Linux armv8l,59.57345407,,,,,,,,,,0.7196,1,,,,,,,,,,,,,,,0,-0.418575064,-0.313902411,1,0,0,0.7196,button_left_main,-0.418575064,-0.313902411,1,0,0,,0,151,151,160,1,VEETS,HB,old,z,./images/VEETSHB.png,,,,,,,,,,,,,,,,,,,,,,,,,,,,,,,,,
,,,,,,,,,,,,,,,,,6155c391189863bfe2e4a593,31,2022-02-12_16h55.41.321,lexical_decision_task_DD_L3,2021.2.3,Linux armv8l,59.57345407,,,,,,,,,,0.6504,1,,,,,,,,,,,,,,,0,-0.417649781,-0.317603502,1,0,0,0.6504,button_left_main,-0.417649781,-0.317603502,1,0,0,,0,152,152,114,1,RIKES,C,old,z,./images/RIKES.png,,,,,,,,,,,,,,,,,,,,,,,,,,,,,,,,,
,,,,,,,,,,,,,,,,,6155c391189863bfe2e4a593,31,2022-02-12_16h55.41.321,lexical_decision_task_DD_L3,2021.2.3,Linux armv8l,59.57345407,,,,,,,,,,0.6486,1,,,,,,,,,,,,,,,0,-0.419500346,-0.312051788,1,0,0,0.6486,button_left_main,-0.419500346,-0.312051788,1,0,0,,0,153,153,93,1,SMONE,C,old,z,./images/SMONE.png,,,,,,,,,,,,,,,,,,,,,,,,,,,,,,,,,
,,,,,,,,,,,,,,,,,6155c391189863bfe2e4a593,31,2022-02-12_16h55.41.321,lexical_decision_task_DD_L3,2021.2.3,Linux armv8l,59.57345407,,,,,,,,,,0.5641,1,,,,,,,,,,,,,,,0,-0.429678463,-0.314827722,1,0,0,0.5641,button_left_main,-0.429678463,-0.314827722,1,0,0,,0,154,154,134,1,TROSS,LB,old,z,./images/TROSSLB.png,,,,,,,,,,,,,,,,,,,,,,,,,,,,,,,,,
,,,,,,,,,,,,,,,,,6155c391189863bfe2e4a593,31,2022-02-12_16h55.41.321,lexical_decision_task_DD_L3,2021.2.3,Linux armv8l,59.57345407,,,,,,,,,,0.8033,1,,,,,,,,,,,,,,,0,-0.420425629,-0.313902411,1,0,0,0.8033,button_left_main,-0.420425629,-0.313902411,1,0,0,,0,155,155,130,1,CRILL,HB,old,z,./images/CRILLHB.png,,,,,,,,,,,,,,,,,,,,,,,,,,,,,,,,,
,,,,,,,,,,,,,,,,,6155c391189863bfe2e4a593,31,2022-02-12_16h55.41.321,lexical_decision_task_DD_L3,2021.2.3,Linux armv8l,59.57345407,,,,,,,,,,0.6,1,,,,,,,,,,,,,,,0,-0.432454311,-0.315753034,1,0,0,0.6,button_left_main,-0.432454311,-0.315753034,1,0,0,,0,156,156,98,1,BAMPS,LB,old,z,./images/BAMPSLB.png,,,,,,,,,,,,,,,,,,,,,,,,,,,,,,,,,
,,,,,,,,,,,,,,,,,6155c391189863bfe2e4a593,31,2022-02-12_16h55.41.321,lexical_decision_task_DD_L3,2021.2.3,Linux armv8l,59.57345407,,,,,,,,,,1.4368,1,,,,,,,,,,,,,,,0,-0.413948641,-0.314827722,1,0,0,1.4368,button_left_main,-0.413948641,-0.314827722,1,0,0,,0,157,157,166,1,SHORY,HB,old,z,./images/SHORYHB.png,,,,,,,,,,,,,,,,,,,,,,,,,,,,,,,,,
,,,,,,,,,,,,,,,,,6155c391189863bfe2e4a593,31,2022-02-12_16h55.41.321,lexical_decision_task_DD_L3,2021.2.3,Linux armv8l,59.57345407,,,,,,,,,,0.8001,1,,,,,,,,,,,,,,,0,-0.425977328,-0.318528814,1,0,0,0.8001,button_left_main,-0.425977328,-0.318528814,1,0,0,,0,158,158,124,1,TUNCH,HB,old,z,./images/TUNCHHB.png,,,,,,,,,,,,,,,,,,,,,,,,,,,,,,,,,
,,,,,,,,,,,,,,,,,6155c391189863bfe2e4a593,31,2022-02-12_16h55.41.321,lexical_decision_task_DD_L3,2021.2.3,Linux armv8l,59.57345407,,,,,,,,,,0.5713,1,,,,,,,,,,,,,,,0,0.366065261,-0.307425385,1,0,0,0.5713,button_right_main,0.366065261,-0.307425385,1,0,0,,0,159,159,18,1,JAGUAR,LB,old,m,./images/JAGUARLB.png,,,,,,,,,,,,,,,,,,,,,,,,,,,,,,,,,
,,,,,,,,,,,,,,,,,6155c391189863bfe2e4a593,31,2022-02-12_16h55.41.321,lexical_decision_task_DD_L3,2021.2.3,Linux armv8l,59.57345407,,,,,,,,,,0.5347,1,,,,,,,,,,,,,,,0,0.353111287,-0.321304748,1,0,0,0.5347,button_right_main,0.353111287,-0.321304748,1,0,0,,0,160,160,81,1,POODLE,LB,old,m,./images/POODLELB.png,,,,,,,,,,,,,,,,,,,,,,,,,,,,,,,,,
,,,,,,,,,,,,,,,,,6155c391189863bfe2e4a593,31,2022-02-12_16h55.41.321,lexical_decision_task_DD_L3,2021.2.3,Linux armv8l,59.57345407,,,,,,,,,,0.5647,1,,,,,,,,,,,,,,,0,-0.418575064,-0.328706931,1,0,0,0.5647,button_left_main,-0.418575064,-0.328706931,1,0,0,,0,161,161,135,1,JOODY,C,old,z,./images/JOODY.png,,,,,,,,,,,,,,,,,,,,,,,,,,,,,,,,,
,,,,,,,,,,,,,,,,,6155c391189863bfe2e4a593,31,2022-02-12_16h55.41.321,lexical_decision_task_DD_L3,2021.2.3,Linux armv8l,59.57345407,,,,,,,,,,0.6347,1,,,,,,,,,,,,,,,0,-0.408396947,-0.315753034,1,0,0,0.6347,button_left_main,-0.408396947,-0.315753034,1,0,0,,0,162,162,152,1,FRAIN,LB,old,z,./images/FRAINLB.png,,,,,,,,,,,,,,,,,,,,,,,,,,,,,,,,,
,,,,,,,,,,,,,,,,,6155c391189863bfe2e4a593,31,2022-02-12_16h55.41.321,lexical_decision_task_DD_L3,2021.2.3,Linux armv8l,59.57345407,,,,,,,,,,0.5504,1,,,,,,,,,,,,,,,0,0.360513546,-0.309276008,1,0,0,0.5504,button_right_main,0.360513546,-0.309276008,1,0,0,,0,163,163,64,1,JELLY,C,old,m,./images/JELLY.png,,,,,,,,,,,,,,,,,,,,,,,,,,,,,,,,,
,,,,,,,,,,,,,,,,,6155c391189863bfe2e4a593,31,2022-02-12_16h55.41.321,lexical_decision_task_DD_L3,2021.2.3,Linux armv8l,59.57345407,,,,,,,,,,0.5331,1,,,,,,,,,,,,,,,0,0.346634338,-0.331482865,1,0,0,0.5331,button_right_main,0.346634338,-0.331482865,1,0,0,,0,164,164,46,1,PEARL,C,old,m,./images/PEARL.png,,,,,,,,,,,,,,,,,,,,,,,,,,,,,,,,,
,,,,,,,,,,,,,,,,,6155c391189863bfe2e4a593,31,2022-02-12_16h55.41.321,lexical_decision_task_DD_L3,2021.2.3,Linux armv8l,59.57345407,,,,,,,,,,0.6309,1,,,,,,,,,,,,,,,0,-0.429678463,-0.312051788,1,0,0,0.6309,button_left_main,-0.429678463,-0.312051788,1,0,0,,0,165,165,111,1,HOSSE,C,old,z,./images/HOSSE.png,,,,,,,,,,,,,,,,,,,,,,,,,,,,,,,,,
,,,,,,,,,,,,,,,,,6155c391189863bfe2e4a593,31,2022-02-12_16h55.41.321,lexical_decision_task_DD_L3,2021.2.3,Linux armv8l,59.57345407,,,,,,,,,,1.018,1,,,,,,,,,,,,,,,0,-0.428753181,-0.310201475,1,0,0,1.018,button_left_main,-0.428753181,-0.310201475,1,0,0,,0,166,166,133,1,POWDY,HB,old,z,./images/POWDYHB.png,,,,,,,,,,,,,,,,,,,,,,,,,,,,,,,,,
,,,,,,,,,,,,,,,,,6155c391189863bfe2e4a593,31,2022-02-12_16h55.41.321,lexical_decision_task_DD_L3,2021.2.3,Linux armv8l,59.57345407,,,,,,,,,,0.5496,1,,,,,,,,,,,,,,,0,0.376243378,-0.301873671,1,0,0,0.5496,button_right_main,0.376243378,-0.301873671,1,0,0,,0,167,167,55,1,MUFFIN,C,old,m,./images/MUFFIN.png,,,,,,,,,,,,,,,,,,,,,,,,,,,,,,,,,
,,,,,,,,,,,,,,,,,6155c391189863bfe2e4a593,31,2022-02-12_16h55.41.321,lexical_decision_task_DD_L3,2021.2.3,Linux armv8l,59.57345407,,,,,,,,,,,,,,,,,,,,,,,,,,,,,,,,,,,,,,,,,,,,,,How likely will it be that you will recognize the words presented clearly on a scale of 0 (not likely) to 100 (most likely)?,,,,,-0.011450382,-0.424011075,1,0,0,jol_adv,6,4.2295,0,0,0,0,1,,,,,,,,,,,,,,,,,,,
,,,,,,,,,,,,,,,,,6155c391189863bfe2e4a593,31,2022-02-12_16h55.41.321,lexical_decision_task_DD_L3,2021.2.3,Linux armv8l,59.57345407,,,,,,,,,,,,,,,,,,,,,,,,,,,,,,,,,,,,,,,,,,,,,,How likely will it be that you will recognize the words presented very blurred on a scale of 0 (not likely) to 100 (most likely)?,,,,,,,,,,,2,3.9026,0,1,1,2,1,,,,,,,,,,,,,,,,,,,
,,,,,,,,,,,,,,,,,6155c391189863bfe2e4a593,31,2022-02-12_16h55.41.321,lexical_decision_task_DD_L3,2021.2.3,Linux armv8l,59.57345407,,,,,,,,,,,,,,,,,,,,,,,,,,,,,,,,,,,,,,,,,,,,,,How likely will it be that you will recognize the words presented slighly blurred on a scale of 0 (not likely) to 100 (most likely)?,,,,,,,,,,,5,2.4898,0,2,2,1,1,,,,,,,,,,,,,,,,,,,
,0.128267477,-0.404580153,1,0,0,instr_done_button,,,,,,1,test,"In the next phase you will be presented with the words from the the first phase. Your job is to decide whether you remember seeing the word or not. If you remember seeing the word press ""old"" or type ""m"". If you do not remember seeing the word press ""new"" or type ""z"". Please press the space bar or click on continue to begin. ",,,6155c391189863bfe2e4a593,31,2022-02-12_16h55.41.321,lexical_decision_task_DD_L3,2021.2.3,Linux armv8l,59.57345407,,,,,,,,,,,,,,,,,,,,,,,,,,,,,,,,,,,,,,,,,,,,,,,,,,,,,,,,,,,,,,,,0,0,0,0,1,,,,,,,,,,,,,,
,0.064422879,-0.402729685,1,0,0,instr_done_button,,,,,,1,test,"In the next phase you will be presented with the words from the the first phase. Your job is to decide whether you remember seeing the word or not. If you remember seeing the word press ""old"" or type ""m"". If you do not remember seeing the word press ""new"" or type ""z"". Please press the space bar or click on continue to begin. ",,,6155c391189863bfe2e4a593,31,2022-02-12_16h55.41.321,lexical_decision_task_DD_L3,2021.2.3,Linux armv8l,59.57345407,,,,,,,,,,,,,,,,,,,,,,,,,,,,,,,,,,,,,,,,,,,,,,,,,,,,,,,,,,,,,,,,1,0,1,0,1,,,,,,,,,,,,,,
,0.068124009,-0.417534205,1,0,0,instr_done_button,,,,,,1,test,"In the next phase you will be presented with the words from the the first phase. Your job is to decide whether you remember seeing the word or not. If you remember seeing the word press ""old"" or type ""m"". If you do not remember seeing the word press ""new"" or type ""z"". Please press the space bar or click on continue to begin. ",,,6155c391189863bfe2e4a593,31,2022-02-12_16h55.41.321,lexical_decision_task_DD_L3,2021.2.3,Linux armv8l,59.57345407,,,,,,,,,,,,,,,,,,,,,,,,,,,,,,,,,,,,,,,,,,,,,,,,,,,,,,,,,,,,,,,,2,0,2,0,1,,,,,,,,,,,,,,
,-0.073444357,-0.382373451,1,0,0,instr_done_button,,,,,,1,test,"In the next phase you will be presented with the words from the the first phase. Your job is to decide whether you remember seeing the word or not. If you remember seeing the word press ""old"" or type ""m"". If you do not remember seeing the word press ""new"" or type ""z"". Please press the space bar or click on continue to begin. ",,,6155c391189863bfe2e4a593,31,2022-02-12_16h55.41.321,lexical_decision_task_DD_L3,2021.2.3,Linux armv8l,59.57345407,,,,,,,,,,,,,,,,,,,,,,,,,,,,,,,,,,,,,,,,,,,,,,,,,,,,,,,,,,,,,,,,3,0,3,0,1,,,,,,,,,,,,,,
,0.070899866,-0.404580153,1,0,0,instr_done_button,,,,,,1,test,"In the next phase you will be presented with the words from the the first phase. Your job is to decide whether you remember seeing the word or not. If you remember seeing the word press ""old"" or type ""m"". If you do not remember seeing the word press ""new"" or type ""z"". Please press the space bar or click on continue to begin. ",,,6155c391189863bfe2e4a593,31,2022-02-12_16h55.41.321,lexical_decision_task_DD_L3,2021.2.3,Linux armv8l,59.57345407,,,,,,,,,,,,,,,,,,,,,,,,,,,,,,,,,,,,,,,,,,,,,,,,,,,,,,,,,,,,,,,,4,0,4,0,1,,,,,,,,,,,,,,
,,,,,,,,,,,,,,,,,6155c391189863bfe2e4a593,31,2022-02-12_16h55.41.321,lexical_decision_task_DD_L3,2021.2.3,Linux armv8l,59.57345407,,,,,,,,,,2.6152,1,,,,,,,,,,,,,,,,,,,,,,,0.404927183,-0.297247268,1,0,0,,,,,,,WRIST,C,m,m,./images/WRIST.png,,,,,,,,,,,,,,,,,,,,,0,0.404927183,-0.297247268,1,0,0,2.6152,button_right_test,0,0,0,25,1
,,,,,,,,,,,,,,,,,6155c391189863bfe2e4a593,31,2022-02-12_16h55.41.321,lexical_decision_task_DD_L3,2021.2.3,Linux armv8l,59.57345407,,,,,,,,,,0.7189,1,,,,,,,,,,,,,,,,,,,,,,,-0.433379588,-0.312977099,1,0,0,,,,,,,CANDY,LB,z,m,./images/CANDYLB.png,,,,,,,,,,,,,,,,,,,,,0,-0.433379588,-0.312977099,1,0,0,0.7189,button_left_test,0,1,1,123,1
,,,,,,,,,,,,,,,,,6155c391189863bfe2e4a593,31,2022-02-12_16h55.41.321,lexical_decision_task_DD_L3,2021.2.3,Linux armv8l,59.57345407,,,,,,,,,,0.5682,1,,,,,,,,,,,,,,,,,,,,,,,0.386421495,-0.319454125,1,0,0,,,,,,,SCREW,LB,m,m,./images/SCREWLB.png,,,,,,,,,,,,,,,,,,,,,0,0.386421495,-0.319454125,1,0,0,0.5682,button_right_test,0,2,2,24,1
,,,,,,,,,,,,,,,,,6155c391189863bfe2e4a593,31,2022-02-12_16h55.41.321,lexical_decision_task_DD_L3,2021.2.3,Linux armv8l,59.57345407,,,,,,,,,,0.5628,1,,,,,,,,,,,,,,,,,,,,,,,0.390122664,-0.300948514,1,0,0,,,,,,,CARPET,HB,m,m,./images/CARPETHB.png,,,,,,,,,,,,,,,,,,,,,0,0.390122664,-0.300948514,1,0,0,0.5628,button_right_test,0,3,3,53,1
,,,,,,,,,,,,,,,,,6155c391189863bfe2e4a593,31,2022-02-12_16h55.41.321,lexical_decision_task_DD_L3,2021.2.3,Linux armv8l,59.57345407,,,,,,,,,,0.9814,0,,,,,,,,,,,,,,,,,,,,,,,-0.431529028,-0.340735826,1,0,0,,,,,,,SAILOR,C,m,m,./images/SAILOR.png,,,,,,,,,,,,,,,,,,,,,0,-0.431529028,-0.340735826,1,0,0,0.9814,button_left_test,0,4,4,67,1
,,,,,,,,,,,,,,,,,6155c391189863bfe2e4a593,31,2022-02-12_16h55.41.321,lexical_decision_task_DD_L3,2021.2.3,Linux armv8l,59.57345407,,,,,,,,,,0.815,1,,,,,,,,,,,,,,,,,,,,,,,0.396599612,-0.292620865,1,0,0,,,,,,,CANYON,C,m,m,./images/CANYON.png,,,,,,,,,,,,,,,,,,,,,0,0.396599612,-0.292620865,1,0,0,0.815,button_right_test,0,5,5,34,1
,,,,,,,,,,,,,,,,,6155c391189863bfe2e4a593,31,2022-02-12_16h55.41.321,lexical_decision_task_DD_L3,2021.2.3,Linux armv8l,59.57345407,,,,,,,,,,1.0631,1,,,,,,,,,,,,,,,,,,,,,,,0.396599612,-0.313902411,1,0,0,,,,,,,THROAT,LB,m,m,./images/THROATLB.png,,,,,,,,,,,,,,,,,,,,,0,0.396599612,-0.313902411,1,0,0,1.0631,button_right_test,0,6,6,36,1
,,,,,,,,,,,,,,,,,6155c391189863bfe2e4a593,31,2022-02-12_16h55.41.321,lexical_decision_task_DD_L3,2021.2.3,Linux armv8l,59.57345407,,,,,,,,,,0.5992,1,,,,,,,,,,,,,,,,,,,,,,,0.384570949,-0.312977099,1,0,0,,,,,,,KITTEN,LB,m,m,./images/KITTENLB.png,,,,,,,,,,,,,,,,,,,,,0,0.384570949,-0.312977099,1,0,0,0.5992,button_right_test,0,7,7,45,1
,,,,,,,,,,,,,,,,,6155c391189863bfe2e4a593,31,2022-02-12_16h55.41.321,lexical_decision_task_DD_L3,2021.2.3,Linux armv8l,59.57345407,,,,,,,,,,0.7815,1,,,,,,,,,,,,,,,,,,,,,,,-0.413948641,-0.348137853,1,0,0,,,,,,,ALLEY,C,z,m,./images/ALLEY.png,,,,,,,,,,,,,,,,,,,,,0,-0.413948641,-0.348137853,1,0,0,0.7815,button_left_test,0,8,8,139,1
,,,,,,,,,,,,,,,,,6155c391189863bfe2e4a593,31,2022-02-12_16h55.41.321,lexical_decision_task_DD_L3,2021.2.3,Linux armv8l,59.57345407,,,,,,,,,,0.5804,1,,,,,,,,,,,,,,,,,,,,,,,-0.404695807,-0.342586139,1,0,0,,,,,,,GRAPE,C,z,m,./images/GRAPE.png,,,,,,,,,,,,,,,,,,,,,0,-0.404695807,-0.342586139,1,0,0,0.5804,button_left_test,0,9,9,100,1
,,,,,,,,,,,,,,,,,6155c391189863bfe2e4a593,31,2022-02-12_16h55.41.321,lexical_decision_task_DD_L3,2021.2.3,Linux armv8l,59.57345407,,,,,,,,,,1.2859,1,,,,,,,,,,,,,,,,,,,,,,,-0.404695807,-0.360166593,1,0,0,,,,,,,CHERRY,LB,z,m,./images/CHERRYLB.png,,,,,,,,,,,,,,,,,,,,,0,-0.404695807,-0.360166593,1,0,0,1.2859,button_left_test,0,10,10,138,1
,,,,,,,,,,,,,,,,,6155c391189863bfe2e4a593,31,2022-02-12_16h55.41.321,lexical_decision_task_DD_L3,2021.2.3,Linux armv8l,59.57345407,,,,,,,,,,1.0657,0,,,,,,,,,,,,,,,,,,,,,,,0.38919743,-0.323155216,1,0,0,,,,,,,GLOVE,C,z,m,./images/GLOVE.png,,,,,,,,,,,,,,,,,,,,,0,0.38919743,-0.323155216,1,0,0,1.0657,button_right_test,0,11,11,157,1
,,,,,,,,,,,,,,,,,6155c391189863bfe2e4a593,31,2022-02-12_16h55.41.321,lexical_decision_task_DD_L3,2021.2.3,Linux armv8l,59.57345407,,,,,,,,,,0.5301,0,,,,,,,,,,,,,,,,,,,,,,,0.392898443,-0.326856463,1,0,0,,,,,,,DRILL,LB,z,m,./images/DRILLLB.png,,,,,,,,,,,,,,,,,,,,,0,0.392898443,-0.326856463,1,0,0,0.5301,button_right_test,0,12,12,165,1
,,,,,,,,,,,,,,,,,6155c391189863bfe2e4a593,31,2022-02-12_16h55.41.321,lexical_decision_task_DD_L3,2021.2.3,Linux armv8l,59.57345407,,,,,,,,,,0.4982,1,,,,,,,,,,,,,,,,,,,,,,,0.347559572,-0.297247268,1,0,0,,,,,,,PEACH,HB,m,m,./images/PEACHHB.png,,,,,,,,,,,,,,,,,,,,,0,0.347559572,-0.297247268,1,0,0,0.4982,button_right_test,0,13,13,35,1
,,,,,,,,,,,,,,,,,6155c391189863bfe2e4a593,31,2022-02-12_16h55.41.321,lexical_decision_task_DD_L3,2021.2.3,Linux armv8l,59.57345407,,,,,,,,,,0.7826,1,,,,,,,,,,,,,,,,,,,,,,,-0.326046699,-0.313902411,1,0,0,,,,,,,FERRY,LB,z,m,./images/FERRYLB.png,,,,,,,,,,,,,,,,,,,,,0,-0.326046699,-0.313902411,1,0,0,0.7826,button_left_test,0,14,14,141,1
,,,,,,,,,,,,,,,,,6155c391189863bfe2e4a593,31,2022-02-12_16h55.41.321,lexical_decision_task_DD_L3,2021.2.3,Linux armv8l,59.57345407,,,,,,,,,,0.8142,1,,,,,,,,,,,,,,,,,,,,,,,0.394749066,-0.292620865,1,0,0,,,,,,,TULIP,HB,m,m,./images/TULIPHB.png,,,,,,,,,,,,,,,,,,,,,0,0.394749066,-0.292620865,1,0,0,0.8142,button_right_test,0,15,15,8,1
,,,,,,,,,,,,,,,,,6155c391189863bfe2e4a593,31,2022-02-12_16h55.41.321,lexical_decision_task_DD_L3,2021.2.3,Linux armv8l,59.57345407,,,,,,,,,,0.7328,1,,,,,,,,,,,,,,,,,,,,,,,-0.400069394,-0.299097891,1,0,0,,,,,,,GARDEN,C,z,m,./images/GARDEN.png,,,,,,,,,,,,,,,,,,,,,0,-0.400069394,-0.299097891,1,0,0,0.7328,button_left_test,0,16,16,94,1
,,,,,,,,,,,,,,,,,6155c391189863bfe2e4a593,31,2022-02-12_16h55.41.321,lexical_decision_task_DD_L3,2021.2.3,Linux armv8l,59.57345407,,,,,,,,,,0.632,1,,,,,,,,,,,,,,,,,,,,,,,0.399375547,-0.312977099,1,0,0,,,,,,,SWING,C,m,m,./images/SWING.png,,,,,,,,,,,,,,,,,,,,,0,0.399375547,-0.312977099,1,0,0,0.632,button_right_test,0,17,17,40,1
,,,,,,,,,,,,,,,,,6155c391189863bfe2e4a593,31,2022-02-12_16h55.41.321,lexical_decision_task_DD_L3,2021.2.3,Linux armv8l,59.57345407,,,,,,,,,,1.3847,1,,,,,,,,,,,,,,,,,,,,,,,-0.377862595,-0.344436762,1,0,0,,,,,,,DIVER,LB,z,m,./images/DIVERLB.png,,,,,,,,,,,,,,,,,,,,,0,-0.377862595,-0.344436762,1,0,0,1.3847,button_left_test,0,18,18,93,1
,,,,,,,,,,,,,,,,,6155c391189863bfe2e4a593,31,2022-02-12_16h55.41.321,lexical_decision_task_DD_L3,2021.2.3,Linux armv8l,59.57345407,,,,,,,,,,0.9698,1,,,,,,,,,,,,,,,,,,,,,,,-0.428753181,-0.284293371,1,0,0,,,,,,,BUTTER,LB,z,m,./images/BUTTERLB.png,,,,,,,,,,,,,,,,,,,,,0,-0.428753181,-0.284293371,1,0,0,0.9698,button_left_test,0,19,19,111,1
,,,,,,,,,,,,,,,,,6155c391189863bfe2e4a593,31,2022-02-12_16h55.41.321,lexical_decision_task_DD_L3,2021.2.3,Linux armv8l,59.57345407,,,,,,,,,,0.4969,1,,,,,,,,,,,,,,,,,,,,,,,0.391047898,-0.324080528,1,0,0,,,,,,,SHORE,LB,m,m,./images/SHORELB.png,,,,,,,,,,,,,,,,,,,,,0,0.391047898,-0.324080528,1,0,0,0.4969,button_right_test,0,20,20,12,1
,,,,,,,,,,,,,,,,,6155c391189863bfe2e4a593,31,2022-02-12_16h55.41.321,lexical_decision_task_DD_L3,2021.2.3,Linux armv8l,59.57345407,,,,,,,,,,0.6642,1,,,,,,,,,,,,,,,,,,,,,,,-0.413948641,-0.287069151,1,0,0,,,,,,,RULER,C,z,m,./images/RULER.png,,,,,,,,,,,,,,,,,,,,,0,-0.413948641,-0.287069151,1,0,0,0.6642,button_left_test,0,21,21,163,1
,,,,,,,,,,,,,,,,,6155c391189863bfe2e4a593,31,2022-02-12_16h55.41.321,lexical_decision_task_DD_L3,2021.2.3,Linux armv8l,59.57345407,,,,,,,,,,0.6666,0,,,,,,,,,,,,,,,,,,,,,,,0.387346806,-0.309276008,1,0,0,,,,,,,CLOTH,HB,z,m,./images/CLOTHHB.png,,,,,,,,,,,,,,,,,,,,,0,0.387346806,-0.309276008,1,0,0,0.6666,button_right_test,0,22,22,107,1
,,,,,,,,,,,,,,,,,6155c391189863bfe2e4a593,31,2022-02-12_16h55.41.321,lexical_decision_task_DD_L3,2021.2.3,Linux armv8l,59.57345407,,,,,,,,,,0.8151,1,,,,,,,,,,,,,,,,,,,,,,,-0.428753181,-0.287069151,1,0,0,,,,,,,BISHOP,C,z,m,./images/BISHOP.png,,,,,,,,,,,,,,,,,,,,,0,-0.428753181,-0.287069151,1,0,0,0.8151,button_left_test,0,23,23,133,1
,,,,,,,,,,,,,,,,,6155c391189863bfe2e4a593,31,2022-02-12_16h55.41.321,lexical_decision_task_DD_L3,2021.2.3,Linux armv8l,59.57345407,,,,,,,,,,0.5484,1,,,,,,,,,,,,,,,,,,,,,,,0.384570949,-0.303724294,1,0,0,,,,,,,MUFFIN,C,m,m,./images/MUFFIN.png,,,,,,,,,,,,,,,,,,,,,0,0.384570949,-0.303724294,1,0,0,0.5484,button_right_test,0,24,24,55,1
,,,,,,,,,,,,,,,,,6155c391189863bfe2e4a593,31,2022-02-12_16h55.41.321,lexical_decision_task_DD_L3,2021.2.3,Linux armv8l,59.57345407,,,,,,,,,,0.5968,1,,,,,,,,,,,,,,,,,,,,,,,0.368841196,-0.319454125,1,0,0,,,,,,,TORCH,HB,m,m,./images/TORCHHB.png,,,,,,,,,,,,,,,,,,,,,0,0.368841196,-0.319454125,1,0,0,0.5968,button_right_test,0,25,25,68,1
,,,,,,,,,,,,,,,,,6155c391189863bfe2e4a593,31,2022-02-12_16h55.41.321,lexical_decision_task_DD_L3,2021.2.3,Linux armv8l,59.57345407,,,,,,,,,,0.5136,1,,,,,,,,,,,,,,,,,,,,,,,0.363289404,-0.279667046,1,0,0,,,,,,,MELON,C,m,m,./images/MELON.png,,,,,,,,,,,,,,,,,,,,,0,0.363289404,-0.279667046,1,0,0,0.5136,button_right_test,0,26,26,22,1
,,,,,,,,,,,,,,,,,6155c391189863bfe2e4a593,31,2022-02-12_16h55.41.321,lexical_decision_task_DD_L3,2021.2.3,Linux armv8l,59.57345407,,,,,,,,,,0.7839,1,,,,,,,,,,,,,,,,,,,,,,,-0.426902611,-0.267638228,1,0,0,,,,,,,HEATER,HB,z,m,./images/HEATERHB.png,,,,,,,,,,,,,,,,,,,,,0,-0.426902611,-0.267638228,1,0,0,0.7839,button_left_test,0,27,27,140,1
,,,,,,,,,,,,,,,,,6155c391189863bfe2e4a593,31,2022-02-12_16h55.41.321,lexical_decision_task_DD_L3,2021.2.3,Linux armv8l,59.57345407,,,,,,,,,,0.7472,1,,,,,,,,,,,,,,,,,,,,,,,0.409553664,-0.277816345,1,0,0,,,,,,,INFANT,C,m,m,./images/INFANT.png,,,,,,,,,,,,,,,,,,,,,0,0.409553664,-0.277816345,1,0,0,0.7472,button_right_test,0,28,28,76,1
,,,,,,,,,,,,,,,,,6155c391189863bfe2e4a593,31,2022-02-12_16h55.41.321,lexical_decision_task_DD_L3,2021.2.3,Linux armv8l,59.57345407,,,,,,,,,,0.6316,1,,,,,,,,,,,,,,,,,,,,,,,0.360513546,-0.301873671,1,0,0,,,,,,,CANDLE,C,m,m,./images/CANDLE.png,,,,,,,,,,,,,,,,,,,,,0,0.360513546,-0.301873671,1,0,0,0.6316,button_right_test,0,29,29,61,1
,,,,,,,,,,,,,,,,,6155c391189863bfe2e4a593,31,2022-02-12_16h55.41.321,lexical_decision_task_DD_L3,2021.2.3,Linux armv8l,59.57345407,,,,,,,,,,0.6533,1,,,,,,,,,,,,,,,,,,,,,,,0.416030534,-0.289845241,1,0,0,,,,,,,COUCH,HB,m,m,./images/COUCHHB.png,,,,,,,,,,,,,,,,,,,,,0,0.416030534,-0.289845241,1,0,0,0.6533,button_right_test,0,30,30,77,1
,,,,,,,,,,,,,,,,,6155c391189863bfe2e4a593,31,2022-02-12_16h55.41.321,lexical_decision_task_DD_L3,2021.2.3,Linux armv8l,59.57345407,,,,,,,,,,0.63,1,,,,,,,,,,,,,,,,,,,,,,,-0.386190138,-0.287069151,1,0,0,,,,,,,PARCEL,LB,z,m,./images/PARCELLB.png,,,,,,,,,,,,,,,,,,,,,0,-0.386190138,-0.287069151,1,0,0,0.63,button_left_test,0,31,31,102,1
,,,,,,,,,,,,,,,,,6155c391189863bfe2e4a593,31,2022-02-12_16h55.41.321,lexical_decision_task_DD_L3,2021.2.3,Linux armv8l,59.57345407,,,,,,,,,,0.8491,0,,,,,,,,,,,,,,,,,,,,,,,0.399375547,-0.318528814,1,0,0,,,,,,,PILOT,HB,z,m,./images/PILOTHB.png,,,,,,,,,,,,,,,,,,,,,0,0.399375547,-0.318528814,1,0,0,0.8491,button_right_test,0,32,32,134,1
,,,,,,,,,,,,,,,,,6155c391189863bfe2e4a593,31,2022-02-12_16h55.41.321,lexical_decision_task_DD_L3,2021.2.3,Linux armv8l,59.57345407,,,,,,,,,,0.6981,1,,,,,,,,,,,,,,,,,,,,,,,0.391973287,-0.318528814,1,0,0,,,,,,,KIDNEY,LB,m,m,./images/KIDNEYLB.png,,,,,,,,,,,,,,,,,,,,,0,0.391973287,-0.318528814,1,0,0,0.6981,button_right_test,0,33,33,21,1
,,,,,,,,,,,,,,,,,6155c391189863bfe2e4a593,31,2022-02-12_16h55.41.321,lexical_decision_task_DD_L3,2021.2.3,Linux armv8l,59.57345407,,,,,,,,,,0.757,1,,,,,,,,,,,,,,,,,,,,,,,-0.466689794,-0.289845241,1,0,0,,,,,,,BANANA,C,z,m,./images/BANANA.png,,,,,,,,,,,,,,,,,,,,,0,-0.466689794,-0.289845241,1,0,0,0.757,button_left_test,0,34,34,154,1
,,,,,,,,,,,,,,,,,6155c391189863bfe2e4a593,31,2022-02-12_16h55.41.321,lexical_decision_task_DD_L3,2021.2.3,Linux armv8l,59.57345407,,,,,,,,,,0.6123,1,,,,,,,,,,,,,,,,,,,,,,,-0.440781863,-0.292620865,1,0,0,,,,,,,POKER,C,z,m,./images/POKER.png,,,,,,,,,,,,,,,,,,,,,0,-0.440781863,-0.292620865,1,0,0,0.6123,button_left_test,0,35,35,151,1
,,,,,,,,,,,,,,,,,6155c391189863bfe2e4a593,31,2022-02-12_16h55.41.321,lexical_decision_task_DD_L3,2021.2.3,Linux armv8l,59.57345407,,,,,,,,,,1.7348,1,,,,,,,,,,,,,,,,,,,,,,,-0.408396947,-0.307425385,1,0,0,,,,,,,CRATER,LB,z,m,./images/CRATERLB.png,,,,,,,,,,,,,,,,,,,,,0,-0.408396947,-0.307425385,1,0,0,1.7348,button_left_test,0,36,36,87,1
,,,,,,,,,,,,,,,,,6155c391189863bfe2e4a593,31,2022-02-12_16h55.41.321,lexical_decision_task_DD_L3,2021.2.3,Linux armv8l,59.57345407,,,,,,,,,,0.515,1,,,,,,,,,,,,,,,,,,,,,,,0.391047898,-0.332408022,1,0,0,,,,,,,JELLY,C,m,m,./images/JELLY.png,,,,,,,,,,,,,,,,,,,,,0,0.391047898,-0.332408022,1,0,0,0.515,button_right_test,0,37,37,64,1
,,,,,,,,,,,,,,,,,6155c391189863bfe2e4a593,31,2022-02-12_16h55.41.321,lexical_decision_task_DD_L3,2021.2.3,Linux armv8l,59.57345407,,,,,,,,,,0.9345,0,,,,,,,,,,,,,,,,,,,,,,,0.392898443,-0.327781619,1,0,0,,,,,,,CANOE,C,z,m,./images/CANOE.png,,,,,,,,,,,,,,,,,,,,,0,0.392898443,-0.327781619,1,0,0,0.9345,button_right_test,0,38,38,142,1
,,,,,,,,,,,,,,,,,6155c391189863bfe2e4a593,31,2022-02-12_16h55.41.321,lexical_decision_task_DD_L3,2021.2.3,Linux armv8l,59.57345407,,,,,,,,,,0.5811,1,,,,,,,,,,,,,,,,,,,,,,,0.412329521,-0.312051788,1,0,0,,,,,,,MUSCLE,C,m,m,./images/MUSCLE.png,,,,,,,,,,,,,,,,,,,,,0,0.412329521,-0.312051788,1,0,0,0.5811,button_right_test,0,39,39,4,1
,,,,,,,,,,,,,,,,,6155c391189863bfe2e4a593,31,2022-02-12_16h55.41.321,lexical_decision_task_DD_L3,2021.2.3,Linux armv8l,59.57345407,,,,,,,,,,0.8336,0,,,,,,,,,,,,,,,,,,,,,,,0.38179517,-0.325005839,1,0,0,,,,,,,HAMMER,LB,z,m,./images/HAMMERLB.png,,,,,,,,,,,,,,,,,,,,,0,0.38179517,-0.325005839,1,0,0,0.8336,button_right_test,0,40,40,159,1
,,,,,,,,,,,,,,,,,6155c391189863bfe2e4a593,31,2022-02-12_16h55.41.321,lexical_decision_task_DD_L3,2021.2.3,Linux armv8l,59.57345407,,,,,,,,,,0.6153,1,,,,,,,,,,,,,,,,,,,,,,,0.145847816,-0.407356087,1,0,0,,,,,,,DANCER,LB,z,m,./images/DANCERLB.png,break_done_button,,,,,,,,,,,,,,,,,,,,0,-0.413948641,-0.323155216,1,0,0,0.6153,button_left_test,0,41,41,105,1
,,,,,,,,,,,,,,,,,6155c391189863bfe2e4a593,31,2022-02-12_16h55.41.321,lexical_decision_task_DD_L3,2021.2.3,Linux armv8l,59.57345407,,,,,,,,,,0.6846,1,,,,,,,,,,,,,,,,,,,,,,,0.38919743,-0.323155216,1,0,0,,,,,,,BELLY,C,m,m,./images/BELLY.png,,,,,,,,,,,,,,,,,,,,,0,0.38919743,-0.323155216,1,0,0,0.6846,button_right_test,0,42,42,10,1
,,,,,,,,,,,,,,,,,6155c391189863bfe2e4a593,31,2022-02-12_16h55.41.321,lexical_decision_task_DD_L3,2021.2.3,Linux armv8l,59.57345407,,,,,,,,,,0.8322,1,,,,,,,,,,,,,,,,,,,,,,,-0.409322229,-0.332408022,1,0,0,,,,,,,HOCKEY,HB,z,m,./images/HOCKEYHB.png,,,,,,,,,,,,,,,,,,,,,0,-0.409322229,-0.332408022,1,0,0,0.8322,button_left_test,0,43,43,116,1
,,,,,,,,,,,,,,,,,6155c391189863bfe2e4a593,31,2022-02-12_16h55.41.321,lexical_decision_task_DD_L3,2021.2.3,Linux armv8l,59.57345407,,,,,,,,,,0.8323,0,,,,,,,,,,,,,,,,,,,,,,,0.385496183,-0.306500229,1,0,0,,,,,,,CLIFF,HB,z,m,./images/CLIFFHB.png,,,,,,,,,,,,,,,,,,,,,0,0.385496183,-0.306500229,1,0,0,0.8323,button_right_test,0,44,44,92,1
,,,,,,,,,,,,,,,,,6155c391189863bfe2e4a593,31,2022-02-12_16h55.41.321,lexical_decision_task_DD_L3,2021.2.3,Linux armv8l,59.57345407,,,,,,,,,,0.7787,1,,,,,,,,,,,,,,,,,,,,,,,0.365139949,-0.324080528,1,0,0,,,,,,,PASTA,HB,m,m,./images/PASTAHB.png,,,,,,,,,,,,,,,,,,,,,0,0.365139949,-0.324080528,1,0,0,0.7787,button_right_test,0,45,45,5,1
,,,,,,,,,,,,,,,,,6155c391189863bfe2e4a593,31,2022-02-12_16h55.41.321,lexical_decision_task_DD_L3,2021.2.3,Linux armv8l,59.57345407,,,,,,,,,,0.7461,1,,,,,,,,,,,,,,,,,,,,,,,0.387346806,-0.300948514,1,0,0,,,,,,,GREASE,LB,m,m,./images/GREASELB.png,,,,,,,,,,,,,,,,,,,,,0,0.387346806,-0.300948514,1,0,0,0.7461,button_right_test,0,46,46,15,1
,,,,,,,,,,,,,,,,,6155c391189863bfe2e4a593,31,2022-02-12_16h55.41.321,lexical_decision_task_DD_L3,2021.2.3,Linux armv8l,59.57345407,,,,,,,,,,0.8142,0,,,,,,,,,,,,,,,,,,,,,,,0.391973287,-0.303724294,1,0,0,,,,,,,FENCE,HB,z,m,./images/FENCEHB.png,,,,,,,,,,,,,,,,,,,,,0,0.391973287,-0.303724294,1,0,0,0.8142,button_right_test,0,47,47,98,1
,,,,,,,,,,,,,,,,,6155c391189863bfe2e4a593,31,2022-02-12_16h55.41.321,lexical_decision_task_DD_L3,2021.2.3,Linux armv8l,59.57345407,,,,,,,,,,0.7333,1,,,,,,,,,,,,,,,,,,,,,,,0.400300781,-0.303724294,1,0,0,,,,,,,GRAIN,LB,m,m,./images/GRAINLB.png,,,,,,,,,,,,,,,,,,,,,0,0.400300781,-0.303724294,1,0,0,0.7333,button_right_test,0,48,48,75,1
,,,,,,,,,,,,,,,,,6155c391189863bfe2e4a593,31,2022-02-12_16h55.41.321,lexical_decision_task_DD_L3,2021.2.3,Linux armv8l,59.57345407,,,,,,,,,,0.6152,1,,,,,,,,,,,,,,,,,,,,,,,-0.418575064,-0.332408022,1,0,0,,,,,,,STEAK,C,z,m,./images/STEAK.png,,,,,,,,,,,,,,,,,,,,,0,-0.418575064,-0.332408022,1,0,0,0.6152,button_left_test,0,49,49,115,1
,,,,,,,,,,,,,,,,,6155c391189863bfe2e4a593,31,2022-02-12_16h55.41.321,lexical_decision_task_DD_L3,2021.2.3,Linux armv8l,59.57345407,,,,,,,,,,0.6662,1,,,,,,,,,,,,,,,,,,,,,,,-0.413023349,-0.322229905,1,0,0,,,,,,,WHEEL,HB,z,m,./images/WHEELHB.png,,,,,,,,,,,,,,,,,,,,,0,-0.413023349,-0.322229905,1,0,0,0.6662,button_left_test,0,50,50,161,1
,,,,,,,,,,,,,,,,,6155c391189863bfe2e4a593,31,2022-02-12_16h55.41.321,lexical_decision_task_DD_L3,2021.2.3,Linux armv8l,59.57345407,,,,,,,,,,2.5873,1,,,,,,,,,,,,,,,,,,,,,,,-0.366759176,-0.317603502,1,0,0,,,,,,,DESERT,C,z,m,./images/DESERT.png,,,,,,,,,,,,,,,,,,,,,0,-0.366759176,-0.317603502,1,0,0,2.5873,button_left_test,0,51,51,136,1
,,,,,,,,,,,,,,,,,6155c391189863bfe2e4a593,31,2022-02-12_16h55.41.321,lexical_decision_task_DD_L3,2021.2.3,Linux armv8l,59.57345407,,,,,,,,,,0.5685,1,,,,,,,,,,,,,,,,,,,,,,,0.382720326,-0.319454125,1,0,0,,,,,,,MALLET,HB,m,m,./images/MALLETHB.png,,,,,,,,,,,,,,,,,,,,,0,0.382720326,-0.319454125,1,0,0,0.5685,button_right_test,0,52,52,50,1
,,,,,,,,,,,,,,,,,6155c391189863bfe2e4a593,31,2022-02-12_16h55.41.321,lexical_decision_task_DD_L3,2021.2.3,Linux armv8l,59.57345407,,,,,,,,,,0.5641,1,,,,,,,,,,,,,,,,,,,,,,,0.391047898,-0.303724294,1,0,0,,,,,,,URINE,C,m,m,./images/URINE.png,,,,,,,,,,,,,,,,,,,,,0,0.391047898,-0.303724294,1,0,0,0.5641,button_right_test,0,53,53,70,1
,,,,,,,,,,,,,,,,,6155c391189863bfe2e4a593,31,2022-02-12_16h55.41.321,lexical_decision_task_DD_L3,2021.2.3,Linux armv8l,59.57345407,,,,,,,,,,0.5334,0,,,,,,,,,,,,,,,,,,,,,,,0.363289404,-0.305574917,1,0,0,,,,,,,PISTOL,HB,z,m,./images/PISTOLHB.png,,,,,,,,,,,,,,,,,,,,,0,0.363289404,-0.305574917,1,0,0,0.5334,button_right_test,0,54,54,113,1
,,,,,,,,,,,,,,,,,6155c391189863bfe2e4a593,31,2022-02-12_16h55.41.321,lexical_decision_task_DD_L3,2021.2.3,Linux armv8l,59.57345407,,,,,,,,,,0.6454,1,,,,,,,,,,,,,,,,,,,,,,,0.396599612,-0.290770397,1,0,0,,,,,,,WEASEL,HB,m,m,./images/WEASELHB.png,,,,,,,,,,,,,,,,,,,,,0,0.396599612,-0.290770397,1,0,0,0.6454,button_right_test,0,55,55,80,1
,,,,,,,,,,,,,,,,,6155c391189863bfe2e4a593,31,2022-02-12_16h55.41.321,lexical_decision_task_DD_L3,2021.2.3,Linux armv8l,59.57345407,,,,,,,,,,0.5152,1,,,,,,,,,,,,,,,,,,,,,,,0.391047898,-0.298172579,1,0,0,,,,,,,FALCON,C,m,m,./images/FALCON.png,,,,,,,,,,,,,,,,,,,,,0,0.391047898,-0.298172579,1,0,0,0.5152,button_right_test,0,56,56,28,1
,,,,,,,,,,,,,,,,,6155c391189863bfe2e4a593,31,2022-02-12_16h55.41.321,lexical_decision_task_DD_L3,2021.2.3,Linux armv8l,59.57345407,,,,,,,,,,0.6986,1,,,,,,,,,,,,,,,,,,,,,,,-0.356581059,-0.288919774,1,0,0,,,,,,,MIDGET,C,z,m,./images/MIDGET.png,,,,,,,,,,,,,,,,,,,,,0,-0.356581059,-0.288919774,1,0,0,0.6986,button_left_test,0,57,57,160,1
,,,,,,,,,,,,,,,,,6155c391189863bfe2e4a593,31,2022-02-12_16h55.41.321,lexical_decision_task_DD_L3,2021.2.3,Linux armv8l,59.57345407,,,,,,,,,,0.6661,1,,,,,,,,,,,,,,,,,,,,,,,0.418806392,-0.287069151,1,0,0,,,,,,,SHELF,LB,m,m,./images/SHELFLB.png,,,,,,,,,,,,,,,,,,,,,0,0.418806392,-0.287069151,1,0,0,0.6661,button_right_test,0,58,58,39,1
,,,,,,,,,,,,,,,,,6155c391189863bfe2e4a593,31,2022-02-12_16h55.41.321,lexical_decision_task_DD_L3,2021.2.3,Linux armv8l,59.57345407,,,,,,,,,,0.7172,0,,,,,,,,,,,,,,,,,,,,,,,0.378093923,-0.287069151,1,0,0,,,,,,,FLASK,LB,z,m,./images/FLASKLB.png,,,,,,,,,,,,,,,,,,,,,0,0.378093923,-0.287069151,1,0,0,0.7172,button_right_test,0,59,59,156,1
,,,,,,,,,,,,,,,,,6155c391189863bfe2e4a593,31,2022-02-12_16h55.41.321,lexical_decision_task_DD_L3,2021.2.3,Linux armv8l,59.57345407,,,,,,,,,,0.6474,1,,,,,,,,,,,,,,,,,,,,,,,0.408628274,-0.293546177,1,0,0,,,,,,,COOKER,LB,m,m,./images/COOKERLB.png,,,,,,,,,,,,,,,,,,,,,0,0.408628274,-0.293546177,1,0,0,0.6474,button_right_test,0,60,60,69,1
,,,,,,,,,,,,,,,,,6155c391189863bfe2e4a593,31,2022-02-12_16h55.41.321,lexical_decision_task_DD_L3,2021.2.3,Linux armv8l,59.57345407,,,,,,,,,,0.6496,1,,,,,,,,,,,,,,,,,,,,,,,-0.411172794,-0.276891189,1,0,0,,,,,,,FLESH,LB,z,m,./images/FLESHLB.png,,,,,,,,,,,,,,,,,,,,,0,-0.411172794,-0.276891189,1,0,0,0.6496,button_left_test,0,61,61,108,1
,,,,,,,,,,,,,,,,,6155c391189863bfe2e4a593,31,2022-02-12_16h55.41.321,lexical_decision_task_DD_L3,2021.2.3,Linux armv8l,59.57345407,,,,,,,,,,0.6798,1,,,,,,,,,,,,,,,,,,,,,,,0.38919743,-0.304649605,1,0,0,,,,,,,PICKLE,HB,m,m,./images/PICKLEHB.png,,,,,,,,,,,,,,,,,,,,,0,0.38919743,-0.304649605,1,0,0,0.6798,button_right_test,0,62,62,14,1
,,,,,,,,,,,,,,,,,6155c391189863bfe2e4a593,31,2022-02-12_16h55.41.321,lexical_decision_task_DD_L3,2021.2.3,Linux armv8l,59.57345407,,,,,,,,,,0.888,1,,,,,,,,,,,,,,,,,,,,,,,-0.419500346,-0.281517514,1,0,0,,,,,,,SNAKE,C,z,m,./images/SNAKE.png,,,,,,,,,,,,,,,,,,,,,0,-0.419500346,-0.281517514,1,0,0,0.888,button_left_test,0,63,63,124,1
,,,,,,,,,,,,,,,,,6155c391189863bfe2e4a593,31,2022-02-12_16h55.41.321,lexical_decision_task_DD_L3,2021.2.3,Linux armv8l,59.57345407,,,,,,,,,,0.8684,1,,,,,,,,,,,,,,,,,,,,,,,-0.319569731,-0.284293371,1,0,0,,,,,,,BAMBOO,HB,z,m,./images/BAMBOOHB.png,,,,,,,,,,,,,,,,,,,,,0,-0.319569731,-0.284293371,1,0,0,0.8684,button_left_test,0,64,64,89,1
,,,,,,,,,,,,,,,,,6155c391189863bfe2e4a593,31,2022-02-12_16h55.41.321,lexical_decision_task_DD_L3,2021.2.3,Linux armv8l,59.57345407,,,,,,,,,,0.5483,1,,,,,,,,,,,,,,,,,,,,,,,0.425283417,-0.298172579,1,0,0,,,,,,,LADDER,HB,m,m,./images/LADDERHB.png,,,,,,,,,,,,,,,,,,,,,0,0.425283417,-0.298172579,1,0,0,0.5483,button_right_test,0,65,65,38,1
,,,,,,,,,,,,,,,,,6155c391189863bfe2e4a593,31,2022-02-12_16h55.41.321,lexical_decision_task_DD_L3,2021.2.3,Linux armv8l,59.57345407,,,,,,,,,,0.6816,1,,,,,,,,,,,,,,,,,,,,,,,-0.389891277,-0.291695554,1,0,0,,,,,,,BRIDE,C,z,m,./images/BRIDE.png,,,,,,,,,,,,,,,,,,,,,0,-0.389891277,-0.291695554,1,0,0,0.6816,button_left_test,0,66,66,148,1
,,,,,,,,,,,,,,,,,6155c391189863bfe2e4a593,31,2022-02-12_16h55.41.321,lexical_decision_task_DD_L3,2021.2.3,Linux armv8l,59.57345407,,,,,,,,,,1.1342,1,,,,,,,,,,,,,,,,,,,,,,,-0.425052046,-0.264862371,1,0,0,,,,,,,BAKER,LB,z,m,./images/BAKERLB.png,,,,,,,,,,,,,,,,,,,,,0,-0.425052046,-0.264862371,1,0,0,1.1342,button_left_test,0,67,67,147,1
,,,,,,,,,,,,,,,,,6155c391189863bfe2e4a593,31,2022-02-12_16h55.41.321,lexical_decision_task_DD_L3,2021.2.3,Linux armv8l,59.57345407,,,,,,,,,,0.4983,1,,,,,,,,,,,,,,,,,,,,,,,0.408628274,-0.299097891,1,0,0,,,,,,,MAGGOT,LB,m,m,./images/MAGGOTLB.png,,,,,,,,,,,,,,,,,,,,,0,0.408628274,-0.299097891,1,0,0,0.4983,button_right_test,0,68,68,33,1
,,,,,,,,,,,,,,,,,6155c391189863bfe2e4a593,31,2022-02-12_16h55.41.321,lexical_decision_task_DD_L3,2021.2.3,Linux armv8l,59.57345407,,,,,,,,,,0.5833,1,,,,,,,,,,,,,,,,,,,,,,,0.405852417,-0.319454125,1,0,0,,,,,,,JAGUAR,LB,m,m,./images/JAGUARLB.png,,,,,,,,,,,,,,,,,,,,,0,0.405852417,-0.319454125,1,0,0,0.5833,button_right_test,0,69,69,18,1
,,,,,,,,,,,,,,,,,6155c391189863bfe2e4a593,31,2022-02-12_16h55.41.321,lexical_decision_task_DD_L3,2021.2.3,Linux armv8l,59.57345407,,,,,,,,,,0.5938,1,,,,,,,,,,,,,,,,,,,,,,,0.4151053,-0.2953968,1,0,0,,,,,,,WALRUS,HB,m,m,./images/WALRUSHB.png,,,,,,,,,,,,,,,,,,,,,0,0.4151053,-0.2953968,1,0,0,0.5938,button_right_test,0,70,70,23,1
,,,,,,,,,,,,,,,,,6155c391189863bfe2e4a593,31,2022-02-12_16h55.41.321,lexical_decision_task_DD_L3,2021.2.3,Linux armv8l,59.57345407,,,,,,,,,,0.6799,1,,,,,,,,,,,,,,,,,,,,,,,0.356812455,-0.293546177,1,0,0,,,,,,,BEARD,HB,m,m,./images/BEARDHB.png,,,,,,,,,,,,,,,,,,,,,0,0.356812455,-0.293546177,1,0,0,0.6799,button_right_test,0,71,71,2,1
,,,,,,,,,,,,,,,,,6155c391189863bfe2e4a593,31,2022-02-12_16h55.41.321,lexical_decision_task_DD_L3,2021.2.3,Linux armv8l,59.57345407,,,,,,,,,,0.6159,1,,,,,,,,,,,,,,,,,,,,,,,-0.369535043,-0.2759658,1,0,0,,,,,,,DONKEY,C,z,m,./images/DONKEY.png,,,,,,,,,,,,,,,,,,,,,0,-0.369535043,-0.2759658,1,0,0,0.6159,button_left_test,0,72,72,103,1
,,,,,,,,,,,,,,,,,6155c391189863bfe2e4a593,31,2022-02-12_16h55.41.321,lexical_decision_task_DD_L3,2021.2.3,Linux armv8l,59.57345407,,,,,,,,,,0.7677,1,,,,,,,,,,,,,,,,,,,,,,,-0.39081656,-0.313902411,1,0,0,,,,,,,PEBBLE,C,z,m,./images/PEBBLE.png,,,,,,,,,,,,,,,,,,,,,0,-0.39081656,-0.313902411,1,0,0,0.7677,button_left_test,0,73,73,166,1
,,,,,,,,,,,,,,,,,6155c391189863bfe2e4a593,31,2022-02-12_16h55.41.321,lexical_decision_task_DD_L3,2021.2.3,Linux armv8l,59.57345407,,,,,,,,,,0.5654,1,,,,,,,,,,,,,,,,,,,,,,,-0.426902611,-0.287069151,1,0,0,,,,,,,CASINO,C,z,m,./images/CASINO.png,,,,,,,,,,,,,,,,,,,,,0,-0.426902611,-0.287069151,1,0,0,0.5654,button_left_test,0,74,74,112,1
,,,,,,,,,,,,,,,,,6155c391189863bfe2e4a593,31,2022-02-12_16h55.41.321,lexical_decision_task_DD_L3,2021.2.3,Linux armv8l,59.57345407,,,,,,,,,,0.8186,1,,,,,,,,,,,,,,,,,,,,,,,-0.43430488,-0.299097891,1,0,0,,,,,,,PARADE,HB,z,m,./images/PARADEHB.png,,,,,,,,,,,,,,,,,,,,,0,-0.43430488,-0.299097891,1,0,0,0.8186,button_left_test,0,75,75,101,1
,,,,,,,,,,,,,,,,,6155c391189863bfe2e4a593,31,2022-02-12_16h55.41.321,lexical_decision_task_DD_L3,2021.2.3,Linux armv8l,59.57345407,,,,,,,,,,1.0681,1,,,,,,,,,,,,,,,,,,,,,,,0.406777729,-0.302798982,1,0,0,,,,,,,SPORT,LB,m,m,./images/SPORTLB.png,,,,,,,,,,,,,,,,,,,,,0,0.406777729,-0.302798982,1,0,0,1.0681,button_right_test,0,76,76,48,1
,,,,,,,,,,,,,,,,,6155c391189863bfe2e4a593,31,2022-02-12_16h55.41.321,lexical_decision_task_DD_L3,2021.2.3,Linux armv8l,59.57345407,,,,,,,,,,0.9686,0,,,,,,,,,,,,,,,,,,,,,,,0.376243378,-0.313902411,1,0,0,,,,,,,PLANET,HB,z,m,./images/PLANETHB.png,,,,,,,,,,,,,,,,,,,,,0,0.376243378,-0.313902411,1,0,0,0.9686,button_right_test,0,77,77,164,1
,,,,,,,,,,,,,,,,,6155c391189863bfe2e4a593,31,2022-02-12_16h55.41.321,lexical_decision_task_DD_L3,2021.2.3,Linux armv8l,59.57345407,,,,,,,,,,0.7655,1,,,,,,,,,,,,,,,,,,,,,,,-0.438006006,-0.290770397,1,0,0,,,,,,,TIGER,C,z,m,./images/TIGER.png,,,,,,,,,,,,,,,,,,,,,0,-0.438006006,-0.290770397,1,0,0,0.7655,button_left_test,0,78,78,121,1
,,,,,,,,,,,,,,,,,6155c391189863bfe2e4a593,31,2022-02-12_16h55.41.321,lexical_decision_task_DD_L3,2021.2.3,Linux armv8l,59.57345407,,,,,,,,,,1.0839,0,,,,,,,,,,,,,,,,,,,,,,,0.413254677,-0.316678346,1,0,0,,,,,,,ARROW,LB,z,m,./images/ARROWLB.png,,,,,,,,,,,,,,,,,,,,,0,0.413254677,-0.316678346,1,0,0,1.0839,button_right_test,0,79,79,153,1
,,,,,,,,,,,,,,,,,6155c391189863bfe2e4a593,31,2022-02-12_16h55.41.321,lexical_decision_task_DD_L3,2021.2.3,Linux armv8l,59.57345407,,,,,,,,,,0.5549,1,,,,,,,,,,,,,,,,,,,,,,,0.399375547,-0.311126631,1,0,0,,,,,,,STORM,LB,m,m,./images/STORMLB.png,,,,,,,,,,,,,,,,,,,,,0,0.399375547,-0.311126631,1,0,0,0.5549,button_right_test,0,80,80,30,1
,,,,,,,,,,,,,,,,,6155c391189863bfe2e4a593,31,2022-02-12_16h55.41.321,lexical_decision_task_DD_L3,2021.2.3,Linux armv8l,59.57345407,,,,,,,,,,0.6992,0,,,,,,,,,,,,,,,,,,,,,,,-0.368609761,-0.312977099,1,0,0,,,,,,,TOMATO,LB,m,m,./images/TOMATOLB.png,,,,,,,,,,,,,,,,,,,,,0,-0.368609761,-0.312977099,1,0,0,0.6992,button_left_test,0,81,81,0,1
,,,,,,,,,,,,,,,,,6155c391189863bfe2e4a593,31,2022-02-12_16h55.41.321,lexical_decision_task_DD_L3,2021.2.3,Linux armv8l,59.57345407,,,,,,,,,,0.7456,1,,,,,,,,,,,,,,,,,,,,,,,0.431760366,-0.292620865,1,0,0,,,,,,,PIMPLE,HB,m,m,./images/PIMPLEHB.png,,,,,,,,,,,,,,,,,,,,,0,0.431760366,-0.292620865,1,0,0,0.7456,button_right_test,0,82,82,71,1
,,,,,,,,,,,,,,,,,6155c391189863bfe2e4a593,31,2022-02-12_16h55.41.321,lexical_decision_task_DD_L3,2021.2.3,Linux armv8l,59.57345407,,,,,,,,,,1.0314,1,,,,,,,,,,,,,,,,,,,,,,,0.084779113,-0.423085919,1,0,0,,,,,,,BUBBLE,HB,z,m,./images/BUBBLEHB.png,break_done_button,,,,,,,,,,,,,,,,,,,,0,-0.433379588,-0.298172579,1,0,0,1.0314,button_left_test,0,83,83,155,1
,,,,,,,,,,,,,,,,,6155c391189863bfe2e4a593,31,2022-02-12_16h55.41.321,lexical_decision_task_DD_L3,2021.2.3,Linux armv8l,59.57345407,,,,,,,,,,30.9846,1,,,,,,,,,,,,,,,,,,,,,,,0.412329521,-0.350913943,1,0,0,,,,,,,PURSE,HB,m,m,./images/PURSEHB.png,,,,,,,,,,,,,,,,,,,,,0,0.412329521,-0.350913943,1,0,0,30.9846,button_right_test,0,84,84,62,1
,,,,,,,,,,,,,,,,,6155c391189863bfe2e4a593,31,2022-02-12_16h55.41.321,lexical_decision_task_DD_L3,2021.2.3,Linux armv8l,59.57345407,,,,,,,,,,0.6388,0,,,,,,,,,,,,,,,,,,,,,,,-0.39451769,-0.353689567,1,0,0,,,,,,,BIRTH,C,m,m,./images/BIRTH.png,,,,,,,,,,,,,,,,,,,,,0,-0.39451769,-0.353689567,1,0,0,0.6388,button_left_test,0,85,85,37,1
,,,,,,,,,,,,,,,,,6155c391189863bfe2e4a593,31,2022-02-12_16h55.41.321,lexical_decision_task_DD_L3,2021.2.3,Linux armv8l,59.57345407,,,,,,,,,,0.8499,1,,,,,,,,,,,,,,,,,,,,,,,0.393823755,-0.25375902,1,0,0,,,,,,,PENCE,C,m,m,./images/PENCE.png,,,,,,,,,,,,,,,,,,,,,0,0.393823755,-0.25375902,1,0,0,0.8499,button_right_test,0,86,86,16,1
,,,,,,,,,,,,,,,,,6155c391189863bfe2e4a593,31,2022-02-12_16h55.41.321,lexical_decision_task_DD_L3,2021.2.3,Linux armv8l,59.57345407,,,,,,,,,,0.715,1,,,,,,,,,,,,,,,,,,,,,,,0.359588312,-0.330557709,1,0,0,,,,,,,NOOSE,LB,m,m,./images/NOOSELB.png,,,,,,,,,,,,,,,,,,,,,0,0.359588312,-0.330557709,1,0,0,0.715,button_right_test,0,87,87,72,1
,,,,,,,,,,,,,,,,,6155c391189863bfe2e4a593,31,2022-02-12_16h55.41.321,lexical_decision_task_DD_L3,2021.2.3,Linux armv8l,59.57345407,,,,,,,,,,0.6829,1,,,,,,,,,,,,,,,,,,,,,,,-0.444482997,-0.333333333,1,0,0,,,,,,,BROOM,LB,z,m,./images/BROOMLB.png,,,,,,,,,,,,,,,,,,,,,0,-0.444482997,-0.333333333,1,0,0,0.6829,button_left_test,0,88,88,162,1
